subject,age,gender,block,trial,testform,item,dimension,distractor,puzzle,accuracy,rt
686755,22,Female,1,1,2,28,2,paired,28_flower_double__0000122201000100000011220000020001000100_shape_set_20_T.jpeg,1,12.207
686755,22,Female,1,2,2,29,7,minimal,29_grid_double__10121011111012010000102012020000_shape_set_4_T.jpeg,1,13.859
686755,22,Female,1,3,2,27,3,paired,27_double__1020020012121122_shape_set_17_T.jpeg,0,10.296
686755,22,Female,1,4,2,30,7,minimal,30_grid_double__10211001101112200100121012020000_shape_set_17_T.jpeg,1,11.779
686755,22,Female,1,5,2,44,6,minimal,44_triple__120211201211000011101212_shape_set_4_T.jpeg,1,16.485
686755,22,Female,1,6,2,31,3,paired,31_flower_double__0200010011120100020012110000000002001102_shape_set_20_T.jpeg,1,8.336
686755,22,Female,1,7,2,32,1,paired,32_flower_single__11110100010002000000_shape_set_4_T.jpeg,0,13.407
686755,22,Female,1,8,2,24,7,minimal,24_grid_triple__010011220200122002000200100110021212000001000200_shape_set_17_T.jpeg,0,11.324
686755,22,Female,1,9,2,25,2,paired,25_clockwork3_single__112110110000_shape_set_20_T.jpeg,1,5.4670000000000005
686755,22,Female,1,10,2,26,5,paired,26_grid_triple__000000000000112102000100020000000200000011221121_shape_set_4_T.jpeg,0,16.614
686755,22,Female,1,11,2,40,4,minimal,40_grid_double__02000000010011100200020010211111_shape_set_20_T.jpeg,0,9.811
686755,22,Female,1,12,2,43,1,paired,43_flower_double__0000010000000200020001000100000012200000_shape_set_20_T.jpeg,1,8.193
686755,22,Female,1,13,2,41,1,minimal,41_single__112012110000_shape_set_4_T.jpeg,0,1.734
686755,22,Female,1,14,2,19,2,paired,19_single__101112201212_shape_set_20_T.jpeg,1,9.523
686755,22,Female,1,15,2,14,5,minimal,14_triple__112110100000000010021222_shape_set_4_T.jpeg,0,11.712
686755,22,Female,1,16,2,15,3,paired,15_double__0000110211121011_shape_set_17_T.jpeg,1,11.543
686755,22,Female,1,17,2,33,1,minimal,33_single__000010221212_shape_set_17_T.jpeg,1,10.728
686755,22,Female,1,18,2,34,3,paired,34_flower_single__11210200122211220100_shape_set_20_T.jpeg,1,15.584
686755,22,Female,1,19,2,42,4,minimal,42_double__1111101211021120_shape_set_17_T.jpeg,1,10.279
686755,22,Female,1,20,2,18,3,paired,18_flower_double__1022102200000100010000000200122101000000_shape_set_17_T.jpeg,0,9.966
686755,22,Female,1,21,2,16,4,paired,16_grid_single__1012121112021101_shape_set_20_T.jpeg,1,7.782
686755,22,Female,1,22,2,22,2,minimal,22_single__112212211220_shape_set_20_T.jpeg,0,4.29
686755,22,Female,1,23,2,23,4,paired,23_grid_single__1110120212111121_shape_set_4_T.jpeg,1,8.132
686755,22,Female,1,24,2,13,3,paired,13_flower_single__01001221122102001122_shape_set_20_T.jpeg,1,10.371
686755,22,Female,1,25,2,45,7,minimal,45_grid_triple__101211020100111110200000010000000100121002000200_shape_set_17_T.jpeg,1,16.94
686755,22,Female,1,26,2,46,6,paired,46_triple__101112200200110212211001_shape_set_20_T.jpeg,1,15.073
686755,22,Female,1,27,2,20,2,paired,20_double__1221010010220000_shape_set_4_T.jpeg,1,6.953
686755,22,Female,1,28,2,21,7,minimal,21_triple__100111201112121010221202_shape_set_17_T.jpeg,1,10.881
686755,22,Female,1,29,2,38,1,paired,38_clockwork3_single__010011110000_shape_set_4_T.jpeg,1,3.66
686755,22,Female,1,30,2,39,2,paired,39_flower_double__0100010001000000122001000000010012120200_shape_set_17_T.jpeg,0,18.167
686755,22,Female,1,31,2,8,1,paired,8_grid_single__0100000000001111_shape_set_4_T.jpeg,1,3.881
686755,22,Female,1,32,2,10,3,paired,10_triple__000012221120010002000000_shape_set_20_T.jpeg,1,7.774
686755,22,Female,1,33,2,11,3,minimal,11_grid_single__1220111101001121_shape_set_4_T.jpeg,0,11.707
686755,22,Female,1,34,2,12,4,paired,12_double__1212102211111221_shape_set_17_T.jpeg,0,5.939
686755,22,Female,1,35,2,17,4,paired,17_double__1222110111201012_shape_set_4_T.jpeg,1,8.066
686755,22,Female,1,36,2,37,3,paired,37_flower_double__0200010001000200020002001211110111120100_shape_set_20_T.jpeg,1,10.967
686755,22,Female,1,37,2,4,1,paired,4_flower_single__02001220000001000200_shape_set_20_T.jpeg,1,3.778
686755,22,Female,1,38,2,9,1,minimal,9_flower_single__10020000020001000200_shape_set_17_T.jpeg,1,5.293
686755,22,Female,1,39,2,6,2,paired,6_single__121210101222_shape_set_17_T.jpeg,1,4.246
686755,22,Female,1,40,2,1,2,paired,1_single__101010001010_shape_set_20_T.jpeg,1,2.13
686755,22,Female,1,41,2,7,1,minimal,7_flower_single__01000200020012200200_shape_set_20_T.jpeg,1,3.1870000000000003
686755,22,Female,1,42,2,3,1,paired,3_clockwork3_single__000011010200_shape_set_17_T.jpeg,1,1.669
686755,22,Female,1,43,2,2,1,paired,2_double__0000020001001020_shape_set_4_T.jpeg,1,3.557
686755,22,Female,1,44,2,5,1,minimal,5_grid_single__0000000010200000_shape_set_4_T.jpeg,1,1.842
686755,22,Female,1,45,2,36,6,minimal,36_triple__111212011010112010220100_shape_set_17_T.jpeg,0,10.839
686755,22,Female,1,46,2,35,8,minimal,35_grid_triple__122112021120000000001010010001001022110101000100_shape_set_4_T.jpeg,0,29.999
686897,22,Female,2,1,1,60,4,paired,60_triple__111212220100010000001122_shape_set_20_T.jpeg,0,10.605
686897,22,Female,2,2,1,8,1,minimal,8_grid_single__0100000000001111_shape_set_17_T.jpeg,1,3.738
686897,22,Female,2,3,1,7,1,minimal,7_flower_single__01000200020012200200_shape_set_4_T.jpeg,1,3.1790000000000003
686897,22,Female,2,4,1,57,1,minimal,57_single__020011011121_shape_set_20_T.jpeg,1,5.631
686897,22,Female,2,5,1,61,2,minimal,61_flower_double__1211010002000100020001001121010001000200_shape_set_4_T.jpeg,0,8.736
686897,22,Female,2,6,1,58,3,minimal,58_clockwork3_single__102211221112_shape_set_4_T.jpeg,0,6.17
686897,22,Female,2,7,1,59,5,paired,59_flower_single__11211110102010011122_shape_set_17_T.jpeg,0,12.218
686897,22,Female,2,8,1,62,3,minimal,62_grid_triple__010000000000020000000100000012210000020000000100_shape_set_17_T.jpeg,1,5.648
686897,22,Female,2,9,1,29,7,minimal,29_grid_double__10121011111012010000102012020000_shape_set_17_T.jpeg,1,10.35
686897,22,Female,2,10,1,30,7,paired,30_grid_double__10211001101112200100121012020000_shape_set_20_T.jpeg,1,7.004
686897,22,Female,2,11,1,31,3,paired,31_flower_double__0200010011120100020012110000000002001102_shape_set_4_T.jpeg,1,9.177
686897,22,Female,2,12,1,32,1,paired,32_flower_single__11110100010002000000_shape_set_17_T.jpeg,1,6.038
686897,22,Female,2,13,1,1,2,minimal,1_single__101010001010_shape_set_4_T.jpeg,1,1.571
686897,22,Female,2,14,1,2,1,minimal,2_double__0000020001001020_shape_set_17_T.jpeg,1,2.724
686897,22,Female,2,15,1,44,6,paired,44_triple__120211201211000011101212_shape_set_17_T.jpeg,0,13.202
686897,22,Female,2,16,1,6,2,paired,6_single__121210101222_shape_set_20_T.jpeg,1,6.181
686897,22,Female,2,17,1,15,3,paired,15_double__0000110211121011_shape_set_20_T.jpeg,0,6.758
686897,22,Female,2,18,1,16,4,paired,16_grid_single__1012121112021101_shape_set_4_T.jpeg,1,3.3240000000000003
686897,22,Female,2,19,1,12,4,paired,12_double__1212102211111221_shape_set_20_T.jpeg,0,5.323
686897,22,Female,2,20,1,24,7,paired,24_grid_triple__010011220200122002000200100110021212000001000200_shape_set_20_T.jpeg,0,7.117
686897,22,Female,2,21,1,25,2,minimal,25_clockwork3_single__112110110000_shape_set_4_T.jpeg,1,3.685
686897,22,Female,2,22,1,26,5,minimal,26_grid_triple__000000000000112102000100020000000200000011221121_shape_set_17_T.jpeg,0,7.705
686897,22,Female,2,23,1,27,3,minimal,27_double__1020020012121122_shape_set_20_T.jpeg,0,8.458
686897,22,Female,2,24,1,28,2,minimal,28_flower_double__0000122201000100000011220000020001000100_shape_set_4_T.jpeg,0,8.275
686897,22,Female,2,25,1,4,1,paired,4_flower_single__02001220000001000200_shape_set_4_T.jpeg,1,1.975
686897,22,Female,2,26,1,39,2,minimal,39_flower_double__0100010001000000122001000000010012120200_shape_set_20_T.jpeg,1,5.3100000000000005
686897,22,Female,2,27,1,43,1,paired,43_flower_double__0000010000000200020001000100000012200000_shape_set_4_T.jpeg,1,6.655
686897,22,Female,2,28,1,41,1,paired,41_single__112012110000_shape_set_17_T.jpeg,0,3.217
686897,22,Female,2,29,1,37,3,paired,37_flower_double__0200010001000200020002001211110111120100_shape_set_4_T.jpeg,0,4.1450000000000005
686897,22,Female,2,30,1,3,1,paired,3_clockwork3_single__000011010200_shape_set_20_T.jpeg,1,1.382
686897,22,Female,2,31,1,38,1,paired,38_clockwork3_single__010011110000_shape_set_17_T.jpeg,1,4.417
686897,22,Female,2,32,1,5,1,paired,5_grid_single__0000000010200000_shape_set_17_T.jpeg,1,1.607
686897,22,Female,2,33,1,17,4,paired,17_double__1222110111201012_shape_set_17_T.jpeg,0,6.79
686897,22,Female,2,34,1,9,1,paired,9_flower_single__10020000020001000200_shape_set_20_T.jpeg,1,6.38
686897,22,Female,2,35,1,52,5,minimal,52_flower_single__12121202111010011122_shape_set_4_T.jpeg,0,13.154
686897,22,Female,2,36,1,11,3,minimal,11_grid_single__1220111101001121_shape_set_17_T.jpeg,1,6.206
686897,22,Female,2,37,1,55,6,paired,55_grid_double__12021120101202001210000012110100_shape_set_4_T.jpeg,1,13.538
686897,22,Female,2,38,1,13,3,minimal,13_flower_single__01001221122102001122_shape_set_4_T.jpeg,0,4.643
686897,22,Female,2,39,1,14,5,minimal,14_triple__112110100000000010021222_shape_set_17_T.jpeg,0,3.016
686897,22,Female,2,40,1,56,3,minimal,56_grid_single__1001101200001122_shape_set_17_T.jpeg,1,7.969
686897,22,Female,2,41,1,18,3,paired,18_flower_double__1022102200000100010000000200122101000000_shape_set_20_T.jpeg,1,7.563
686897,22,Female,2,42,1,40,4,paired,40_grid_double__02000000010011100200020010211111_shape_set_4_T.jpeg,0,6.502
686897,22,Female,2,43,1,21,7,paired,21_triple__100111201112121010221202_shape_set_20_T.jpeg,0,5.745
686897,22,Female,2,44,1,54,6,minimal,54_grid_double__01001121120112110100100212100100_shape_set_20_T.jpeg,0,10.591
686897,22,Female,2,45,1,42,4,minimal,42_double__1111101211021120_shape_set_20_T.jpeg,0,4.9430000000000005
686897,22,Female,2,46,1,33,1,paired,33_single__000010221212_shape_set_20_T.jpeg,1,8.458
686897,22,Female,2,47,1,36,6,paired,36_triple__111212011010112010220100_shape_set_20_T.jpeg,0,4.687
686897,22,Female,2,48,1,45,7,minimal,45_grid_triple__101211020100111110200000010000000100121002000200_shape_set_20_T.jpeg,1,6.277
686897,22,Female,2,49,1,46,6,paired,46_triple__101112200200110212211001_shape_set_4_T.jpeg,1,8.672
686897,22,Female,2,50,1,19,2,paired,19_single__101112201212_shape_set_4_T.jpeg,0,4.266
686897,22,Female,2,51,1,53,4,minimal,53_flower_double__1001010002001212112201000200020010200100_shape_set_17_T.jpeg,0,8.719
686897,22,Female,2,52,1,20,2,minimal,20_double__1221010010220000_shape_set_17_T.jpeg,1,5.869
686897,22,Female,2,53,1,51,2,paired,51_double__0100102201001012_shape_set_20_T.jpeg,1,5.846
686897,22,Female,2,54,1,49,2,minimal,49_clockwork3_single__010011221121_shape_set_4_T.jpeg,0,7.3
686897,22,Female,2,55,1,23,4,paired,23_grid_single__1110120212111121_shape_set_17_T.jpeg,1,6.625
686897,22,Female,2,56,1,35,8,paired,35_grid_triple__122112021120000000001010010001001022110101000100_shape_set_17_T.jpeg,1,8.018
686897,22,Female,2,57,1,22,2,paired,22_single__112212211220_shape_set_4_T.jpeg,1,6.095
686897,22,Female,2,58,1,10,3,minimal,10_triple__000012221120010002000000_shape_set_4_T.jpeg,1,4.466
686897,22,Female,2,59,1,34,3,paired,34_flower_single__11210200122211220100_shape_set_4_T.jpeg,0,6.205
686897,22,Female,2,60,1,48,1,minimal,48_flower_double__0100121102000000020002000100010000000000_shape_set_20_T.jpeg,1,9.026
686897,22,Female,2,61,1,47,2,minimal,47_flower_double__0100101200000200101102000000010001000100_shape_set_17_T.jpeg,0,12.673
686897,22,Female,2,62,1,50,2,paired,50_clockwork3_single__122200001022_shape_set_17_T.jpeg,1,7.71
686903,24,Female,1,1,2,15,3,paired,15_double__0000110211121011_shape_set_17_T.jpeg,1,28.998
686903,24,Female,1,2,2,16,4,minimal,16_grid_single__1012121112021101_shape_set_20_T.jpeg,1,10.835
686903,24,Female,1,3,2,17,4,paired,17_double__1222110111201012_shape_set_4_T.jpeg,0,15.895
686903,24,Female,1,4,2,18,3,minimal,18_flower_double__1022102200000100010000000200122101000000_shape_set_17_T.jpeg,0,21.213
686903,24,Female,1,5,2,19,2,minimal,19_single__101112201212_shape_set_20_T.jpeg,0,12.357
686903,24,Female,1,6,2,20,2,paired,20_double__1221010010220000_shape_set_4_T.jpeg,1,12.738
686903,24,Female,1,7,2,21,7,minimal,21_triple__100111201112121010221202_shape_set_17_T.jpeg,0,26.512
686903,24,Female,1,8,2,22,2,minimal,22_single__112212211220_shape_set_20_T.jpeg,1,6.923
686903,24,Female,1,9,2,23,4,minimal,23_grid_single__1110120212111121_shape_set_4_T.jpeg,0,16.388
686903,24,Female,1,10,2,24,7,paired,24_grid_triple__010011220200122002000200100110021212000001000200_shape_set_17_T.jpeg,0,20.703
686903,24,Female,1,11,2,25,2,minimal,25_clockwork3_single__112110110000_shape_set_20_T.jpeg,1,9.051
686903,24,Female,1,12,2,26,5,paired,26_grid_triple__000000000000112102000100020000000200000011221121_shape_set_4_T.jpeg,0,19.574
686903,24,Female,1,13,2,27,3,minimal,27_double__1020020012121122_shape_set_17_T.jpeg,0,12.72
686903,24,Female,1,14,2,28,2,paired,28_flower_double__0000122201000100000011220000020001000100_shape_set_20_T.jpeg,1,20.303
686903,24,Female,1,15,2,29,7,minimal,29_grid_double__10121011111012010000102012020000_shape_set_4_T.jpeg,0,18.436
686903,24,Female,1,16,2,30,7,minimal,30_grid_double__10211001101112200100121012020000_shape_set_17_T.jpeg,1,12.508
686903,24,Female,1,17,2,31,3,minimal,31_flower_double__0200010011120100020012110000000002001102_shape_set_20_T.jpeg,1,12.627
686903,24,Female,1,18,2,32,1,paired,32_flower_single__11110100010002000000_shape_set_4_T.jpeg,1,9.22
686903,24,Female,1,19,2,5,1,paired,5_grid_single__0000000010200000_shape_set_4_T.jpeg,1,4.083
686903,24,Female,1,20,2,6,2,minimal,6_single__121210101222_shape_set_17_T.jpeg,0,28.278
686903,24,Female,1,21,2,7,1,minimal,7_flower_single__01000200020012200200_shape_set_20_T.jpeg,1,5.8580000000000005
686903,24,Female,1,22,2,8,1,minimal,8_grid_single__0100000000001111_shape_set_4_T.jpeg,1,5.7490000000000006
686903,24,Female,1,23,2,9,1,paired,9_flower_single__10020000020001000200_shape_set_17_T.jpeg,1,6.333
686903,24,Female,1,24,2,10,3,minimal,10_triple__000012221120010002000000_shape_set_20_T.jpeg,1,16.524
686903,24,Female,1,25,2,1,2,minimal,1_single__101010001010_shape_set_20_T.jpeg,1,3.306
686903,24,Female,1,26,2,2,1,paired,2_double__0000020001001020_shape_set_4_T.jpeg,1,6.798
686903,24,Female,1,27,2,3,1,minimal,3_clockwork3_single__000011010200_shape_set_17_T.jpeg,1,2.7
686903,24,Female,1,28,2,4,1,minimal,4_flower_single__02001220000001000200_shape_set_20_T.jpeg,1,5.229
686903,24,Female,1,29,2,12,4,paired,12_double__1212102211111221_shape_set_17_T.jpeg,0,11.338
686903,24,Female,1,30,2,11,3,paired,11_grid_single__1220111101001121_shape_set_4_T.jpeg,1,16.217
686903,24,Female,1,31,2,13,3,minimal,13_flower_single__01001221122102001122_shape_set_20_T.jpeg,1,25.29
686903,24,Female,1,32,2,14,5,paired,14_triple__112110100000000010021222_shape_set_4_T.jpeg,0,21.005
686907,22,Male,2,1,1,23,4,minimal,23_grid_single__1110120212111121_shape_set_17_T.jpeg,1,17.301000000000002
686907,22,Male,2,2,1,24,7,paired,24_grid_triple__010011220200122002000200100110021212000001000200_shape_set_20_T.jpeg,0,28.707
686907,22,Male,2,3,1,22,2,minimal,22_single__112212211220_shape_set_4_T.jpeg,1,9.426
686907,22,Male,2,4,1,8,1,minimal,8_grid_single__0100000000001111_shape_set_17_T.jpeg,0,13.749
686907,22,Male,2,5,1,6,2,minimal,6_single__121210101222_shape_set_20_T.jpeg,1,5.756
686907,22,Male,2,6,1,20,2,minimal,20_double__1221010010220000_shape_set_17_T.jpeg,1,16.171
686907,22,Male,2,7,1,21,7,paired,21_triple__100111201112121010221202_shape_set_20_T.jpeg,0,16.567
686907,22,Male,2,8,1,19,2,minimal,19_single__101112201212_shape_set_4_T.jpeg,1,9.365
686907,22,Male,2,9,1,7,1,minimal,7_flower_single__01000200020012200200_shape_set_4_T.jpeg,1,4.283
686907,22,Male,2,10,1,5,1,minimal,5_grid_single__0000000010200000_shape_set_17_T.jpeg,1,1.821
686907,22,Male,2,11,1,11,3,paired,11_grid_single__1220111101001121_shape_set_17_T.jpeg,1,10.053
686907,22,Male,2,12,1,9,1,paired,9_flower_single__10020000020001000200_shape_set_20_T.jpeg,1,4.7
686907,22,Male,2,13,1,10,3,paired,10_triple__000012221120010002000000_shape_set_4_T.jpeg,1,13.293
686907,22,Male,2,14,1,3,1,minimal,3_clockwork3_single__000011010200_shape_set_20_T.jpeg,1,2.473
686907,22,Male,2,15,1,4,1,paired,4_flower_single__02001220000001000200_shape_set_4_T.jpeg,1,3.549
686907,22,Male,2,16,1,2,1,paired,2_double__0000020001001020_shape_set_17_T.jpeg,1,2.602
686907,22,Male,2,17,1,34,3,paired,34_flower_single__11210200122211220100_shape_set_4_T.jpeg,1,11.337
686907,22,Male,2,18,1,25,2,paired,25_clockwork3_single__112110110000_shape_set_4_T.jpeg,0,5.229
686907,22,Male,2,19,1,12,4,minimal,12_double__1212102211111221_shape_set_20_T.jpeg,1,16.919
686907,22,Male,2,20,1,16,4,paired,16_grid_single__1012121112021101_shape_set_4_T.jpeg,1,7.033
686907,22,Male,2,21,1,17,4,paired,17_double__1222110111201012_shape_set_17_T.jpeg,0,16.861
686907,22,Male,2,22,1,18,3,paired,18_flower_double__1022102200000100010000000200122101000000_shape_set_20_T.jpeg,1,27.349
686907,22,Male,2,23,1,29,7,minimal,29_grid_double__10121011111012010000102012020000_shape_set_17_T.jpeg,1,18.893
686907,22,Male,2,24,1,30,7,paired,30_grid_double__10211001101112200100121012020000_shape_set_20_T.jpeg,1,10.275
686907,22,Male,2,25,1,31,3,paired,31_flower_double__0200010011120100020012110000000002001102_shape_set_4_T.jpeg,0,28.54
686907,22,Male,2,26,1,33,1,paired,33_single__000010221212_shape_set_20_T.jpeg,0,5.404
686907,22,Male,2,27,1,15,3,minimal,15_double__0000110211121011_shape_set_20_T.jpeg,0,25.635
686907,22,Male,2,28,1,32,1,minimal,32_flower_single__11110100010002000000_shape_set_17_T.jpeg,1,8.541
686907,22,Male,2,29,1,1,2,paired,1_single__101010001010_shape_set_4_T.jpeg,1,1.618
686907,22,Male,2,30,1,14,5,minimal,14_triple__112110100000000010021222_shape_set_17_T.jpeg,1,23.327
686907,22,Male,2,31,1,13,3,paired,13_flower_single__01001221122102001122_shape_set_4_T.jpeg,0,11.611
686907,22,Male,2,32,1,28,2,paired,28_flower_double__0000122201000100000011220000020001000100_shape_set_4_T.jpeg,0,14.718
686907,22,Male,2,33,1,35,8,minimal,35_grid_triple__122112021120000000001010010001001022110101000100_shape_set_17_T.jpeg,0,9.168
686907,22,Male,2,34,1,27,3,paired,27_double__1020020012121122_shape_set_20_T.jpeg,1,15.23
686907,22,Male,2,35,1,26,5,paired,26_grid_triple__000000000000112102000100020000000200000011221121_shape_set_17_T.jpeg,1,19.138
686907,22,Male,2,36,1,36,6,paired,36_triple__111212011010112010220100_shape_set_20_T.jpeg,1,18.014
686995,26,Female,2,1,2,64,6,paired,64_grid_triple__000001001110020000000000112002001212010001001122_shape_set_20_T.jpeg,0,0.584
686995,26,Female,2,2,2,37,3,minimal,37_flower_double__0200010001000200020002001211110111120100_shape_set_20_T.jpeg,0,0.406
686995,26,Female,2,3,2,8,1,minimal,8_grid_single__0100000000001111_shape_set_4_T.jpeg,0,6.885
686995,26,Female,2,4,2,13,3,minimal,13_flower_single__01001221122102001122_shape_set_20_T.jpeg,0,10.814
686995,26,Female,2,5,2,63,5,paired,63_triple__120211111021020000001010_shape_set_17_T.jpeg,1,0.716
686995,26,Female,2,6,2,15,3,minimal,15_double__0000110211121011_shape_set_17_T.jpeg,0,6.93
686995,26,Female,2,7,2,76,5,minimal,76_flower_single__12211102120110101011_shape_set_20_T.jpeg,1,0.644
686995,26,Female,2,8,2,77,3,paired,77_grid_double__00000100000011111011010001000000_shape_set_4_T.jpeg,1,0.667
686995,26,Female,2,9,2,38,1,paired,38_clockwork3_single__010011110000_shape_set_4_T.jpeg,0,0.499
686995,26,Female,2,10,2,60,4,paired,60_triple__111212220100010000001122_shape_set_17_T.jpeg,0,0.736
686995,26,Female,2,11,2,62,3,minimal,62_grid_triple__010000000000020000000100000012210000020000000100_shape_set_4_T.jpeg,1,0.764
686995,26,Female,2,12,2,35,8,minimal,35_grid_triple__122112021120000000001010010001001022110101000100_shape_set_4_T.jpeg,0,0.455
686995,26,Female,2,13,2,36,6,paired,36_triple__111212011010112010220100_shape_set_17_T.jpeg,0,0.556
686995,26,Female,2,14,2,6,2,paired,6_single__121210101222_shape_set_17_T.jpeg,1,6.3420000000000005
686995,26,Female,2,15,2,7,1,minimal,7_flower_single__01000200020012200200_shape_set_20_T.jpeg,1,4.773
686995,26,Female,2,16,2,48,1,paired,48_flower_double__0100121102000000020002000100010000000000_shape_set_17_T.jpeg,0,0.845
686995,26,Female,2,17,2,9,1,paired,9_flower_single__10020000020001000200_shape_set_17_T.jpeg,0,3.999
686995,26,Female,2,18,2,14,5,paired,14_triple__112110100000000010021222_shape_set_4_T.jpeg,0,5.572
686995,26,Female,2,19,2,29,7,minimal,29_grid_double__10121011111012010000102012020000_shape_set_4_T.jpeg,0,0.801
686995,26,Female,2,20,2,61,2,paired,61_flower_double__1211010002000100020001001121010001000200_shape_set_20_T.jpeg,0,0.538
686995,26,Female,2,21,2,34,3,paired,34_flower_single__11210200122211220100_shape_set_20_T.jpeg,0,0.5740000000000001
686995,26,Female,2,22,2,20,2,paired,20_double__1221010010220000_shape_set_4_T.jpeg,0,2.499
686995,26,Female,2,23,2,22,2,minimal,22_single__112212211220_shape_set_20_T.jpeg,0,1.633
686995,26,Female,2,24,2,10,3,paired,10_triple__000012221120010002000000_shape_set_20_T.jpeg,0,8.693
686995,26,Female,2,25,2,12,4,minimal,12_double__1212102211111221_shape_set_17_T.jpeg,0,6.744
686995,26,Female,2,26,2,18,3,paired,18_flower_double__1022102200000100010000000200122101000000_shape_set_17_T.jpeg,1,2.312
686995,26,Female,2,27,2,19,2,minimal,19_single__101112201212_shape_set_20_T.jpeg,0,5.924
686995,26,Female,2,28,2,74,5,minimal,74_triple__100101001211112010120200_shape_set_4_T.jpeg,0,0.861
686995,26,Female,2,29,2,75,6,minimal,75_flower_double__0200110201001112100101000200101012201111_shape_set_17_T.jpeg,0,0.858
686995,26,Female,2,30,2,73,4,minimal,73_grid_double__01000200111202000000122201001012_shape_set_20_T.jpeg,0,0.722
686995,26,Female,2,31,2,78,7,minimal,78_triple__111212101211100210011020_shape_set_17_T.jpeg,0,0.56
686995,26,Female,2,32,2,39,2,minimal,39_flower_double__0100010001000000122001000000010012120200_shape_set_17_T.jpeg,0,0.735
686995,26,Female,2,33,2,28,2,minimal,28_flower_double__0000122201000100000011220000020001000100_shape_set_20_T.jpeg,0,0.901
686995,26,Female,2,34,2,27,3,paired,27_double__1020020012121122_shape_set_17_T.jpeg,0,2.832
686995,26,Female,2,35,2,16,4,minimal,16_grid_single__1012121112021101_shape_set_20_T.jpeg,0,4.906
686995,26,Female,2,36,2,58,3,paired,58_clockwork3_single__102211221112_shape_set_20_T.jpeg,0,0.6920000000000001
686995,26,Female,2,37,2,5,1,minimal,5_grid_single__0000000010200000_shape_set_4_T.jpeg,1,3.299
686995,26,Female,2,38,2,2,1,minimal,2_double__0000020001001020_shape_set_4_T.jpeg,1,4.874
686995,26,Female,2,39,2,3,1,paired,3_clockwork3_single__000011010200_shape_set_17_T.jpeg,1,2.0460000000000003
686995,26,Female,2,40,2,52,5,paired,52_flower_single__12121202111010011122_shape_set_20_T.jpeg,0,0.432
686995,26,Female,2,41,2,30,7,minimal,30_grid_double__10211001101112200100121012020000_shape_set_17_T.jpeg,0,1.816
686995,26,Female,2,42,2,17,4,paired,17_double__1222110111201012_shape_set_4_T.jpeg,0,3.868
686995,26,Female,2,43,2,59,5,paired,59_flower_single__11211110102010011122_shape_set_4_T.jpeg,0,0.559
686995,26,Female,2,44,2,33,1,minimal,33_single__000010221212_shape_set_17_T.jpeg,0,0.657
686995,26,Female,2,45,2,72,4,minimal,72_double__1022111010121202_shape_set_17_T.jpeg,0,0.612
686995,26,Female,2,46,2,21,7,paired,21_triple__100111201112121010221202_shape_set_17_T.jpeg,0,2.294
686995,26,Female,2,47,2,23,4,paired,23_grid_single__1110120212111121_shape_set_4_T.jpeg,0,1.278
686995,26,Female,2,48,2,24,7,minimal,24_grid_triple__010011220200122002000200100110021212000001000200_shape_set_17_T.jpeg,1,0.755
686995,26,Female,2,49,2,25,2,minimal,25_clockwork3_single__112110110000_shape_set_20_T.jpeg,1,4.325
686995,26,Female,2,50,2,26,5,paired,26_grid_triple__000000000000112102000100020000000200000011221121_shape_set_4_T.jpeg,0,5.6530000000000005
686995,26,Female,2,51,2,11,3,paired,11_grid_single__1220111101001121_shape_set_4_T.jpeg,1,20.365
686995,26,Female,2,52,2,31,3,minimal,31_flower_double__0200010011120100020012110000000002001102_shape_set_20_T.jpeg,0,1.063
686995,26,Female,2,53,2,32,1,minimal,32_flower_single__11110100010002000000_shape_set_4_T.jpeg,0,0.843
686995,26,Female,2,54,2,56,3,minimal,56_grid_single__1001101200001122_shape_set_4_T.jpeg,0,0.7000000000000001
686995,26,Female,2,55,2,57,1,minimal,57_single__020011011121_shape_set_17_T.jpeg,0,0.488
686995,26,Female,2,56,2,4,1,minimal,4_flower_single__02001220000001000200_shape_set_20_T.jpeg,1,2.955
686995,26,Female,2,57,2,46,6,paired,46_triple__101112200200110212211001_shape_set_20_T.jpeg,0,0.767
686995,26,Female,2,58,2,47,2,minimal,47_flower_double__0100101200000200101102000000010001000100_shape_set_4_T.jpeg,0,0.471
686995,26,Female,2,59,2,54,6,paired,54_grid_double__01001121120112110100100212100100_shape_set_17_T.jpeg,0,3.697
686995,26,Female,2,60,2,79,4,minimal,79_flower_double__0100000001001112000011011110000010220200_shape_set_20_T.jpeg,0,0.672
686995,26,Female,2,61,2,67,5,paired,67_grid_double__12220000102110020000010012010100_shape_set_20_T.jpeg,0,0.459
686995,26,Female,2,62,2,55,6,paired,55_grid_double__12021120101202001210000012110100_shape_set_20_T.jpeg,0,0.771
686995,26,Female,2,63,2,70,2,paired,70_grid_single__0000010012111110_shape_set_20_T.jpeg,0,0.66
686995,26,Female,2,64,2,71,2,paired,71_clockwork3_single__102102001101_shape_set_4_T.jpeg,1,0.546
686995,26,Female,2,65,2,1,2,paired,1_single__101010001010_shape_set_20_T.jpeg,1,4.4270000000000005
686995,26,Female,2,66,2,68,1,paired,68_single__100100001000_shape_set_4_T.jpeg,0,1.095
686995,26,Female,2,67,2,69,3,paired,69_clockwork3_single__122212121022_shape_set_17_T.jpeg,0,0.713
686995,26,Female,2,68,2,45,7,minimal,45_grid_triple__101211020100111110200000010000000100121002000200_shape_set_17_T.jpeg,0,1.959
686995,26,Female,2,69,2,65,2,minimal,65_double__0200020012221222_shape_set_4_T.jpeg,1,1.12
686995,26,Female,2,70,2,66,8,paired,66_grid_triple__110211101201112000000200020012110100000001001012_shape_set_17_T.jpeg,0,0.771
686995,26,Female,2,71,2,53,4,minimal,53_flower_double__1001010002001212112201000200020010200100_shape_set_4_T.jpeg,1,0.719
686995,26,Female,2,72,2,42,4,paired,42_double__1111101211021120_shape_set_17_T.jpeg,0,1.34
686995,26,Female,2,73,2,80,4,minimal,80_triple__010002001121020012221221_shape_set_4_T.jpeg,0,0.412
686995,26,Female,2,74,2,44,6,paired,44_triple__120211201211000011101212_shape_set_4_T.jpeg,1,0.59
686995,26,Female,2,75,2,43,1,minimal,43_flower_double__0000010000000200020001000100000012200000_shape_set_20_T.jpeg,0,0.5660000000000001
686995,26,Female,2,76,2,49,2,minimal,49_clockwork3_single__010011221121_shape_set_20_T.jpeg,0,0.857
686995,26,Female,2,77,2,51,2,paired,51_double__0100102201001012_shape_set_17_T.jpeg,0,0.676
686995,26,Female,2,78,2,41,1,paired,41_single__112012110000_shape_set_4_T.jpeg,0,3.472
686995,26,Female,2,79,2,50,2,minimal,50_clockwork3_single__122200001022_shape_set_4_T.jpeg,0,1.039
686995,26,Female,2,80,2,40,4,minimal,40_grid_double__02000000010011100200020010211111_shape_set_20_T.jpeg,0,0.626
686999,24,Female,1,1,3,12,4,paired,12_double__1212102211111221_shape_set_4_T.jpeg,0,9.324
686999,24,Female,1,2,3,34,3,paired,34_flower_single__11210200122211220100_shape_set_17_T.jpeg,0,5.2090000000000005
686999,24,Female,1,3,3,33,1,paired,33_single__000010221212_shape_set_4_T.jpeg,0,5.67
686999,24,Female,1,4,3,20,2,paired,20_double__1221010010220000_shape_set_20_T.jpeg,0,12.873
686999,24,Female,1,5,3,13,3,minimal,13_flower_single__01001221122102001122_shape_set_17_T.jpeg,0,13.773
686999,24,Female,1,6,3,32,1,minimal,32_flower_single__11110100010002000000_shape_set_20_T.jpeg,0,7.268
686999,24,Female,1,7,3,21,7,minimal,21_triple__100111201112121010221202_shape_set_4_T.jpeg,1,21.004
686999,24,Female,1,8,3,23,4,minimal,23_grid_single__1110120212111121_shape_set_20_T.jpeg,1,8.540000000000001
686999,24,Female,1,9,3,35,8,paired,35_grid_triple__122112021120000000001010010001001022110101000100_shape_set_20_T.jpeg,0,13.941
686999,24,Female,1,10,3,9,1,paired,9_flower_single__10020000020001000200_shape_set_4_T.jpeg,1,4.68
686999,24,Female,1,11,3,19,2,paired,19_single__101112201212_shape_set_17_T.jpeg,0,5.587
686999,24,Female,1,12,3,31,3,minimal,31_flower_double__0200010011120100020012110000000002001102_shape_set_17_T.jpeg,1,7.489
686999,24,Female,1,13,3,30,7,minimal,30_grid_double__10211001101112200100121012020000_shape_set_4_T.jpeg,1,22.927
686999,24,Female,1,14,3,10,3,paired,10_triple__000012221120010002000000_shape_set_17_T.jpeg,0,6.13
686999,24,Female,1,15,3,11,3,minimal,11_grid_single__1220111101001121_shape_set_20_T.jpeg,0,11.81
686999,24,Female,1,16,3,26,5,paired,26_grid_triple__000000000000112102000100020000000200000011221121_shape_set_20_T.jpeg,0,14.031
686999,24,Female,1,17,3,18,3,paired,18_flower_double__1022102200000100010000000200122101000000_shape_set_4_T.jpeg,0,27.321
686999,24,Female,1,18,3,29,7,paired,29_grid_double__10121011111012010000102012020000_shape_set_20_T.jpeg,0,9.744
686999,24,Female,1,19,3,7,1,minimal,7_flower_single__01000200020012200200_shape_set_17_T.jpeg,1,5.651
686999,24,Female,1,20,3,22,2,paired,22_single__112212211220_shape_set_17_T.jpeg,1,8.724
686999,24,Female,1,21,3,24,7,minimal,24_grid_triple__010011220200122002000200100110021212000001000200_shape_set_4_T.jpeg,0,18.356
686999,24,Female,1,22,3,14,5,minimal,14_triple__112110100000000010021222_shape_set_20_T.jpeg,0,17.273
686999,24,Female,1,23,3,5,1,paired,5_grid_single__0000000010200000_shape_set_20_T.jpeg,1,1.454
686999,24,Female,1,24,3,6,2,minimal,6_single__121210101222_shape_set_4_T.jpeg,1,11.859
686999,24,Female,1,25,3,39,2,minimal,39_flower_double__0100010001000000122001000000010012120200_shape_set_4_T.jpeg,1,8.814
686999,24,Female,1,26,3,25,2,minimal,25_clockwork3_single__112110110000_shape_set_17_T.jpeg,1,23.398
686999,24,Female,1,27,3,15,3,paired,15_double__0000110211121011_shape_set_4_T.jpeg,0,27.103
686999,24,Female,1,28,3,17,4,paired,17_double__1222110111201012_shape_set_20_T.jpeg,1,18.167
686999,24,Female,1,29,3,4,1,minimal,4_flower_single__02001220000001000200_shape_set_17_T.jpeg,1,2.507
686999,24,Female,1,30,3,37,3,paired,37_flower_double__0200010001000200020002001211110111120100_shape_set_17_T.jpeg,1,25.532
686999,24,Female,1,31,3,8,1,minimal,8_grid_single__0100000000001111_shape_set_20_T.jpeg,1,6.335
686999,24,Female,1,32,3,36,6,minimal,36_triple__111212011010112010220100_shape_set_4_T.jpeg,0,14.794
686999,24,Female,1,33,3,16,4,minimal,16_grid_single__1012121112021101_shape_set_17_T.jpeg,0,14.547
686999,24,Female,1,34,3,3,1,minimal,3_clockwork3_single__000011010200_shape_set_4_T.jpeg,1,1.254
686999,24,Female,1,35,3,28,2,paired,28_flower_double__0000122201000100000011220000020001000100_shape_set_17_T.jpeg,0,3.452
686999,24,Female,1,36,3,38,1,minimal,38_clockwork3_single__010011110000_shape_set_20_T.jpeg,1,9.486
686999,24,Female,1,37,3,2,1,paired,2_double__0000020001001020_shape_set_20_T.jpeg,1,3.35
686999,24,Female,1,38,3,27,3,minimal,27_double__1020020012121122_shape_set_4_T.jpeg,1,2.664
686999,24,Female,1,39,3,1,2,paired,1_single__101010001010_shape_set_17_T.jpeg,1,1.621
687005,22,Male,2,1,3,54,6,paired,54_grid_double__01001121120112110100100212100100_shape_set_4_T.jpeg,0,4.405
687005,22,Male,2,2,3,55,6,minimal,55_grid_double__12021120101202001210000012110100_shape_set_17_T.jpeg,1,8.034
687005,22,Male,2,3,3,13,3,paired,13_flower_single__01001221122102001122_shape_set_17_T.jpeg,0,9.167
687005,22,Male,2,4,3,17,4,minimal,17_double__1222110111201012_shape_set_20_T.jpeg,0,9.136
687005,22,Male,2,5,3,18,3,minimal,18_flower_double__1022102200000100010000000200122101000000_shape_set_4_T.jpeg,0,6.672
687005,22,Male,2,6,3,37,3,minimal,37_flower_double__0200010001000200020002001211110111120100_shape_set_17_T.jpeg,0,7.36
687005,22,Male,2,7,3,28,2,minimal,28_flower_double__0000122201000100000011220000020001000100_shape_set_17_T.jpeg,1,8.789
687005,22,Male,2,8,3,38,1,paired,38_clockwork3_single__010011110000_shape_set_20_T.jpeg,1,3.559
687005,22,Male,2,9,3,8,1,minimal,8_grid_single__0100000000001111_shape_set_20_T.jpeg,1,4.7620000000000005
687005,22,Male,2,10,3,9,1,paired,9_flower_single__10020000020001000200_shape_set_4_T.jpeg,1,3.467
687005,22,Male,2,11,3,11,3,minimal,11_grid_single__1220111101001121_shape_set_20_T.jpeg,0,20.319
687005,22,Male,2,12,3,12,4,minimal,12_double__1212102211111221_shape_set_4_T.jpeg,0,7.619
687005,22,Male,2,13,3,22,2,paired,22_single__112212211220_shape_set_17_T.jpeg,1,5.595
687005,22,Male,2,14,3,7,1,minimal,7_flower_single__01000200020012200200_shape_set_17_T.jpeg,1,3.471
687005,22,Male,2,15,3,15,3,paired,15_double__0000110211121011_shape_set_4_T.jpeg,0,13.219
687005,22,Male,2,16,3,16,4,paired,16_grid_single__1012121112021101_shape_set_17_T.jpeg,1,13.606
687005,22,Male,2,17,3,34,3,paired,34_flower_single__11210200122211220100_shape_set_17_T.jpeg,0,7.493
687005,22,Male,2,18,3,35,8,minimal,35_grid_triple__122112021120000000001010010001001022110101000100_shape_set_20_T.jpeg,0,6.007000000000001
687005,22,Male,2,19,3,19,2,minimal,19_single__101112201212_shape_set_17_T.jpeg,1,7.987
687005,22,Male,2,20,3,20,2,minimal,20_double__1221010010220000_shape_set_20_T.jpeg,0,8.705
687005,22,Male,2,21,3,21,7,minimal,21_triple__100111201112121010221202_shape_set_4_T.jpeg,0,13.809
687005,22,Male,2,22,3,39,2,paired,39_flower_double__0100010001000000122001000000010012120200_shape_set_4_T.jpeg,0,4.11
687005,22,Male,2,23,3,14,5,paired,14_triple__112110100000000010021222_shape_set_20_T.jpeg,0,15.117
687005,22,Male,2,24,3,27,3,minimal,27_double__1020020012121122_shape_set_4_T.jpeg,0,6.542
687005,22,Male,2,25,3,53,4,paired,53_flower_double__1001010002001212112201000200020010200100_shape_set_20_T.jpeg,0,5.132
687005,22,Male,2,26,3,51,2,minimal,51_double__0100102201001012_shape_set_4_T.jpeg,0,3.742
687005,22,Male,2,27,3,36,6,paired,36_triple__111212011010112010220100_shape_set_4_T.jpeg,0,2.26
687005,22,Male,2,28,3,10,3,minimal,10_triple__000012221120010002000000_shape_set_17_T.jpeg,0,10.295
687005,22,Male,2,29,3,26,5,minimal,26_grid_triple__000000000000112102000100020000000200000011221121_shape_set_20_T.jpeg,0,12.344
687005,22,Male,2,30,3,29,7,minimal,29_grid_double__10121011111012010000102012020000_shape_set_20_T.jpeg,0,15.33
687005,22,Male,2,31,3,31,3,paired,31_flower_double__0200010011120100020012110000000002001102_shape_set_17_T.jpeg,0,7.144
687005,22,Male,2,32,3,32,1,paired,32_flower_single__11110100010002000000_shape_set_20_T.jpeg,1,15.056
687005,22,Male,2,33,3,49,2,paired,49_clockwork3_single__010011221121_shape_set_17_T.jpeg,1,4.26
687005,22,Male,2,34,3,50,2,paired,50_clockwork3_single__122200001022_shape_set_20_T.jpeg,1,7.184
687005,22,Male,2,35,3,6,2,paired,6_single__121210101222_shape_set_4_T.jpeg,1,6.119
687005,22,Male,2,36,3,30,7,paired,30_grid_double__10211001101112200100121012020000_shape_set_4_T.jpeg,1,8.095
687005,22,Male,2,37,3,33,1,paired,33_single__000010221212_shape_set_4_T.jpeg,1,10.36
687005,22,Male,2,38,3,23,4,paired,23_grid_single__1110120212111121_shape_set_20_T.jpeg,1,15.808
687005,22,Male,2,39,3,1,2,minimal,1_single__101010001010_shape_set_17_T.jpeg,1,2.04
687005,22,Male,2,40,3,25,2,minimal,25_clockwork3_single__112110110000_shape_set_17_T.jpeg,1,11.863
687005,22,Male,2,41,3,3,1,paired,3_clockwork3_single__000011010200_shape_set_4_T.jpeg,1,2.14
687005,22,Male,2,42,3,5,1,paired,5_grid_single__0000000010200000_shape_set_20_T.jpeg,1,1.767
687005,22,Male,2,43,3,47,2,paired,47_flower_double__0100101200000200101102000000010001000100_shape_set_20_T.jpeg,0,6.595
687005,22,Male,2,44,3,52,5,paired,52_flower_single__12121202111010011122_shape_set_17_T.jpeg,0,2.031
687005,22,Male,2,45,3,2,1,minimal,2_double__0000020001001020_shape_set_20_T.jpeg,1,6.341
687005,22,Male,2,46,3,45,7,paired,45_grid_triple__101211020100111110200000010000000100121002000200_shape_set_4_T.jpeg,0,5.468
687005,22,Male,2,47,3,24,7,paired,24_grid_triple__010011220200122002000200100110021212000001000200_shape_set_4_T.jpeg,0,14.563
687005,22,Male,2,48,3,48,1,paired,48_flower_double__0100121102000000020002000100010000000000_shape_set_4_T.jpeg,1,6.032
687005,22,Male,2,49,3,4,1,paired,4_flower_single__02001220000001000200_shape_set_17_T.jpeg,1,3.142
687005,22,Male,2,50,3,46,6,paired,46_triple__101112200200110212211001_shape_set_17_T.jpeg,0,10.616
687005,22,Male,2,51,3,41,1,minimal,41_single__112012110000_shape_set_20_T.jpeg,1,4.773
687005,22,Male,2,52,3,44,6,paired,44_triple__120211201211000011101212_shape_set_20_T.jpeg,0,4.674
687005,22,Male,2,53,3,43,1,paired,43_flower_double__0000010000000200020001000100000012200000_shape_set_17_T.jpeg,1,5.346
687005,22,Male,2,54,3,42,4,minimal,42_double__1111101211021120_shape_set_4_T.jpeg,0,6.803
687005,22,Male,2,55,3,40,4,minimal,40_grid_double__02000000010011100200020010211111_shape_set_17_T.jpeg,1,3.232
687058,20,Male,2,1,1,72,4,paired,72_double__1022111010121202_shape_set_20_T.jpeg,1,14.798
687058,20,Male,2,2,1,71,2,minimal,71_clockwork3_single__102102001101_shape_set_17_T.jpeg,1,4.3260000000000005
687058,20,Male,2,3,1,44,6,paired,44_triple__120211201211000011101212_shape_set_17_T.jpeg,0,2.82
687058,20,Male,2,4,1,53,4,minimal,53_flower_double__1001010002001212112201000200020010200100_shape_set_17_T.jpeg,0,1.248
687058,20,Male,2,5,1,68,1,paired,68_single__100100001000_shape_set_17_T.jpeg,1,1.524
687058,20,Male,2,6,1,69,3,paired,69_clockwork3_single__122212121022_shape_set_20_T.jpeg,1,7.142
687058,20,Male,2,7,1,70,2,minimal,70_grid_single__0000010012111110_shape_set_4_T.jpeg,1,4.518
687058,20,Male,2,8,1,50,2,paired,50_clockwork3_single__122200001022_shape_set_17_T.jpeg,1,4.357
687058,20,Male,2,9,1,51,2,minimal,51_double__0100102201001012_shape_set_20_T.jpeg,0,1.444
687058,20,Male,2,10,1,52,5,paired,52_flower_single__12121202111010011122_shape_set_4_T.jpeg,1,9.545
687058,20,Male,2,11,1,54,6,paired,54_grid_double__01001121120112110100100212100100_shape_set_20_T.jpeg,0,7.772
687058,20,Male,2,12,1,43,1,paired,43_flower_double__0000010000000200020001000100000012200000_shape_set_4_T.jpeg,0,1.588
687058,20,Male,2,13,1,75,6,paired,75_flower_double__0200110201001112100101000200101012201111_shape_set_20_T.jpeg,1,8.543000000000001
687058,20,Male,2,14,1,67,5,minimal,67_grid_double__12220000102110020000010012010100_shape_set_4_T.jpeg,0,5.307
687058,20,Male,2,15,1,23,4,minimal,23_grid_single__1110120212111121_shape_set_17_T.jpeg,1,9.409
687058,20,Male,2,16,1,1,2,minimal,1_single__101010001010_shape_set_4_T.jpeg,1,1.573
687058,20,Male,2,17,1,2,1,paired,2_double__0000020001001020_shape_set_17_T.jpeg,1,2.766
687058,20,Male,2,18,1,73,4,paired,73_grid_double__01000200111202000000122201001012_shape_set_4_T.jpeg,1,5.746
687058,20,Male,2,19,1,42,4,minimal,42_double__1111101211021120_shape_set_20_T.jpeg,0,16.052
687058,20,Male,2,20,1,3,1,paired,3_clockwork3_single__000011010200_shape_set_20_T.jpeg,1,2.142
687058,20,Male,2,21,1,66,8,minimal,66_grid_triple__110211101201112000000200020012110100000001001012_shape_set_20_T.jpeg,0,4.34
687058,20,Male,2,22,1,65,2,paired,65_double__0200020012221222_shape_set_17_T.jpeg,0,4.288
687058,20,Male,2,23,1,64,6,minimal,64_grid_triple__000001001110020000000000112002001212010001001122_shape_set_4_T.jpeg,1,3.786
687058,20,Male,2,24,1,49,2,paired,49_clockwork3_single__010011221121_shape_set_4_T.jpeg,1,4.524
687058,20,Male,2,25,1,48,1,minimal,48_flower_double__0100121102000000020002000100010000000000_shape_set_20_T.jpeg,1,1.496
687058,20,Male,2,26,1,12,4,minimal,12_double__1212102211111221_shape_set_20_T.jpeg,0,20.625
687058,20,Male,2,27,1,13,3,minimal,13_flower_single__01001221122102001122_shape_set_4_T.jpeg,0,3.127
687058,20,Male,2,28,1,55,6,paired,55_grid_double__12021120101202001210000012110100_shape_set_4_T.jpeg,0,1.283
687058,20,Male,2,29,1,17,4,minimal,17_double__1222110111201012_shape_set_17_T.jpeg,0,10.05
687058,20,Male,2,30,1,20,2,minimal,20_double__1221010010220000_shape_set_17_T.jpeg,1,0.665
687058,20,Male,2,31,1,21,7,paired,21_triple__100111201112121010221202_shape_set_20_T.jpeg,0,0.655
687058,20,Male,2,32,1,22,2,minimal,22_single__112212211220_shape_set_4_T.jpeg,0,0.868
687058,20,Male,2,33,1,62,3,paired,62_grid_triple__010000000000020000000100000012210000020000000100_shape_set_17_T.jpeg,0,4.067
687058,20,Male,2,34,1,63,5,minimal,63_triple__120211111021020000001010_shape_set_20_T.jpeg,0,1.735
687058,20,Male,2,35,1,24,7,paired,24_grid_triple__010011220200122002000200100110021212000001000200_shape_set_20_T.jpeg,0,6.635
687058,20,Male,2,36,1,25,2,paired,25_clockwork3_single__112110110000_shape_set_4_T.jpeg,1,5.376
687058,20,Male,2,37,1,26,5,paired,26_grid_triple__000000000000112102000100020000000200000011221121_shape_set_17_T.jpeg,0,4.615
687058,20,Male,2,38,1,28,2,minimal,28_flower_double__0000122201000100000011220000020001000100_shape_set_4_T.jpeg,1,1.356
687058,20,Male,2,39,1,29,7,minimal,29_grid_double__10121011111012010000102012020000_shape_set_17_T.jpeg,1,13.477
687058,20,Male,2,40,1,74,5,paired,74_triple__100101001211112010120200_shape_set_17_T.jpeg,1,8.978
687058,20,Male,2,41,1,45,7,minimal,45_grid_triple__101211020100111110200000010000000100121002000200_shape_set_20_T.jpeg,1,1.106
687058,20,Male,2,42,1,46,6,paired,46_triple__101112200200110212211001_shape_set_4_T.jpeg,0,1.405
687058,20,Male,2,43,1,47,2,paired,47_flower_double__0100101200000200101102000000010001000100_shape_set_17_T.jpeg,0,4.853
687058,20,Male,2,44,1,33,1,paired,33_single__000010221212_shape_set_20_T.jpeg,1,5.267
687058,20,Male,2,45,1,34,3,minimal,34_flower_single__11210200122211220100_shape_set_4_T.jpeg,1,7.414000000000001
687058,20,Male,2,46,1,35,8,paired,35_grid_triple__122112021120000000001010010001001022110101000100_shape_set_17_T.jpeg,1,5.035
687058,20,Male,2,47,1,36,6,paired,36_triple__111212011010112010220100_shape_set_20_T.jpeg,1,14.927
687058,20,Male,2,48,1,37,3,minimal,37_flower_double__0200010001000200020002001211110111120100_shape_set_4_T.jpeg,1,16.588
687058,20,Male,2,49,1,38,1,minimal,38_clockwork3_single__010011110000_shape_set_17_T.jpeg,1,2.759
687058,20,Male,2,50,1,39,2,minimal,39_flower_double__0100010001000000122001000000010012120200_shape_set_20_T.jpeg,1,3.503
687058,20,Male,2,51,1,40,4,paired,40_grid_double__02000000010011100200020010211111_shape_set_4_T.jpeg,0,6.401
687058,20,Male,2,52,1,19,2,minimal,19_single__101112201212_shape_set_4_T.jpeg,0,4.053
687058,20,Male,2,53,1,61,2,minimal,61_flower_double__1211010002000100020001001121010001000200_shape_set_4_T.jpeg,0,2.7960000000000003
687058,20,Male,2,54,1,8,1,minimal,8_grid_single__0100000000001111_shape_set_17_T.jpeg,1,2.9250000000000003
687058,20,Male,2,55,1,9,1,paired,9_flower_single__10020000020001000200_shape_set_20_T.jpeg,0,5.006
687058,20,Male,2,56,1,10,3,minimal,10_triple__000012221120010002000000_shape_set_4_T.jpeg,1,8.797
687058,20,Male,2,57,1,11,3,paired,11_grid_single__1220111101001121_shape_set_17_T.jpeg,1,11.081
687058,20,Male,2,58,1,27,3,minimal,27_double__1020020012121122_shape_set_20_T.jpeg,0,20.011
687058,20,Male,2,59,1,14,5,paired,14_triple__112110100000000010021222_shape_set_17_T.jpeg,1,4.25
687058,20,Male,2,60,1,16,4,minimal,16_grid_single__1012121112021101_shape_set_4_T.jpeg,1,7.863
687058,20,Male,2,61,1,18,3,paired,18_flower_double__1022102200000100010000000200122101000000_shape_set_20_T.jpeg,1,1.541
687058,20,Male,2,62,1,41,1,minimal,41_single__112012110000_shape_set_17_T.jpeg,1,2.231
687058,20,Male,2,63,1,59,5,minimal,59_flower_single__11211110102010011122_shape_set_17_T.jpeg,0,2.537
687058,20,Male,2,64,1,32,1,minimal,32_flower_single__11110100010002000000_shape_set_17_T.jpeg,0,1.763
687058,20,Male,2,65,1,4,1,minimal,4_flower_single__02001220000001000200_shape_set_4_T.jpeg,1,2.583
687058,20,Male,2,66,1,15,3,paired,15_double__0000110211121011_shape_set_20_T.jpeg,0,3.527
687058,20,Male,2,67,1,6,2,paired,6_single__121210101222_shape_set_20_T.jpeg,1,6.934
687058,20,Male,2,68,1,57,1,paired,57_single__020011011121_shape_set_20_T.jpeg,1,4.994
687058,20,Male,2,69,1,5,1,paired,5_grid_single__0000000010200000_shape_set_17_T.jpeg,1,1.623
687058,20,Male,2,70,1,60,4,minimal,60_triple__111212220100010000001122_shape_set_20_T.jpeg,0,1.314
687058,20,Male,2,71,1,7,1,paired,7_flower_single__01000200020012200200_shape_set_4_T.jpeg,1,3.5580000000000003
687058,20,Male,2,72,1,31,3,minimal,31_flower_double__0200010011120100020012110000000002001102_shape_set_4_T.jpeg,0,1.88
687058,20,Male,2,73,1,30,7,paired,30_grid_double__10211001101112200100121012020000_shape_set_20_T.jpeg,1,6.0600000000000005
687058,20,Male,2,74,1,56,3,minimal,56_grid_single__1001101200001122_shape_set_17_T.jpeg,1,1.895
687058,20,Male,2,75,1,58,3,minimal,58_clockwork3_single__102211221112_shape_set_4_T.jpeg,1,4.112
687095,23,Male,1,1,1,28,2,minimal,28_flower_double__0000122201000100000011220000020001000100_shape_set_4_T.jpeg,1,8.874
687095,23,Male,1,2,1,30,7,paired,30_grid_double__10211001101112200100121012020000_shape_set_20_T.jpeg,1,17.057
687095,23,Male,1,3,1,29,7,minimal,29_grid_double__10121011111012010000102012020000_shape_set_17_T.jpeg,0,20.684
687095,23,Male,1,4,1,14,5,minimal,14_triple__112110100000000010021222_shape_set_17_T.jpeg,0,11.026
687095,23,Male,1,5,1,19,2,minimal,19_single__101112201212_shape_set_4_T.jpeg,0,10.774
687095,23,Male,1,6,1,21,7,paired,21_triple__100111201112121010221202_shape_set_20_T.jpeg,1,16.975
687095,23,Male,1,7,1,27,3,paired,27_double__1020020012121122_shape_set_20_T.jpeg,1,9.582
687095,23,Male,1,8,1,8,1,minimal,8_grid_single__0100000000001111_shape_set_17_T.jpeg,1,8.611
687095,23,Male,1,9,1,1,2,paired,1_single__101010001010_shape_set_4_T.jpeg,1,1.702
687095,23,Male,1,10,1,2,1,paired,2_double__0000020001001020_shape_set_17_T.jpeg,1,3.571
687095,23,Male,1,11,1,18,3,paired,18_flower_double__1022102200000100010000000200122101000000_shape_set_20_T.jpeg,1,18.712
687095,23,Male,1,12,1,31,3,paired,31_flower_double__0200010011120100020012110000000002001102_shape_set_4_T.jpeg,1,14.489
687095,23,Male,1,13,1,26,5,minimal,26_grid_triple__000000000000112102000100020000000200000011221121_shape_set_17_T.jpeg,1,22.43
687095,23,Male,1,14,1,35,8,minimal,35_grid_triple__122112021120000000001010010001001022110101000100_shape_set_17_T.jpeg,0,13.708
687095,23,Male,1,15,1,9,1,minimal,9_flower_single__10020000020001000200_shape_set_20_T.jpeg,1,6.847
687095,23,Male,1,16,1,10,3,paired,10_triple__000012221120010002000000_shape_set_4_T.jpeg,0,19.474
687095,23,Male,1,17,1,11,3,paired,11_grid_single__1220111101001121_shape_set_17_T.jpeg,1,12.336
687095,23,Male,1,18,1,36,6,minimal,36_triple__111212011010112010220100_shape_set_20_T.jpeg,0,14.311
687095,23,Male,1,19,1,37,3,minimal,37_flower_double__0200010001000200020002001211110111120100_shape_set_4_T.jpeg,0,10.461
687095,23,Male,1,20,1,12,4,paired,12_double__1212102211111221_shape_set_20_T.jpeg,0,11.527
687095,23,Male,1,21,1,13,3,paired,13_flower_single__01001221122102001122_shape_set_4_T.jpeg,0,15.74
687095,23,Male,1,22,1,15,3,minimal,15_double__0000110211121011_shape_set_20_T.jpeg,0,9.574
687095,23,Male,1,23,1,16,4,paired,16_grid_single__1012121112021101_shape_set_4_T.jpeg,1,15.274
687095,23,Male,1,24,1,20,2,paired,20_double__1221010010220000_shape_set_17_T.jpeg,1,8.794
687095,23,Male,1,25,1,6,2,paired,6_single__121210101222_shape_set_20_T.jpeg,0,10.864
687095,23,Male,1,26,1,7,1,minimal,7_flower_single__01000200020012200200_shape_set_4_T.jpeg,1,5.722
687095,23,Male,1,27,1,34,3,minimal,34_flower_single__11210200122211220100_shape_set_4_T.jpeg,0,30.007
687095,23,Male,1,28,1,3,1,minimal,3_clockwork3_single__000011010200_shape_set_20_T.jpeg,1,1.739
687095,23,Male,1,29,1,17,4,paired,17_double__1222110111201012_shape_set_17_T.jpeg,1,12.722
687095,23,Male,1,30,1,24,7,paired,24_grid_triple__010011220200122002000200100110021212000001000200_shape_set_20_T.jpeg,0,6.8180000000000005
687095,23,Male,1,31,1,25,2,minimal,25_clockwork3_single__112110110000_shape_set_4_T.jpeg,1,14.695
687095,23,Male,1,32,1,23,4,paired,23_grid_single__1110120212111121_shape_set_17_T.jpeg,1,22.327
687095,23,Male,1,33,1,5,1,paired,5_grid_single__0000000010200000_shape_set_17_T.jpeg,1,3.435
687095,23,Male,1,34,1,4,1,paired,4_flower_single__02001220000001000200_shape_set_4_T.jpeg,1,3.405
687095,23,Male,1,35,1,22,2,minimal,22_single__112212211220_shape_set_4_T.jpeg,1,7.994
687095,23,Male,1,36,1,33,1,paired,33_single__000010221212_shape_set_20_T.jpeg,1,7.394
687095,23,Male,1,37,1,32,1,paired,32_flower_single__11110100010002000000_shape_set_17_T.jpeg,0,7.705
687431,21,Female,1,1,1,10,3,paired,10_triple__000012221120010002000000_shape_set_4_T.jpeg,1,6.282
687431,21,Female,1,2,1,9,1,paired,9_flower_single__10020000020001000200_shape_set_20_T.jpeg,1,5.837
687431,21,Female,1,3,1,11,3,paired,11_grid_single__1220111101001121_shape_set_17_T.jpeg,1,3.964
687431,21,Female,1,4,1,12,4,minimal,12_double__1212102211111221_shape_set_20_T.jpeg,0,7.171
687431,21,Female,1,5,1,13,3,paired,13_flower_single__01001221122102001122_shape_set_4_T.jpeg,1,7.056
687431,21,Female,1,6,1,37,3,paired,37_flower_double__0200010001000200020002001211110111120100_shape_set_4_T.jpeg,1,8.594
687431,21,Female,1,7,1,8,1,minimal,8_grid_single__0100000000001111_shape_set_17_T.jpeg,1,2.448
687431,21,Female,1,8,1,14,5,paired,14_triple__112110100000000010021222_shape_set_17_T.jpeg,0,7.589
687431,21,Female,1,9,1,7,1,paired,7_flower_single__01000200020012200200_shape_set_4_T.jpeg,1,2.269
687431,21,Female,1,10,1,28,2,paired,28_flower_double__0000122201000100000011220000020001000100_shape_set_4_T.jpeg,1,8.869
687431,21,Female,1,11,1,33,1,minimal,33_single__000010221212_shape_set_20_T.jpeg,1,8.554
687431,21,Female,1,12,1,42,4,minimal,42_double__1111101211021120_shape_set_20_T.jpeg,0,7.906000000000001
687431,21,Female,1,13,1,27,3,paired,27_double__1020020012121122_shape_set_20_T.jpeg,1,5.365
687431,21,Female,1,14,1,48,1,paired,48_flower_double__0100121102000000020002000100010000000000_shape_set_20_T.jpeg,0,3.331
687431,21,Female,1,15,1,30,7,paired,30_grid_double__10211001101112200100121012020000_shape_set_20_T.jpeg,1,9.302
687431,21,Female,1,16,1,6,2,minimal,6_single__121210101222_shape_set_20_T.jpeg,0,3.655
687431,21,Female,1,17,1,32,1,paired,32_flower_single__11110100010002000000_shape_set_17_T.jpeg,1,4.67
687431,21,Female,1,18,1,34,3,minimal,34_flower_single__11210200122211220100_shape_set_4_T.jpeg,1,11.193
687431,21,Female,1,19,1,35,8,paired,35_grid_triple__122112021120000000001010010001001022110101000100_shape_set_17_T.jpeg,1,7.1080000000000005
687431,21,Female,1,20,1,36,6,minimal,36_triple__111212011010112010220100_shape_set_20_T.jpeg,1,9.765
687431,21,Female,1,21,1,45,7,paired,45_grid_triple__101211020100111110200000010000000100121002000200_shape_set_20_T.jpeg,1,5.831
687431,21,Female,1,22,1,38,1,minimal,38_clockwork3_single__010011110000_shape_set_17_T.jpeg,1,2.5420000000000003
687431,21,Female,1,23,1,26,5,paired,26_grid_triple__000000000000112102000100020000000200000011221121_shape_set_17_T.jpeg,0,8.317
687431,21,Female,1,24,1,31,3,paired,31_flower_double__0200010011120100020012110000000002001102_shape_set_4_T.jpeg,1,8.511000000000001
687431,21,Female,1,25,1,4,1,minimal,4_flower_single__02001220000001000200_shape_set_4_T.jpeg,1,2.7960000000000003
687431,21,Female,1,26,1,41,1,minimal,41_single__112012110000_shape_set_17_T.jpeg,1,2.785
687431,21,Female,1,27,1,43,1,paired,43_flower_double__0000010000000200020001000100000012200000_shape_set_4_T.jpeg,1,5.992
687431,21,Female,1,28,1,44,6,paired,44_triple__120211201211000011101212_shape_set_17_T.jpeg,0,9.336
687431,21,Female,1,29,1,62,3,minimal,62_grid_triple__010000000000020000000100000012210000020000000100_shape_set_17_T.jpeg,1,10.105
687431,21,Female,1,30,1,46,6,minimal,46_triple__101112200200110212211001_shape_set_4_T.jpeg,1,8.85
687431,21,Female,1,31,1,15,3,paired,15_double__0000110211121011_shape_set_20_T.jpeg,1,5.754
687431,21,Female,1,32,1,29,7,minimal,29_grid_double__10121011111012010000102012020000_shape_set_17_T.jpeg,0,8.718
687431,21,Female,1,33,1,5,1,minimal,5_grid_single__0000000010200000_shape_set_17_T.jpeg,1,1.61
687431,21,Female,1,34,1,19,2,paired,19_single__101112201212_shape_set_4_T.jpeg,0,4.341
687431,21,Female,1,35,1,20,2,paired,20_double__1221010010220000_shape_set_17_T.jpeg,0,5.501
687431,21,Female,1,36,1,39,2,paired,39_flower_double__0100010001000000122001000000010012120200_shape_set_20_T.jpeg,1,8.519
687431,21,Female,1,37,1,21,7,paired,21_triple__100111201112121010221202_shape_set_20_T.jpeg,0,4.479
687431,21,Female,1,38,1,22,2,minimal,22_single__112212211220_shape_set_4_T.jpeg,1,7.77
687431,21,Female,1,39,1,61,2,paired,61_flower_double__1211010002000100020001001121010001000200_shape_set_4_T.jpeg,1,7.195
687431,21,Female,1,40,1,23,4,paired,23_grid_single__1110120212111121_shape_set_17_T.jpeg,1,7.96
687431,21,Female,1,41,1,49,2,minimal,49_clockwork3_single__010011221121_shape_set_4_T.jpeg,1,5.94
687431,21,Female,1,42,1,51,2,minimal,51_double__0100102201001012_shape_set_20_T.jpeg,1,6.648000000000001
687431,21,Female,1,43,1,16,4,paired,16_grid_single__1012121112021101_shape_set_4_T.jpeg,1,8.473
687431,21,Female,1,44,1,3,1,minimal,3_clockwork3_single__000011010200_shape_set_20_T.jpeg,1,2.02
687431,21,Female,1,45,1,24,7,minimal,24_grid_triple__010011220200122002000200100110021212000001000200_shape_set_20_T.jpeg,0,8.096
687431,21,Female,1,46,1,25,2,minimal,25_clockwork3_single__112110110000_shape_set_4_T.jpeg,0,9.568
687431,21,Female,1,47,1,40,4,paired,40_grid_double__02000000010011100200020010211111_shape_set_4_T.jpeg,1,11.624
687431,21,Female,1,48,1,18,3,minimal,18_flower_double__1022102200000100010000000200122101000000_shape_set_20_T.jpeg,1,9.234
687431,21,Female,1,49,1,57,1,paired,57_single__020011011121_shape_set_20_T.jpeg,0,2.457
687431,21,Female,1,50,1,58,3,minimal,58_clockwork3_single__102211221112_shape_set_4_T.jpeg,1,11.23
687431,21,Female,1,51,1,59,5,minimal,59_flower_single__11211110102010011122_shape_set_17_T.jpeg,0,8.953
687431,21,Female,1,52,1,60,4,paired,60_triple__111212220100010000001122_shape_set_20_T.jpeg,1,7.999
687431,21,Female,1,53,1,2,1,paired,2_double__0000020001001020_shape_set_17_T.jpeg,1,2.514
687431,21,Female,1,54,1,1,2,minimal,1_single__101010001010_shape_set_4_T.jpeg,1,1.394
687431,21,Female,1,55,1,17,4,paired,17_double__1222110111201012_shape_set_17_T.jpeg,1,7.147
687431,21,Female,1,56,1,50,2,minimal,50_clockwork3_single__122200001022_shape_set_17_T.jpeg,1,3.885
687431,21,Female,1,57,1,56,3,minimal,56_grid_single__1001101200001122_shape_set_17_T.jpeg,0,6.504
687431,21,Female,1,58,1,55,6,minimal,55_grid_double__12021120101202001210000012110100_shape_set_4_T.jpeg,0,9.237
687431,21,Female,1,59,1,52,5,minimal,52_flower_single__12121202111010011122_shape_set_4_T.jpeg,0,5.242
687431,21,Female,1,60,1,54,6,minimal,54_grid_double__01001121120112110100100212100100_shape_set_20_T.jpeg,0,8.134
687431,21,Female,1,61,1,53,4,paired,53_flower_double__1001010002001212112201000200020010200100_shape_set_17_T.jpeg,0,10.327
687431,21,Female,1,62,1,47,2,minimal,47_flower_double__0100101200000200101102000000010001000100_shape_set_17_T.jpeg,1,11.342
687434,22,Female,2,1,1,23,4,minimal,23_grid_single__1110120212111121_shape_set_17_T.jpeg,1,6.966
687434,22,Female,2,2,1,19,2,paired,19_single__101112201212_shape_set_4_T.jpeg,1,4.647
687434,22,Female,2,3,1,46,6,paired,46_triple__101112200200110212211001_shape_set_4_T.jpeg,1,8.604000000000001
687434,22,Female,2,4,1,47,2,minimal,47_flower_double__0100101200000200101102000000010001000100_shape_set_17_T.jpeg,0,4.216
687434,22,Female,2,5,1,22,2,paired,22_single__112212211220_shape_set_4_T.jpeg,1,3.208
687434,22,Female,2,6,1,21,7,paired,21_triple__100111201112121010221202_shape_set_20_T.jpeg,0,5.985
687434,22,Female,2,7,1,17,4,paired,17_double__1222110111201012_shape_set_17_T.jpeg,0,12.582
687434,22,Female,2,8,1,18,3,paired,18_flower_double__1022102200000100010000000200122101000000_shape_set_20_T.jpeg,1,7.578
687434,22,Female,2,9,1,43,1,paired,43_flower_double__0000010000000200020001000100000012200000_shape_set_4_T.jpeg,0,2.221
687434,22,Female,2,10,1,27,3,paired,27_double__1020020012121122_shape_set_20_T.jpeg,1,9.503
687434,22,Female,2,11,1,26,5,minimal,26_grid_triple__000000000000112102000100020000000200000011221121_shape_set_17_T.jpeg,0,6.135
687434,22,Female,2,12,1,20,2,paired,20_double__1221010010220000_shape_set_17_T.jpeg,1,9.546
687434,22,Female,2,13,1,16,4,minimal,16_grid_single__1012121112021101_shape_set_4_T.jpeg,0,5.141
687434,22,Female,2,14,1,31,3,minimal,31_flower_double__0200010011120100020012110000000002001102_shape_set_4_T.jpeg,0,12.081
687434,22,Female,2,15,1,32,1,minimal,32_flower_single__11110100010002000000_shape_set_17_T.jpeg,0,4.274
687434,22,Female,2,16,1,15,3,minimal,15_double__0000110211121011_shape_set_20_T.jpeg,1,10.993
687434,22,Female,2,17,1,24,7,paired,24_grid_triple__010011220200122002000200100110021212000001000200_shape_set_20_T.jpeg,0,12.3
687434,22,Female,2,18,1,25,2,minimal,25_clockwork3_single__112110110000_shape_set_4_T.jpeg,1,5.268
687434,22,Female,2,19,1,33,1,minimal,33_single__000010221212_shape_set_20_T.jpeg,1,3.965
687434,22,Female,2,20,1,42,4,minimal,42_double__1111101211021120_shape_set_20_T.jpeg,0,5.05
687434,22,Female,2,21,1,44,6,paired,44_triple__120211201211000011101212_shape_set_17_T.jpeg,0,1.932
687434,22,Female,2,22,1,45,7,paired,45_grid_triple__101211020100111110200000010000000100121002000200_shape_set_20_T.jpeg,1,9.366
687434,22,Female,2,23,1,48,1,paired,48_flower_double__0100121102000000020002000100010000000000_shape_set_20_T.jpeg,1,5.3420000000000005
687434,22,Female,2,24,1,49,2,paired,49_clockwork3_single__010011221121_shape_set_4_T.jpeg,1,5.437
687434,22,Female,2,25,1,57,1,paired,57_single__020011011121_shape_set_20_T.jpeg,1,3.272
687434,22,Female,2,26,1,13,3,minimal,13_flower_single__01001221122102001122_shape_set_4_T.jpeg,1,12.602
687434,22,Female,2,27,1,14,5,minimal,14_triple__112110100000000010021222_shape_set_17_T.jpeg,0,9.813
687434,22,Female,2,28,1,34,3,paired,34_flower_single__11210200122211220100_shape_set_4_T.jpeg,0,8.716
687434,22,Female,2,29,1,54,6,minimal,54_grid_double__01001121120112110100100212100100_shape_set_20_T.jpeg,0,8.292
687434,22,Female,2,30,1,53,4,minimal,53_flower_double__1001010002001212112201000200020010200100_shape_set_17_T.jpeg,0,2.105
687434,22,Female,2,31,1,56,3,minimal,56_grid_single__1001101200001122_shape_set_17_T.jpeg,0,6.703
687434,22,Female,2,32,1,50,2,paired,50_clockwork3_single__122200001022_shape_set_17_T.jpeg,1,7.194
687434,22,Female,2,33,1,55,6,minimal,55_grid_double__12021120101202001210000012110100_shape_set_4_T.jpeg,1,8.886000000000001
687434,22,Female,2,34,1,28,2,paired,28_flower_double__0000122201000100000011220000020001000100_shape_set_4_T.jpeg,1,10.751
687434,22,Female,2,35,1,29,7,paired,29_grid_double__10121011111012010000102012020000_shape_set_17_T.jpeg,1,7.133
687434,22,Female,2,36,1,30,7,minimal,30_grid_double__10211001101112200100121012020000_shape_set_20_T.jpeg,1,8.421
687434,22,Female,2,37,1,2,1,minimal,2_double__0000020001001020_shape_set_17_T.jpeg,1,2.423
687434,22,Female,2,38,1,3,1,minimal,3_clockwork3_single__000011010200_shape_set_20_T.jpeg,1,1.493
687434,22,Female,2,39,1,35,8,minimal,35_grid_triple__122112021120000000001010010001001022110101000100_shape_set_17_T.jpeg,1,4.908
687434,22,Female,2,40,1,36,6,paired,36_triple__111212011010112010220100_shape_set_20_T.jpeg,0,8.950000000000001
687434,22,Female,2,41,1,39,2,paired,39_flower_double__0100010001000000122001000000010012120200_shape_set_20_T.jpeg,1,2.393
687434,22,Female,2,42,1,41,1,paired,41_single__112012110000_shape_set_17_T.jpeg,1,2.395
687434,22,Female,2,43,1,8,1,paired,8_grid_single__0100000000001111_shape_set_17_T.jpeg,1,3.957
687434,22,Female,2,44,1,51,2,paired,51_double__0100102201001012_shape_set_20_T.jpeg,0,1.567
687434,22,Female,2,45,1,52,5,paired,52_flower_single__12121202111010011122_shape_set_4_T.jpeg,1,1.727
687434,22,Female,2,46,1,12,4,paired,12_double__1212102211111221_shape_set_20_T.jpeg,1,8.006
687434,22,Female,2,47,1,37,3,minimal,37_flower_double__0200010001000200020002001211110111120100_shape_set_4_T.jpeg,0,3.212
687434,22,Female,2,48,1,64,6,minimal,64_grid_triple__000001001110020000000000112002001212010001001122_shape_set_4_T.jpeg,1,4.498
687434,22,Female,2,49,1,65,2,paired,65_double__0200020012221222_shape_set_17_T.jpeg,1,3.812
687434,22,Female,2,50,1,1,2,paired,1_single__101010001010_shape_set_4_T.jpeg,1,2.524
687434,22,Female,2,51,1,4,1,minimal,4_flower_single__02001220000001000200_shape_set_4_T.jpeg,1,4.064
687434,22,Female,2,52,1,5,1,minimal,5_grid_single__0000000010200000_shape_set_17_T.jpeg,1,1.836
687434,22,Female,2,53,1,6,2,minimal,6_single__121210101222_shape_set_20_T.jpeg,1,7.905
687434,22,Female,2,54,1,7,1,minimal,7_flower_single__01000200020012200200_shape_set_4_T.jpeg,1,2.93
687434,22,Female,2,55,1,38,1,minimal,38_clockwork3_single__010011110000_shape_set_17_T.jpeg,1,5.17
687434,22,Female,2,56,1,40,4,paired,40_grid_double__02000000010011100200020010211111_shape_set_4_T.jpeg,1,5.063
687434,22,Female,2,57,1,63,5,minimal,63_triple__120211111021020000001010_shape_set_20_T.jpeg,0,1.462
687434,22,Female,2,58,1,66,8,minimal,66_grid_triple__110211101201112000000200020012110100000001001012_shape_set_20_T.jpeg,0,7.034
687434,22,Female,2,59,1,58,3,minimal,58_clockwork3_single__102211221112_shape_set_4_T.jpeg,0,8.515
687434,22,Female,2,60,1,9,1,paired,9_flower_single__10020000020001000200_shape_set_20_T.jpeg,1,5.597
687434,22,Female,2,61,1,60,4,paired,60_triple__111212220100010000001122_shape_set_20_T.jpeg,1,0.924
687434,22,Female,2,62,1,11,3,minimal,11_grid_single__1220111101001121_shape_set_17_T.jpeg,1,11.661
687434,22,Female,2,63,1,62,3,minimal,62_grid_triple__010000000000020000000100000012210000020000000100_shape_set_17_T.jpeg,1,1.856
687434,22,Female,2,64,1,68,1,minimal,68_single__100100001000_shape_set_17_T.jpeg,1,1.049
687434,22,Female,2,65,1,70,2,minimal,70_grid_single__0000010012111110_shape_set_4_T.jpeg,1,4.149
687434,22,Female,2,66,1,67,5,paired,67_grid_double__12220000102110020000010012010100_shape_set_4_T.jpeg,1,3.87
687434,22,Female,2,67,1,59,5,paired,59_flower_single__11211110102010011122_shape_set_17_T.jpeg,0,1.58
687434,22,Female,2,68,1,69,3,minimal,69_clockwork3_single__122212121022_shape_set_20_T.jpeg,0,4.407
687434,22,Female,2,69,1,61,2,minimal,61_flower_double__1211010002000100020001001121010001000200_shape_set_4_T.jpeg,0,1.502
687434,22,Female,2,70,1,10,3,paired,10_triple__000012221120010002000000_shape_set_4_T.jpeg,1,9.449
687472,31,Male,1,1,3,4,1,minimal,4_flower_single__02001220000001000200_shape_set_17_T.jpeg,1,6.455
687472,31,Male,1,2,3,5,1,minimal,5_grid_single__0000000010200000_shape_set_20_T.jpeg,1,3.565
687472,31,Male,1,3,3,6,2,minimal,6_single__121210101222_shape_set_4_T.jpeg,1,14.388
687472,31,Male,1,4,3,2,1,minimal,2_double__0000020001001020_shape_set_20_T.jpeg,1,8.61
687472,31,Male,1,5,3,3,1,paired,3_clockwork3_single__000011010200_shape_set_4_T.jpeg,1,3.71
687472,31,Male,1,6,3,7,1,paired,7_flower_single__01000200020012200200_shape_set_17_T.jpeg,1,8.663
687472,31,Male,1,7,3,15,3,paired,15_double__0000110211121011_shape_set_4_T.jpeg,0,27.525
687472,31,Male,1,8,3,1,2,paired,1_single__101010001010_shape_set_17_T.jpeg,1,5.771
687472,31,Male,1,9,3,24,7,paired,24_grid_triple__010011220200122002000200100110021212000001000200_shape_set_4_T.jpeg,1,26.56
687472,31,Male,1,10,3,14,5,minimal,14_triple__112110100000000010021222_shape_set_20_T.jpeg,1,29.341
687472,31,Male,1,11,3,18,3,minimal,18_flower_double__1022102200000100010000000200122101000000_shape_set_4_T.jpeg,1,22.575
687472,31,Male,1,12,3,23,4,minimal,23_grid_single__1110120212111121_shape_set_20_T.jpeg,1,11.422
687472,31,Male,1,13,3,16,4,paired,16_grid_single__1012121112021101_shape_set_17_T.jpeg,1,21.846
687472,31,Male,1,14,3,8,1,paired,8_grid_single__0100000000001111_shape_set_20_T.jpeg,1,10.041
687472,31,Male,1,15,3,12,4,paired,12_double__1212102211111221_shape_set_4_T.jpeg,1,29.287
687472,31,Male,1,16,3,17,4,minimal,17_double__1222110111201012_shape_set_20_T.jpeg,0,30.006
687472,31,Male,1,17,3,22,2,minimal,22_single__112212211220_shape_set_17_T.jpeg,1,9.327
687472,31,Male,1,18,3,21,7,minimal,21_triple__100111201112121010221202_shape_set_4_T.jpeg,0,29.033
687472,31,Male,1,19,3,27,3,paired,27_double__1020020012121122_shape_set_4_T.jpeg,1,24.518
687472,31,Male,1,20,3,19,2,minimal,19_single__101112201212_shape_set_17_T.jpeg,1,10.273
687472,31,Male,1,21,3,20,2,minimal,20_double__1221010010220000_shape_set_20_T.jpeg,1,22.778
687472,31,Male,1,22,3,13,3,paired,13_flower_single__01001221122102001122_shape_set_17_T.jpeg,0,14.336
687472,31,Male,1,23,3,26,5,minimal,26_grid_triple__000000000000112102000100020000000200000011221121_shape_set_20_T.jpeg,1,26.808
687472,31,Male,1,24,3,11,3,paired,11_grid_single__1220111101001121_shape_set_20_T.jpeg,1,13.869
687472,31,Male,1,25,3,10,3,paired,10_triple__000012221120010002000000_shape_set_17_T.jpeg,1,26.848
687472,31,Male,1,26,3,25,2,minimal,25_clockwork3_single__112110110000_shape_set_17_T.jpeg,1,9.337
687472,31,Male,1,27,3,9,1,paired,9_flower_single__10020000020001000200_shape_set_4_T.jpeg,1,3.995
687476,30,Female,1,1,3,17,4,minimal,17_double__1222110111201012_shape_set_20_T.jpeg,0,24.003
687476,30,Female,1,2,3,19,2,minimal,19_single__101112201212_shape_set_17_T.jpeg,0,10.093
687476,30,Female,1,3,3,4,1,paired,4_flower_single__02001220000001000200_shape_set_17_T.jpeg,1,3.319
687476,30,Female,1,4,3,8,1,minimal,8_grid_single__0100000000001111_shape_set_20_T.jpeg,1,13.979
687476,30,Female,1,5,3,29,7,minimal,29_grid_double__10121011111012010000102012020000_shape_set_20_T.jpeg,0,26.866
687476,30,Female,1,6,3,7,1,paired,7_flower_single__01000200020012200200_shape_set_17_T.jpeg,0,12.718
687476,30,Female,1,7,3,3,1,minimal,3_clockwork3_single__000011010200_shape_set_4_T.jpeg,1,2.715
687476,30,Female,1,8,3,18,3,minimal,18_flower_double__1022102200000100010000000200122101000000_shape_set_4_T.jpeg,0,22.347
687476,30,Female,1,9,3,20,2,paired,20_double__1221010010220000_shape_set_20_T.jpeg,0,25.678
687476,30,Female,1,10,3,9,1,minimal,9_flower_single__10020000020001000200_shape_set_4_T.jpeg,1,6.48
687476,30,Female,1,11,3,10,3,paired,10_triple__000012221120010002000000_shape_set_17_T.jpeg,0,7.722
687476,30,Female,1,12,3,26,5,minimal,26_grid_triple__000000000000112102000100020000000200000011221121_shape_set_20_T.jpeg,0,19.738
687476,30,Female,1,13,3,28,2,paired,28_flower_double__0000122201000100000011220000020001000100_shape_set_17_T.jpeg,0,20.002
687476,30,Female,1,14,3,24,7,paired,24_grid_triple__010011220200122002000200100110021212000001000200_shape_set_4_T.jpeg,0,28.95
687476,30,Female,1,15,3,16,4,paired,16_grid_single__1012121112021101_shape_set_17_T.jpeg,1,9.389
687476,30,Female,1,16,3,27,3,minimal,27_double__1020020012121122_shape_set_4_T.jpeg,0,22.31
687476,30,Female,1,17,3,6,2,paired,6_single__121210101222_shape_set_4_T.jpeg,1,10.16
687476,30,Female,1,18,3,2,1,paired,2_double__0000020001001020_shape_set_20_T.jpeg,1,6.449
687476,30,Female,1,19,3,5,1,paired,5_grid_single__0000000010200000_shape_set_20_T.jpeg,1,3.361
687476,30,Female,1,20,3,11,3,minimal,11_grid_single__1220111101001121_shape_set_20_T.jpeg,0,27.61
687476,30,Female,1,21,3,25,2,paired,25_clockwork3_single__112110110000_shape_set_17_T.jpeg,1,12.189
687476,30,Female,1,22,3,13,3,minimal,13_flower_single__01001221122102001122_shape_set_17_T.jpeg,1,22.76
687476,30,Female,1,23,3,15,3,paired,15_double__0000110211121011_shape_set_4_T.jpeg,1,19.463
687476,30,Female,1,24,3,12,4,paired,12_double__1212102211111221_shape_set_4_T.jpeg,1,10.737
687476,30,Female,1,25,3,23,4,minimal,23_grid_single__1110120212111121_shape_set_20_T.jpeg,1,19.063
687476,30,Female,1,26,3,14,5,paired,14_triple__112110100000000010021222_shape_set_20_T.jpeg,1,25.249
687476,30,Female,1,27,3,1,2,minimal,1_single__101010001010_shape_set_17_T.jpeg,1,2.183
687476,30,Female,1,28,3,22,2,minimal,22_single__112212211220_shape_set_17_T.jpeg,0,9.136
687476,30,Female,1,29,3,21,7,paired,21_triple__100111201112121010221202_shape_set_4_T.jpeg,0,25.432
687499,21,Female,1,1,2,78,7,minimal,78_triple__111212101211100210011020_shape_set_17_T.jpeg,0,0.66
687499,21,Female,1,2,2,9,1,minimal,9_flower_single__10020000020001000200_shape_set_17_T.jpeg,1,4.796
687499,21,Female,1,3,2,10,3,paired,10_triple__000012221120010002000000_shape_set_20_T.jpeg,0,10.81
687499,21,Female,1,4,2,13,3,minimal,13_flower_single__01001221122102001122_shape_set_20_T.jpeg,0,3.526
687499,21,Female,1,5,2,39,2,minimal,39_flower_double__0100010001000000122001000000010012120200_shape_set_17_T.jpeg,1,0.834
687499,21,Female,1,6,2,5,1,paired,5_grid_single__0000000010200000_shape_set_4_T.jpeg,1,3.067
687499,21,Female,1,7,2,27,3,minimal,27_double__1020020012121122_shape_set_17_T.jpeg,1,6.875
687499,21,Female,1,8,2,8,1,minimal,8_grid_single__0100000000001111_shape_set_4_T.jpeg,0,7.157
687499,21,Female,1,9,2,12,4,paired,12_double__1212102211111221_shape_set_17_T.jpeg,0,4.191
687499,21,Female,1,10,2,77,3,minimal,77_grid_double__00000100000011111011010001000000_shape_set_4_T.jpeg,0,0.671
687499,21,Female,1,11,2,38,1,paired,38_clockwork3_single__010011110000_shape_set_4_T.jpeg,0,0.368
687499,21,Female,1,12,2,80,4,minimal,80_triple__010002001121020012221221_shape_set_4_T.jpeg,0,0.8270000000000001
687499,21,Female,1,13,2,35,8,minimal,35_grid_triple__122112021120000000001010010001001022110101000100_shape_set_4_T.jpeg,0,0.457
687499,21,Female,1,14,2,40,4,minimal,40_grid_double__02000000010011100200020010211111_shape_set_20_T.jpeg,1,0.937
687499,21,Female,1,15,2,41,1,paired,41_single__112012110000_shape_set_4_T.jpeg,1,0.466
687499,21,Female,1,16,2,79,4,minimal,79_flower_double__0100000001001112000011011110000010220200_shape_set_20_T.jpeg,0,0.896
687499,21,Female,1,17,2,7,1,paired,7_flower_single__01000200020012200200_shape_set_20_T.jpeg,1,5.449
687499,21,Female,1,18,2,30,7,paired,30_grid_double__10211001101112200100121012020000_shape_set_17_T.jpeg,1,0.5
687499,21,Female,1,19,2,64,6,paired,64_grid_triple__000001001110020000000000112002001212010001001122_shape_set_20_T.jpeg,0,5.25
687499,21,Female,1,20,2,65,2,minimal,65_double__0200020012221222_shape_set_4_T.jpeg,1,1.366
687499,21,Female,1,21,2,3,1,minimal,3_clockwork3_single__000011010200_shape_set_17_T.jpeg,1,1.922
687499,21,Female,1,22,2,4,1,paired,4_flower_single__02001220000001000200_shape_set_20_T.jpeg,1,3.42
687499,21,Female,1,23,2,72,4,minimal,72_double__1022111010121202_shape_set_17_T.jpeg,0,6.817
687499,21,Female,1,24,2,28,2,minimal,28_flower_double__0000122201000100000011220000020001000100_shape_set_20_T.jpeg,1,6.349
687499,21,Female,1,25,2,37,3,paired,37_flower_double__0200010001000200020002001211110111120100_shape_set_20_T.jpeg,0,0.561
687499,21,Female,1,26,2,11,3,minimal,11_grid_single__1220111101001121_shape_set_4_T.jpeg,0,1.293
687499,21,Female,1,27,2,76,5,paired,76_flower_single__12211102120110101011_shape_set_20_T.jpeg,0,0.767
687499,21,Female,1,28,2,36,6,minimal,36_triple__111212011010112010220100_shape_set_17_T.jpeg,1,0.752
687499,21,Female,1,29,2,31,3,minimal,31_flower_double__0200010011120100020012110000000002001102_shape_set_20_T.jpeg,0,0.591
687499,21,Female,1,30,2,6,2,minimal,6_single__121210101222_shape_set_17_T.jpeg,0,13.622
687499,21,Female,1,31,2,58,3,paired,58_clockwork3_single__102211221112_shape_set_20_T.jpeg,0,0.459
687499,21,Female,1,32,2,75,6,minimal,75_flower_double__0200110201001112100101000200101012201111_shape_set_17_T.jpeg,1,1.132
687499,21,Female,1,33,2,16,4,paired,16_grid_single__1012121112021101_shape_set_20_T.jpeg,1,7.986
687499,21,Female,1,34,2,17,4,paired,17_double__1222110111201012_shape_set_4_T.jpeg,1,7.4
687499,21,Female,1,35,2,21,7,minimal,21_triple__100111201112121010221202_shape_set_17_T.jpeg,0,1.136
687499,21,Female,1,36,2,2,1,paired,2_double__0000020001001020_shape_set_4_T.jpeg,1,5.154
687499,21,Female,1,37,2,59,5,paired,59_flower_single__11211110102010011122_shape_set_4_T.jpeg,0,0.345
687499,21,Female,1,38,2,22,2,minimal,22_single__112212211220_shape_set_20_T.jpeg,0,2.65
687499,21,Female,1,39,2,49,2,paired,49_clockwork3_single__010011221121_shape_set_20_T.jpeg,0,1.632
687499,21,Female,1,40,2,63,5,paired,63_triple__120211111021020000001010_shape_set_17_T.jpeg,1,0.979
687499,21,Female,1,41,2,24,7,paired,24_grid_triple__010011220200122002000200100110021212000001000200_shape_set_17_T.jpeg,0,3.76
687499,21,Female,1,42,2,25,2,paired,25_clockwork3_single__112110110000_shape_set_20_T.jpeg,0,11.856
687499,21,Female,1,43,2,26,5,paired,26_grid_triple__000000000000112102000100020000000200000011221121_shape_set_4_T.jpeg,0,2.138
687499,21,Female,1,44,2,29,7,paired,29_grid_double__10121011111012010000102012020000_shape_set_4_T.jpeg,1,0.805
687499,21,Female,1,45,2,44,6,minimal,44_triple__120211201211000011101212_shape_set_4_T.jpeg,0,3.004
687499,21,Female,1,46,2,45,7,minimal,45_grid_triple__101211020100111110200000010000000100121002000200_shape_set_17_T.jpeg,0,0.747
687499,21,Female,1,47,2,20,2,paired,20_double__1221010010220000_shape_set_4_T.jpeg,1,2.251
687499,21,Female,1,48,2,71,2,minimal,71_clockwork3_single__102102001101_shape_set_4_T.jpeg,0,9.188
687499,21,Female,1,49,2,73,4,paired,73_grid_double__01000200111202000000122201001012_shape_set_20_T.jpeg,0,1.487
687499,21,Female,1,50,2,74,5,minimal,74_triple__100101001211112010120200_shape_set_4_T.jpeg,1,1.121
687499,21,Female,1,51,2,32,1,paired,32_flower_single__11110100010002000000_shape_set_4_T.jpeg,1,0.743
687499,21,Female,1,52,2,33,1,minimal,33_single__000010221212_shape_set_17_T.jpeg,0,0.481
687499,21,Female,1,53,2,1,2,minimal,1_single__101010001010_shape_set_20_T.jpeg,1,1.918
687499,21,Female,1,54,2,46,6,paired,46_triple__101112200200110212211001_shape_set_20_T.jpeg,0,4.604
687499,21,Female,1,55,2,47,2,minimal,47_flower_double__0100101200000200101102000000010001000100_shape_set_4_T.jpeg,0,0.362
687499,21,Female,1,56,2,48,1,minimal,48_flower_double__0100121102000000020002000100010000000000_shape_set_17_T.jpeg,0,0.627
687499,21,Female,1,57,2,50,2,minimal,50_clockwork3_single__122200001022_shape_set_4_T.jpeg,0,8.39
687499,21,Female,1,58,2,14,5,minimal,14_triple__112110100000000010021222_shape_set_4_T.jpeg,0,5.44
687499,21,Female,1,59,2,42,4,minimal,42_double__1111101211021120_shape_set_17_T.jpeg,0,0.495
687499,21,Female,1,60,2,43,1,minimal,43_flower_double__0000010000000200020001000100000012200000_shape_set_20_T.jpeg,0,0.355
687499,21,Female,1,61,2,57,1,minimal,57_single__020011011121_shape_set_17_T.jpeg,1,8.024000000000001
687499,21,Female,1,62,2,56,3,minimal,56_grid_single__1001101200001122_shape_set_4_T.jpeg,1,5.862
687499,21,Female,1,63,2,55,6,paired,55_grid_double__12021120101202001210000012110100_shape_set_20_T.jpeg,0,2.624
687499,21,Female,1,64,2,23,4,minimal,23_grid_single__1110120212111121_shape_set_4_T.jpeg,0,2.751
687499,21,Female,1,65,2,62,3,paired,62_grid_triple__010000000000020000000100000012210000020000000100_shape_set_4_T.jpeg,0,0.553
687499,21,Female,1,66,2,52,5,paired,52_flower_single__12121202111010011122_shape_set_20_T.jpeg,0,1.583
687499,21,Female,1,67,2,34,3,minimal,34_flower_single__11210200122211220100_shape_set_20_T.jpeg,0,0.445
687499,21,Female,1,68,2,61,2,paired,61_flower_double__1211010002000100020001001121010001000200_shape_set_20_T.jpeg,0,0.735
687499,21,Female,1,69,2,18,3,paired,18_flower_double__1022102200000100010000000200122101000000_shape_set_17_T.jpeg,0,1.134
687499,21,Female,1,70,2,51,2,paired,51_double__0100102201001012_shape_set_17_T.jpeg,0,0.6920000000000001
687499,21,Female,1,71,2,15,3,paired,15_double__0000110211121011_shape_set_17_T.jpeg,0,10.94
687499,21,Female,1,72,2,70,2,paired,70_grid_single__0000010012111110_shape_set_20_T.jpeg,1,6.257000000000001
687499,21,Female,1,73,2,60,4,minimal,60_triple__111212220100010000001122_shape_set_17_T.jpeg,1,0.667
687499,21,Female,1,74,2,54,6,paired,54_grid_double__01001121120112110100100212100100_shape_set_17_T.jpeg,0,13.164
687499,21,Female,1,75,2,19,2,paired,19_single__101112201212_shape_set_20_T.jpeg,0,1.855
687499,21,Female,1,76,2,53,4,paired,53_flower_double__1001010002001212112201000200020010200100_shape_set_4_T.jpeg,0,0.671
687499,21,Female,1,77,2,67,5,paired,67_grid_double__12220000102110020000010012010100_shape_set_20_T.jpeg,1,0.712
687499,21,Female,1,78,2,69,3,paired,69_clockwork3_single__122212121022_shape_set_17_T.jpeg,1,11.638
687499,21,Female,1,79,2,66,8,minimal,66_grid_triple__110211101201112000000200020012110100000001001012_shape_set_17_T.jpeg,0,0.758
687499,21,Female,1,80,2,68,1,paired,68_single__100100001000_shape_set_4_T.jpeg,1,4.466
687535,22,Female,1,1,3,53,4,minimal,53_flower_double__1001010002001212112201000200020010200100_shape_set_20_T.jpeg,1,12.118
687535,22,Female,1,2,3,52,5,minimal,52_flower_single__12121202111010011122_shape_set_17_T.jpeg,0,1.79
687535,22,Female,1,3,3,47,2,paired,47_flower_double__0100101200000200101102000000010001000100_shape_set_20_T.jpeg,1,13.273
687535,22,Female,1,4,3,51,2,minimal,51_double__0100102201001012_shape_set_4_T.jpeg,1,1.692
687535,22,Female,1,5,3,49,2,paired,49_clockwork3_single__010011221121_shape_set_17_T.jpeg,1,3.544
687535,22,Female,1,6,3,46,6,minimal,46_triple__101112200200110212211001_shape_set_17_T.jpeg,0,6.162
687535,22,Female,1,7,3,50,2,paired,50_clockwork3_single__122200001022_shape_set_20_T.jpeg,1,5.706
687535,22,Female,1,8,3,45,7,minimal,45_grid_triple__101211020100111110200000010000000100121002000200_shape_set_4_T.jpeg,0,13.407
687535,22,Female,1,9,3,43,1,minimal,43_flower_double__0000010000000200020001000100000012200000_shape_set_17_T.jpeg,1,1.972
687535,22,Female,1,10,3,5,1,paired,5_grid_single__0000000010200000_shape_set_20_T.jpeg,1,2.08
687535,22,Female,1,11,3,44,6,minimal,44_triple__120211201211000011101212_shape_set_20_T.jpeg,0,16.523
687535,22,Female,1,12,3,48,1,minimal,48_flower_double__0100121102000000020002000100010000000000_shape_set_4_T.jpeg,1,10.895
687535,22,Female,1,13,3,2,1,paired,2_double__0000020001001020_shape_set_20_T.jpeg,1,4.9590000000000005
687535,22,Female,1,14,3,37,3,minimal,37_flower_double__0200010001000200020002001211110111120100_shape_set_17_T.jpeg,1,3.905
687535,22,Female,1,15,3,19,2,paired,19_single__101112201212_shape_set_17_T.jpeg,1,5.3100000000000005
687535,22,Female,1,16,3,38,1,minimal,38_clockwork3_single__010011110000_shape_set_20_T.jpeg,1,2.755
687535,22,Female,1,17,3,6,2,minimal,6_single__121210101222_shape_set_4_T.jpeg,0,6.508
687535,22,Female,1,18,3,42,4,minimal,42_double__1111101211021120_shape_set_4_T.jpeg,0,5.081
687535,22,Female,1,19,3,3,1,minimal,3_clockwork3_single__000011010200_shape_set_4_T.jpeg,1,3.014
687535,22,Female,1,20,3,4,1,paired,4_flower_single__02001220000001000200_shape_set_17_T.jpeg,1,2.885
687535,22,Female,1,21,3,39,2,minimal,39_flower_double__0100010001000000122001000000010012120200_shape_set_4_T.jpeg,1,15.658
687535,22,Female,1,22,3,40,4,paired,40_grid_double__02000000010011100200020010211111_shape_set_17_T.jpeg,1,14.211
687535,22,Female,1,23,3,41,1,paired,41_single__112012110000_shape_set_20_T.jpeg,1,5.062
687535,22,Female,1,24,3,24,7,paired,24_grid_triple__010011220200122002000200100110021212000001000200_shape_set_4_T.jpeg,1,15.625
687535,22,Female,1,25,3,25,2,paired,25_clockwork3_single__112110110000_shape_set_17_T.jpeg,1,12.786
687535,22,Female,1,26,3,8,1,paired,8_grid_single__0100000000001111_shape_set_20_T.jpeg,1,4.8500000000000005
687535,22,Female,1,27,3,14,5,paired,14_triple__112110100000000010021222_shape_set_20_T.jpeg,1,7.988
687535,22,Female,1,28,3,20,2,paired,20_double__1221010010220000_shape_set_20_T.jpeg,1,8.838000000000001
687535,22,Female,1,29,3,7,1,paired,7_flower_single__01000200020012200200_shape_set_17_T.jpeg,0,5.597
687535,22,Female,1,30,3,27,3,paired,27_double__1020020012121122_shape_set_4_T.jpeg,1,8.964
687535,22,Female,1,31,3,1,2,paired,1_single__101010001010_shape_set_17_T.jpeg,1,2.14
687535,22,Female,1,32,3,18,3,paired,18_flower_double__1022102200000100010000000200122101000000_shape_set_4_T.jpeg,0,8.918000000000001
687535,22,Female,1,33,3,36,6,minimal,36_triple__111212011010112010220100_shape_set_4_T.jpeg,0,2.536
687535,22,Female,1,34,3,34,3,minimal,34_flower_single__11210200122211220100_shape_set_17_T.jpeg,0,8.976
687535,22,Female,1,35,3,28,2,paired,28_flower_double__0000122201000100000011220000020001000100_shape_set_17_T.jpeg,0,13.713
687535,22,Female,1,36,3,26,5,paired,26_grid_triple__000000000000112102000100020000000200000011221121_shape_set_20_T.jpeg,1,9.558
687535,22,Female,1,37,3,22,2,paired,22_single__112212211220_shape_set_17_T.jpeg,1,5.2700000000000005
687535,22,Female,1,38,3,33,1,minimal,33_single__000010221212_shape_set_4_T.jpeg,0,3.477
687535,22,Female,1,39,3,29,7,minimal,29_grid_double__10121011111012010000102012020000_shape_set_20_T.jpeg,1,7.087
687535,22,Female,1,40,3,21,7,minimal,21_triple__100111201112121010221202_shape_set_4_T.jpeg,1,9.795
687535,22,Female,1,41,3,13,3,paired,13_flower_single__01001221122102001122_shape_set_17_T.jpeg,0,9.107
687535,22,Female,1,42,3,35,8,paired,35_grid_triple__122112021120000000001010010001001022110101000100_shape_set_20_T.jpeg,0,4.6930000000000005
687535,22,Female,1,43,3,30,7,minimal,30_grid_double__10211001101112200100121012020000_shape_set_4_T.jpeg,0,12.115
687535,22,Female,1,44,3,11,3,paired,11_grid_single__1220111101001121_shape_set_20_T.jpeg,1,9.949
687535,22,Female,1,45,3,9,1,paired,9_flower_single__10020000020001000200_shape_set_4_T.jpeg,1,5.582
687535,22,Female,1,46,3,23,4,minimal,23_grid_single__1110120212111121_shape_set_20_T.jpeg,1,12.49
687535,22,Female,1,47,3,12,4,paired,12_double__1212102211111221_shape_set_4_T.jpeg,1,8.1
687535,22,Female,1,48,3,10,3,paired,10_triple__000012221120010002000000_shape_set_17_T.jpeg,1,7.916
687535,22,Female,1,49,3,16,4,minimal,16_grid_single__1012121112021101_shape_set_17_T.jpeg,0,14.514
687535,22,Female,1,50,3,15,3,minimal,15_double__0000110211121011_shape_set_4_T.jpeg,0,9.105
687535,22,Female,1,51,3,32,1,minimal,32_flower_single__11110100010002000000_shape_set_20_T.jpeg,1,9.576
687535,22,Female,1,52,3,17,4,paired,17_double__1222110111201012_shape_set_20_T.jpeg,1,11.152
687535,22,Female,1,53,3,31,3,paired,31_flower_double__0200010011120100020012110000000002001102_shape_set_17_T.jpeg,0,8.745000000000001
687537,31,Male,2,1,3,34,3,paired,34_flower_single__11210200122211220100_shape_set_17_T.jpeg,0,6.11
687537,31,Male,2,2,3,28,2,minimal,28_flower_double__0000122201000100000011220000020001000100_shape_set_17_T.jpeg,0,2.447
687537,31,Male,2,3,3,36,6,minimal,36_triple__111212011010112010220100_shape_set_4_T.jpeg,0,10.356
687537,31,Male,2,4,3,35,8,paired,35_grid_triple__122112021120000000001010010001001022110101000100_shape_set_20_T.jpeg,0,1.871
687537,31,Male,2,5,3,33,1,minimal,33_single__000010221212_shape_set_4_T.jpeg,1,7.926
687537,31,Male,2,6,3,32,1,paired,32_flower_single__11110100010002000000_shape_set_20_T.jpeg,1,5.176
687537,31,Male,2,7,3,49,2,minimal,49_clockwork3_single__010011221121_shape_set_17_T.jpeg,1,5.646
687537,31,Male,2,8,3,45,7,paired,45_grid_triple__101211020100111110200000010000000100121002000200_shape_set_4_T.jpeg,1,10.5
687537,31,Male,2,9,3,48,1,minimal,48_flower_double__0100121102000000020002000100010000000000_shape_set_4_T.jpeg,0,11.336
687537,31,Male,2,10,3,10,3,paired,10_triple__000012221120010002000000_shape_set_17_T.jpeg,0,14.543
687537,31,Male,2,11,3,44,6,paired,44_triple__120211201211000011101212_shape_set_20_T.jpeg,0,10.643
687537,31,Male,2,12,3,26,5,minimal,26_grid_triple__000000000000112102000100020000000200000011221121_shape_set_20_T.jpeg,0,10.246
687537,31,Male,2,13,3,53,4,minimal,53_flower_double__1001010002001212112201000200020010200100_shape_set_20_T.jpeg,0,27.497
687537,31,Male,2,14,3,30,7,paired,30_grid_double__10211001101112200100121012020000_shape_set_4_T.jpeg,1,1.605
687537,31,Male,2,15,3,31,3,minimal,31_flower_double__0200010011120100020012110000000002001102_shape_set_17_T.jpeg,0,5.0280000000000005
687537,31,Male,2,16,3,42,4,paired,42_double__1111101211021120_shape_set_4_T.jpeg,1,7.851
687537,31,Male,2,17,3,47,2,paired,47_flower_double__0100101200000200101102000000010001000100_shape_set_20_T.jpeg,1,18.049
687537,31,Male,2,18,3,14,5,minimal,14_triple__112110100000000010021222_shape_set_20_T.jpeg,0,11.925
687537,31,Male,2,19,3,46,6,paired,46_triple__101112200200110212211001_shape_set_17_T.jpeg,0,16.149
687537,31,Male,2,20,3,52,5,paired,52_flower_single__12121202111010011122_shape_set_17_T.jpeg,1,4.995
687537,31,Male,2,21,3,29,7,paired,29_grid_double__10121011111012010000102012020000_shape_set_20_T.jpeg,0,1.572
687537,31,Male,2,22,3,1,2,paired,1_single__101010001010_shape_set_17_T.jpeg,1,3.376
687537,31,Male,2,23,3,37,3,paired,37_flower_double__0200010001000200020002001211110111120100_shape_set_17_T.jpeg,1,5.601
687537,31,Male,2,24,3,40,4,minimal,40_grid_double__02000000010011100200020010211111_shape_set_17_T.jpeg,1,9.909
687537,31,Male,2,25,3,9,1,paired,9_flower_single__10020000020001000200_shape_set_4_T.jpeg,1,5.268
687537,31,Male,2,26,3,22,2,paired,22_single__112212211220_shape_set_17_T.jpeg,1,8.499
687537,31,Male,2,27,3,43,1,minimal,43_flower_double__0000010000000200020001000100000012200000_shape_set_17_T.jpeg,1,8.981
687537,31,Male,2,28,3,24,7,paired,24_grid_triple__010011220200122002000200100110021212000001000200_shape_set_4_T.jpeg,0,4.254
687537,31,Male,2,29,3,25,2,paired,25_clockwork3_single__112110110000_shape_set_17_T.jpeg,1,19.572
687537,31,Male,2,30,3,23,4,paired,23_grid_single__1110120212111121_shape_set_20_T.jpeg,1,6.235
687537,31,Male,2,31,3,50,2,minimal,50_clockwork3_single__122200001022_shape_set_20_T.jpeg,0,4.29
687537,31,Male,2,32,3,51,2,minimal,51_double__0100102201001012_shape_set_4_T.jpeg,0,5.789
687537,31,Male,2,33,3,15,3,minimal,15_double__0000110211121011_shape_set_4_T.jpeg,1,15.211
687537,31,Male,2,34,3,8,1,minimal,8_grid_single__0100000000001111_shape_set_20_T.jpeg,1,6.824
687537,31,Male,2,35,3,41,1,paired,41_single__112012110000_shape_set_20_T.jpeg,1,5.796
687537,31,Male,2,36,3,11,3,paired,11_grid_single__1220111101001121_shape_set_20_T.jpeg,0,9.396
687537,31,Male,2,37,3,27,3,paired,27_double__1020020012121122_shape_set_4_T.jpeg,0,5.5600000000000005
687537,31,Male,2,38,3,16,4,paired,16_grid_single__1012121112021101_shape_set_17_T.jpeg,1,6.796
687537,31,Male,2,39,3,17,4,minimal,17_double__1222110111201012_shape_set_20_T.jpeg,1,13.05
687537,31,Male,2,40,3,19,2,paired,19_single__101112201212_shape_set_17_T.jpeg,1,6.666
687537,31,Male,2,41,3,21,7,minimal,21_triple__100111201112121010221202_shape_set_4_T.jpeg,0,9.865
687537,31,Male,2,42,3,39,2,minimal,39_flower_double__0100010001000000122001000000010012120200_shape_set_4_T.jpeg,1,10.375
687537,31,Male,2,43,3,7,1,minimal,7_flower_single__01000200020012200200_shape_set_17_T.jpeg,1,7.761
687537,31,Male,2,44,3,20,2,minimal,20_double__1221010010220000_shape_set_20_T.jpeg,1,7.621
687537,31,Male,2,45,3,18,3,minimal,18_flower_double__1022102200000100010000000200122101000000_shape_set_4_T.jpeg,0,8.748
687537,31,Male,2,46,3,6,2,paired,6_single__121210101222_shape_set_4_T.jpeg,1,9.598
687537,31,Male,2,47,3,13,3,minimal,13_flower_single__01001221122102001122_shape_set_17_T.jpeg,0,9.066
687537,31,Male,2,48,3,38,1,minimal,38_clockwork3_single__010011110000_shape_set_20_T.jpeg,1,6.111
687537,31,Male,2,49,3,4,1,paired,4_flower_single__02001220000001000200_shape_set_17_T.jpeg,1,5.792
687537,31,Male,2,50,3,5,1,minimal,5_grid_single__0000000010200000_shape_set_20_T.jpeg,1,3.357
687537,31,Male,2,51,3,3,1,minimal,3_clockwork3_single__000011010200_shape_set_4_T.jpeg,0,2.768
687537,31,Male,2,52,3,12,4,paired,12_double__1212102211111221_shape_set_4_T.jpeg,0,5.673
687537,31,Male,2,53,3,2,1,minimal,2_double__0000020001001020_shape_set_20_T.jpeg,1,4.385
687539,24,Male,2,1,1,1,2,paired,1_single__101010001010_shape_set_4_T.jpeg,1,1.552
687539,24,Male,2,2,1,2,1,minimal,2_double__0000020001001020_shape_set_17_T.jpeg,1,3.146
687539,24,Male,2,3,1,38,1,paired,38_clockwork3_single__010011110000_shape_set_17_T.jpeg,1,7.96
687539,24,Male,2,4,1,4,1,minimal,4_flower_single__02001220000001000200_shape_set_4_T.jpeg,1,2.865
687539,24,Male,2,5,1,5,1,minimal,5_grid_single__0000000010200000_shape_set_17_T.jpeg,1,3.412
687539,24,Male,2,6,1,49,2,paired,49_clockwork3_single__010011221121_shape_set_4_T.jpeg,1,5.009
687539,24,Male,2,7,1,35,8,paired,35_grid_triple__122112021120000000001010010001001022110101000100_shape_set_17_T.jpeg,1,5.064
687539,24,Male,2,8,1,55,6,minimal,55_grid_double__12021120101202001210000012110100_shape_set_4_T.jpeg,0,4.297
687539,24,Male,2,9,1,54,6,paired,54_grid_double__01001121120112110100100212100100_shape_set_20_T.jpeg,0,4.812
687539,24,Male,2,10,1,3,1,minimal,3_clockwork3_single__000011010200_shape_set_20_T.jpeg,1,3.035
687539,24,Male,2,11,1,20,2,paired,20_double__1221010010220000_shape_set_17_T.jpeg,1,6.7860000000000005
687539,24,Male,2,12,1,50,2,minimal,50_clockwork3_single__122200001022_shape_set_17_T.jpeg,1,7.934
687539,24,Male,2,13,1,9,1,paired,9_flower_single__10020000020001000200_shape_set_20_T.jpeg,1,5.432
687539,24,Male,2,14,1,27,3,paired,27_double__1020020012121122_shape_set_20_T.jpeg,1,17.997
687539,24,Male,2,15,1,28,2,minimal,28_flower_double__0000122201000100000011220000020001000100_shape_set_4_T.jpeg,0,5.9190000000000005
687539,24,Male,2,16,1,13,3,minimal,13_flower_single__01001221122102001122_shape_set_4_T.jpeg,0,10.826
687539,24,Male,2,17,1,32,1,minimal,32_flower_single__11110100010002000000_shape_set_17_T.jpeg,1,2.684
687539,24,Male,2,18,1,34,3,minimal,34_flower_single__11210200122211220100_shape_set_4_T.jpeg,0,1.51
687539,24,Male,2,19,1,8,1,paired,8_grid_single__0100000000001111_shape_set_17_T.jpeg,1,8.761000000000001
687539,24,Male,2,20,1,37,3,minimal,37_flower_double__0200010001000200020002001211110111120100_shape_set_4_T.jpeg,0,3.335
687539,24,Male,2,21,1,10,3,minimal,10_triple__000012221120010002000000_shape_set_4_T.jpeg,0,9.212
687539,24,Male,2,22,1,11,3,minimal,11_grid_single__1220111101001121_shape_set_17_T.jpeg,0,14.567
687539,24,Male,2,23,1,12,4,paired,12_double__1212102211111221_shape_set_20_T.jpeg,1,8.205
687539,24,Male,2,24,1,40,4,paired,40_grid_double__02000000010011100200020010211111_shape_set_4_T.jpeg,0,8.028
687539,24,Male,2,25,1,7,1,minimal,7_flower_single__01000200020012200200_shape_set_4_T.jpeg,1,3.769
687539,24,Male,2,26,1,29,7,paired,29_grid_double__10121011111012010000102012020000_shape_set_17_T.jpeg,0,4.617
687539,24,Male,2,27,1,53,4,minimal,53_flower_double__1001010002001212112201000200020010200100_shape_set_17_T.jpeg,0,2.03
687539,24,Male,2,28,1,16,4,paired,16_grid_single__1012121112021101_shape_set_4_T.jpeg,1,5.407
687539,24,Male,2,29,1,17,4,paired,17_double__1222110111201012_shape_set_17_T.jpeg,1,17.492
687539,24,Male,2,30,1,18,3,minimal,18_flower_double__1022102200000100010000000200122101000000_shape_set_20_T.jpeg,0,15.458
687539,24,Male,2,31,1,21,7,paired,21_triple__100111201112121010221202_shape_set_20_T.jpeg,1,12.816
687539,24,Male,2,32,1,36,6,paired,36_triple__111212011010112010220100_shape_set_20_T.jpeg,1,10.227
687539,24,Male,2,33,1,23,4,paired,23_grid_single__1110120212111121_shape_set_17_T.jpeg,1,5.689
687539,24,Male,2,34,1,24,7,minimal,24_grid_triple__010011220200122002000200100110021212000001000200_shape_set_20_T.jpeg,0,9.731
687539,24,Male,2,35,1,51,2,minimal,51_double__0100102201001012_shape_set_20_T.jpeg,1,2.606
687539,24,Male,2,36,1,30,7,paired,30_grid_double__10211001101112200100121012020000_shape_set_20_T.jpeg,1,10.485
687539,24,Male,2,37,1,39,2,minimal,39_flower_double__0100010001000000122001000000010012120200_shape_set_20_T.jpeg,0,1.429
687539,24,Male,2,38,1,33,1,minimal,33_single__000010221212_shape_set_20_T.jpeg,1,6.175
687539,24,Male,2,39,1,31,3,minimal,31_flower_double__0200010011120100020012110000000002001102_shape_set_4_T.jpeg,0,10.173
687539,24,Male,2,40,1,6,2,minimal,6_single__121210101222_shape_set_20_T.jpeg,1,12.299
687539,24,Male,2,41,1,22,2,paired,22_single__112212211220_shape_set_4_T.jpeg,1,8.355
687539,24,Male,2,42,1,47,2,paired,47_flower_double__0100101200000200101102000000010001000100_shape_set_17_T.jpeg,0,7.265000000000001
687539,24,Male,2,43,1,25,2,paired,25_clockwork3_single__112110110000_shape_set_4_T.jpeg,0,8.5
687539,24,Male,2,44,1,52,5,minimal,52_flower_single__12121202111010011122_shape_set_4_T.jpeg,0,6.292
687539,24,Male,2,45,1,26,5,paired,26_grid_triple__000000000000112102000100020000000200000011221121_shape_set_17_T.jpeg,1,4.925
687539,24,Male,2,46,1,42,4,minimal,42_double__1111101211021120_shape_set_20_T.jpeg,0,1.716
687539,24,Male,2,47,1,41,1,paired,41_single__112012110000_shape_set_17_T.jpeg,1,5.4
687539,24,Male,2,48,1,15,3,minimal,15_double__0000110211121011_shape_set_20_T.jpeg,0,14.279
687539,24,Male,2,49,1,44,6,minimal,44_triple__120211201211000011101212_shape_set_17_T.jpeg,0,18.087
687539,24,Male,2,50,1,48,1,paired,48_flower_double__0100121102000000020002000100010000000000_shape_set_20_T.jpeg,1,11.755
687539,24,Male,2,51,1,46,6,paired,46_triple__101112200200110212211001_shape_set_4_T.jpeg,1,13.806
687539,24,Male,2,52,1,45,7,paired,45_grid_triple__101211020100111110200000010000000100121002000200_shape_set_20_T.jpeg,1,13.469
687539,24,Male,2,53,1,14,5,minimal,14_triple__112110100000000010021222_shape_set_17_T.jpeg,1,6.067
687539,24,Male,2,54,1,43,1,paired,43_flower_double__0000010000000200020001000100000012200000_shape_set_4_T.jpeg,0,3.959
687539,24,Male,2,55,1,19,2,minimal,19_single__101112201212_shape_set_4_T.jpeg,0,8.922
687540,22,Female,2,1,3,25,2,minimal,25_clockwork3_single__112110110000_shape_set_17_T.jpeg,1,13.77
687540,22,Female,2,2,3,24,7,minimal,24_grid_triple__010011220200122002000200100110021212000001000200_shape_set_4_T.jpeg,1,21.927
687540,22,Female,2,3,3,22,2,minimal,22_single__112212211220_shape_set_17_T.jpeg,1,9.119
687540,22,Female,2,4,3,23,4,minimal,23_grid_single__1110120212111121_shape_set_20_T.jpeg,0,8.927
687540,22,Female,2,5,3,20,2,paired,20_double__1221010010220000_shape_set_20_T.jpeg,1,16.621
687540,22,Female,2,6,3,21,7,paired,21_triple__100111201112121010221202_shape_set_4_T.jpeg,1,20.222
687540,22,Female,2,7,3,33,1,minimal,33_single__000010221212_shape_set_4_T.jpeg,0,8.67
687540,22,Female,2,8,3,3,1,minimal,3_clockwork3_single__000011010200_shape_set_4_T.jpeg,1,1.523
687540,22,Female,2,9,3,35,8,minimal,35_grid_triple__122112021120000000001010010001001022110101000100_shape_set_20_T.jpeg,0,21.05
687540,22,Female,2,10,3,26,5,minimal,26_grid_triple__000000000000112102000100020000000200000011221121_shape_set_20_T.jpeg,0,11.757
687540,22,Female,2,11,3,27,3,minimal,27_double__1020020012121122_shape_set_4_T.jpeg,0,17.523
687540,22,Female,2,12,3,28,2,minimal,28_flower_double__0000122201000100000011220000020001000100_shape_set_17_T.jpeg,1,14.129
687540,22,Female,2,13,3,12,4,paired,12_double__1212102211111221_shape_set_4_T.jpeg,0,6.36
687540,22,Female,2,14,3,19,2,paired,19_single__101112201212_shape_set_17_T.jpeg,1,7.826
687540,22,Female,2,15,3,32,1,paired,32_flower_single__11110100010002000000_shape_set_20_T.jpeg,1,13.495
687540,22,Female,2,16,3,2,1,paired,2_double__0000020001001020_shape_set_20_T.jpeg,1,4.423
687540,22,Female,2,17,3,1,2,minimal,1_single__101010001010_shape_set_17_T.jpeg,1,1.865
687540,22,Female,2,18,3,37,3,minimal,37_flower_double__0200010001000200020002001211110111120100_shape_set_17_T.jpeg,0,12.026
687540,22,Female,2,19,3,38,1,paired,38_clockwork3_single__010011110000_shape_set_20_T.jpeg,1,6.382000000000001
687540,22,Female,2,20,3,39,2,minimal,39_flower_double__0100010001000000122001000000010012120200_shape_set_4_T.jpeg,0,19.011
687540,22,Female,2,21,3,40,4,paired,40_grid_double__02000000010011100200020010211111_shape_set_17_T.jpeg,1,13.115
687540,22,Female,2,22,3,15,3,minimal,15_double__0000110211121011_shape_set_4_T.jpeg,1,14.288
687540,22,Female,2,23,3,30,7,paired,30_grid_double__10211001101112200100121012020000_shape_set_4_T.jpeg,1,13.373
687540,22,Female,2,24,3,18,3,paired,18_flower_double__1022102200000100010000000200122101000000_shape_set_4_T.jpeg,0,13.356
687540,22,Female,2,25,3,34,3,paired,34_flower_single__11210200122211220100_shape_set_17_T.jpeg,0,7.496
687540,22,Female,2,26,3,9,1,paired,9_flower_single__10020000020001000200_shape_set_4_T.jpeg,1,5.965
687540,22,Female,2,27,3,10,3,paired,10_triple__000012221120010002000000_shape_set_17_T.jpeg,0,5.757000000000001
687540,22,Female,2,28,3,11,3,minimal,11_grid_single__1220111101001121_shape_set_20_T.jpeg,0,9.02
687540,22,Female,2,29,3,29,7,minimal,29_grid_double__10121011111012010000102012020000_shape_set_20_T.jpeg,1,10.342
687540,22,Female,2,30,3,14,5,paired,14_triple__112110100000000010021222_shape_set_20_T.jpeg,1,19.574
687540,22,Female,2,31,3,17,4,minimal,17_double__1222110111201012_shape_set_20_T.jpeg,1,22.528
687540,22,Female,2,32,3,4,1,minimal,4_flower_single__02001220000001000200_shape_set_17_T.jpeg,1,4.2780000000000005
687540,22,Female,2,33,3,16,4,paired,16_grid_single__1012121112021101_shape_set_17_T.jpeg,1,7.096
687540,22,Female,2,34,3,31,3,minimal,31_flower_double__0200010011120100020012110000000002001102_shape_set_17_T.jpeg,0,8.361
687540,22,Female,2,35,3,36,6,minimal,36_triple__111212011010112010220100_shape_set_4_T.jpeg,0,17.984
687540,22,Female,2,36,3,6,2,minimal,6_single__121210101222_shape_set_4_T.jpeg,1,7.725
687540,22,Female,2,37,3,7,1,paired,7_flower_single__01000200020012200200_shape_set_17_T.jpeg,1,6.0360000000000005
687540,22,Female,2,38,3,13,3,minimal,13_flower_single__01001221122102001122_shape_set_17_T.jpeg,0,8.143
687540,22,Female,2,39,3,5,1,minimal,5_grid_single__0000000010200000_shape_set_20_T.jpeg,1,2.497
687540,22,Female,2,40,3,8,1,paired,8_grid_single__0100000000001111_shape_set_20_T.jpeg,1,5.416
687692,21,Female,2,1,3,36,6,minimal,36_triple__111212011010112010220100_shape_set_4_T.jpeg,0,2.73
687692,21,Female,2,2,3,30,7,minimal,30_grid_double__10211001101112200100121012020000_shape_set_4_T.jpeg,0,1.1
687692,21,Female,2,3,3,31,3,paired,31_flower_double__0200010011120100020012110000000002001102_shape_set_17_T.jpeg,0,0.351
687692,21,Female,2,4,3,8,1,paired,8_grid_single__0100000000001111_shape_set_20_T.jpeg,1,10.469
687692,21,Female,2,5,3,69,3,minimal,69_clockwork3_single__122212121022_shape_set_4_T.jpeg,1,2.024
687692,21,Female,2,6,3,41,1,paired,41_single__112012110000_shape_set_20_T.jpeg,1,0.594
687692,21,Female,2,7,3,39,2,paired,39_flower_double__0100010001000000122001000000010012120200_shape_set_4_T.jpeg,0,1.732
687692,21,Female,2,8,3,74,5,paired,74_triple__100101001211112010120200_shape_set_20_T.jpeg,1,4.907
687692,21,Female,2,9,3,35,8,paired,35_grid_triple__122112021120000000001010010001001022110101000100_shape_set_20_T.jpeg,0,5.296
687692,21,Female,2,10,3,40,4,paired,40_grid_double__02000000010011100200020010211111_shape_set_17_T.jpeg,0,1.303
687692,21,Female,2,11,3,22,2,minimal,22_single__112212211220_shape_set_17_T.jpeg,0,5.3740000000000006
687692,21,Female,2,12,3,43,1,paired,43_flower_double__0000010000000200020001000100000012200000_shape_set_17_T.jpeg,0,2.836
687692,21,Female,2,13,3,47,2,minimal,47_flower_double__0100101200000200101102000000010001000100_shape_set_20_T.jpeg,0,5.478
687692,21,Female,2,14,3,42,4,paired,42_double__1111101211021120_shape_set_4_T.jpeg,0,1.53
687692,21,Female,2,15,3,75,6,paired,75_flower_double__0200110201001112100101000200101012201111_shape_set_4_T.jpeg,1,4.277
687692,21,Female,2,16,3,37,3,minimal,37_flower_double__0200010001000200020002001211110111120100_shape_set_17_T.jpeg,1,0.442
687692,21,Female,2,17,3,38,1,minimal,38_clockwork3_single__010011110000_shape_set_20_T.jpeg,1,2.055
687692,21,Female,2,18,3,13,3,minimal,13_flower_single__01001221122102001122_shape_set_17_T.jpeg,0,4.859
687692,21,Female,2,19,3,14,5,paired,14_triple__112110100000000010021222_shape_set_20_T.jpeg,1,1.639
687692,21,Female,2,20,3,15,3,paired,15_double__0000110211121011_shape_set_4_T.jpeg,1,6.78
687692,21,Female,2,21,3,26,5,paired,26_grid_triple__000000000000112102000100020000000200000011221121_shape_set_20_T.jpeg,0,0.325
687692,21,Female,2,22,3,32,1,minimal,32_flower_single__11110100010002000000_shape_set_20_T.jpeg,1,0.234
687692,21,Female,2,23,3,7,1,minimal,7_flower_single__01000200020012200200_shape_set_17_T.jpeg,1,5.583
687692,21,Female,2,24,3,33,1,paired,33_single__000010221212_shape_set_4_T.jpeg,0,2.111
687692,21,Female,2,25,3,9,1,minimal,9_flower_single__10020000020001000200_shape_set_4_T.jpeg,1,3.247
687692,21,Female,2,26,3,10,3,paired,10_triple__000012221120010002000000_shape_set_17_T.jpeg,0,9.675
687692,21,Female,2,27,3,11,3,paired,11_grid_single__1220111101001121_shape_set_20_T.jpeg,1,5.6610000000000005
687692,21,Female,2,28,3,68,1,minimal,68_single__100100001000_shape_set_20_T.jpeg,0,1.325
687692,21,Female,2,29,3,70,2,paired,70_grid_single__0000010012111110_shape_set_17_T.jpeg,1,3.893
687692,21,Female,2,30,3,16,4,minimal,16_grid_single__1012121112021101_shape_set_17_T.jpeg,1,6.354
