subject,trial,item_set,item,dimension,test_form,distractor,accuracy,rt,minimum_resolution,browser_interactions
01b653iwjusnxf359qk7596t,1,3,22,2,1,pd,1.0,6.088,1,0.0
01b653iwjusnxf359qk7596t,2,3,28,2,2,md,1.0,12.884,1,0.0
01b653iwjusnxf359qk7596t,3,3,70,2,2,md,1.0,7.699,1,0.0
01b653iwjusnxf359qk7596t,4,3,51,2,1,pd,1.0,9.247,1,0.0
01b653iwjusnxf359qk7596t,5,3,11,3,1,pd,0.0,6.396,1,0.0
01b653iwjusnxf359qk7596t,6,3,31,3,2,md,0.0,10.662,1,0.0
01b653iwjusnxf359qk7596t,7,3,17,4,2,md,0.0,13.843,1,0.0
01b653iwjusnxf359qk7596t,8,3,62,3,1,pd,1.0,11.4,1,0.0
01b653iwjusnxf359qk7596t,9,3,42,4,1,pd,0.0,16.601,1,0.0
01b653iwjusnxf359qk7596t,10,3,60,4,2,md,1.0,18.384,1,0.0
01b653iwjusnxf359qk7596t,11,3,52,5,1,pd,1.0,24.616,1,0.0
01b653iwjusnxf359qk7596t,12,3,63,5,2,md,0.0,19.049,1,0.0
01b653iwjusnxf359qk7596t,13,3,46,6,1,pd,1.0,10.405,1,0.0
01b653iwjusnxf359qk7596t,14,3,54,6,2,md,0.0,13.536,1,0.0
01b653iwjusnxf359qk7596t,15,3,78,7,2,md,0.0,28.942,1,0.0
01b653iwjusnxf359qk7596t,16,3,30,7,1,pd,1.0,16.371,1,0.0
0374obg53yvd969wid8t8a71,1,3,25,2,2,pd,1.0,6.812,1,0.0
0374obg53yvd969wid8t8a71,2,3,22,2,1,md,1.0,13.089,1,0.0
0374obg53yvd969wid8t8a71,3,3,71,2,2,pd,1.0,8.169,1,0.0
0374obg53yvd969wid8t8a71,4,3,49,2,1,md,1.0,10.797,1,0.0
0374obg53yvd969wid8t8a71,5,3,11,3,1,md,,,1,0.0
0374obg53yvd969wid8t8a71,6,3,34,3,2,pd,1.0,14.444,1,0.0
0374obg53yvd969wid8t8a71,7,3,77,3,2,pd,0.0,24.825,1,0.0
0374obg53yvd969wid8t8a71,8,3,58,3,1,md,1.0,10.796,1,0.0
0374obg53yvd969wid8t8a71,9,3,79,4,2,pd,1.0,24.34,1,0.0
0374obg53yvd969wid8t8a71,10,3,40,4,1,md,1.0,14.471,1,0.0
0374obg53yvd969wid8t8a71,11,3,14,5,1,md,1.0,12.093,1,0.0
0374obg53yvd969wid8t8a71,12,3,63,5,2,pd,1.0,10.789,1,0.0
0374obg53yvd969wid8t8a71,13,3,54,6,2,pd,1.0,18.407,1,0.0
0374obg53yvd969wid8t8a71,14,3,44,6,1,md,1.0,10.62,1,0.0
0374obg53yvd969wid8t8a71,15,3,35,8,2,pd,1.0,12.195,1,0.0
0374obg53yvd969wid8t8a71,16,3,29,7,1,md,0.0,16.757,1,0.0
03i65ytrhnqf85c2lvnzb2ov,1,3,28,2,1,md,0.0,4.405,1,0.0
03i65ytrhnqf85c2lvnzb2ov,2,3,20,2,2,pd,1.0,3.59,1,0.0
03i65ytrhnqf85c2lvnzb2ov,3,3,61,2,2,pd,1.0,4.112,1,0.0
03i65ytrhnqf85c2lvnzb2ov,4,3,70,2,1,md,1.0,6.953,1,0.0
03i65ytrhnqf85c2lvnzb2ov,5,3,15,3,2,pd,1.0,5.666,1,0.0
03i65ytrhnqf85c2lvnzb2ov,6,3,34,3,1,md,0.0,6.97,1,0.0
03i65ytrhnqf85c2lvnzb2ov,7,3,77,3,1,md,1.0,9.575,1,0.0
03i65ytrhnqf85c2lvnzb2ov,8,3,69,3,2,pd,1.0,7.247,1,0.0
03i65ytrhnqf85c2lvnzb2ov,9,3,72,4,1,md,0.0,6.772,1,0.0
03i65ytrhnqf85c2lvnzb2ov,10,3,42,4,2,pd,1.0,13.082,1,0.0
03i65ytrhnqf85c2lvnzb2ov,11,3,52,5,2,pd,0.0,9.005,1,0.0
03i65ytrhnqf85c2lvnzb2ov,12,3,59,5,1,md,1.0,12.913,1,0.0
03i65ytrhnqf85c2lvnzb2ov,13,3,54,6,1,md,0.0,9.026,1,0.0
03i65ytrhnqf85c2lvnzb2ov,14,3,76,5,2,pd,1.0,8.704,1,0.0
03i65ytrhnqf85c2lvnzb2ov,15,3,45,7,1,md,0.0,6.194,1,0.0
03i65ytrhnqf85c2lvnzb2ov,16,3,29,7,2,pd,0.0,8.004,1,0.0
06hmew4su9ph9i5gigwdmwr4,1,3,47,2,2,md,0.0,15.821,1,0.0
06hmew4su9ph9i5gigwdmwr4,2,3,20,2,1,pd,1.0,8.242,1,0.0
06hmew4su9ph9i5gigwdmwr4,3,3,50,2,1,pd,0.0,13.718,1,0.0
06hmew4su9ph9i5gigwdmwr4,4,3,71,2,2,md,1.0,10.712,1,0.0
06hmew4su9ph9i5gigwdmwr4,5,3,34,3,2,md,1.0,11.69,1,0.0
06hmew4su9ph9i5gigwdmwr4,6,3,15,3,1,pd,1.0,15.769,1,0.0
06hmew4su9ph9i5gigwdmwr4,7,3,16,4,2,md,1.0,5.421,1,0.0
06hmew4su9ph9i5gigwdmwr4,8,3,56,3,1,pd,1.0,8.835,1,0.0
06hmew4su9ph9i5gigwdmwr4,9,3,60,4,2,md,1.0,18.137,1,0.0
06hmew4su9ph9i5gigwdmwr4,10,3,40,4,1,pd,1.0,15.653,1,0.0
06hmew4su9ph9i5gigwdmwr4,11,3,59,5,2,md,0.0,24.939,1,0.0
06hmew4su9ph9i5gigwdmwr4,12,3,52,5,1,pd,1.0,17.967,1,0.0
06hmew4su9ph9i5gigwdmwr4,13,3,64,6,2,md,1.0,28.605,1,0.0
06hmew4su9ph9i5gigwdmwr4,14,3,44,6,1,pd,1.0,13.894,1,0.0
06hmew4su9ph9i5gigwdmwr4,15,3,35,8,2,md,1.0,23.969,1,0.0
06hmew4su9ph9i5gigwdmwr4,16,3,29,7,1,pd,1.0,11.687,1,0.0
06ul9f2coolrse6pnzjrdmbc,1,3,25,2,1,pd,1.0,23.86,1,0.0
06ul9f2coolrse6pnzjrdmbc,2,3,22,2,2,md,1.0,25.005,1,0.0
06ul9f2coolrse6pnzjrdmbc,3,3,70,2,1,pd,1.0,5.426,1,0.0
06ul9f2coolrse6pnzjrdmbc,4,3,50,2,2,md,1.0,15.671,1,0.0
06ul9f2coolrse6pnzjrdmbc,5,3,31,3,1,pd,1.0,16.151,1,0.0
06ul9f2coolrse6pnzjrdmbc,6,3,11,3,2,md,1.0,18.734,1,0.0
06ul9f2coolrse6pnzjrdmbc,7,3,56,3,2,md,0.0,24.426,1,0.0
06ul9f2coolrse6pnzjrdmbc,8,3,17,4,1,pd,1.0,28.964,1,0.0
06ul9f2coolrse6pnzjrdmbc,9,3,73,4,1,pd,1.0,29.816,1,0.0
06ul9f2coolrse6pnzjrdmbc,10,3,53,4,2,md,0.0,28.759,1,0.0
06ul9f2coolrse6pnzjrdmbc,11,3,80,4,2,md,1.0,18.788,1,0.0
06ul9f2coolrse6pnzjrdmbc,12,3,67,5,1,pd,1.0,13.813,1,0.0
06ul9f2coolrse6pnzjrdmbc,13,3,55,6,1,pd,1.0,9.877,1,0.0
06ul9f2coolrse6pnzjrdmbc,14,3,46,6,2,md,0.0,27.552,1,0.0
06ul9f2coolrse6pnzjrdmbc,15,3,24,7,2,md,1.0,21.461,1,0.0
06ul9f2coolrse6pnzjrdmbc,16,3,78,7,1,pd,0.0,23.152,1,0.0
08p6c81b1uflp82myo5nw9dl,1,3,19,2,1,md,1.0,5.003,1,0.0
08p6c81b1uflp82myo5nw9dl,2,3,25,2,2,pd,1.0,11.512,1,0.0
08p6c81b1uflp82myo5nw9dl,3,3,70,2,2,pd,1.0,6.023,1,0.0
08p6c81b1uflp82myo5nw9dl,4,3,61,2,1,md,1.0,16.316,1,0.0
08p6c81b1uflp82myo5nw9dl,5,3,27,3,2,pd,0.0,25.588,1,0.0
08p6c81b1uflp82myo5nw9dl,6,3,18,3,1,md,0.0,23.023,1,0.0
08p6c81b1uflp82myo5nw9dl,7,3,16,4,2,pd,1.0,11.929,1,0.0
08p6c81b1uflp82myo5nw9dl,8,3,69,3,1,md,1.0,27.643,1,0.0
08p6c81b1uflp82myo5nw9dl,9,3,42,4,1,md,0.0,18.948,1,0.0
08p6c81b1uflp82myo5nw9dl,10,3,60,4,2,pd,,,1,0.0
08p6c81b1uflp82myo5nw9dl,11,3,63,5,2,pd,0.0,25.835,1,0.0
08p6c81b1uflp82myo5nw9dl,12,3,26,5,1,md,0.0,28.712,1,0.0
08p6c81b1uflp82myo5nw9dl,13,3,36,6,1,md,0.0,27.733,1,0.0
08p6c81b1uflp82myo5nw9dl,14,3,54,6,2,pd,1.0,15.459,1,0.0
08p6c81b1uflp82myo5nw9dl,15,3,35,8,2,pd,1.0,22.346,1,0.0
08p6c81b1uflp82myo5nw9dl,16,3,29,7,1,md,1.0,22.3,1,0.0
0989ahmna9dulp8bxcoynys0,1,3,28,2,1,md,1.0,22.487,1,0.0
0989ahmna9dulp8bxcoynys0,2,3,20,2,2,pd,1.0,11.017,1,0.0
0989ahmna9dulp8bxcoynys0,3,3,10,3,1,md,1.0,8.439,1,0.0
0989ahmna9dulp8bxcoynys0,4,3,50,2,2,pd,1.0,13.573,1,0.0
0989ahmna9dulp8bxcoynys0,5,3,18,3,2,pd,1.0,12.865,1,0.0
0989ahmna9dulp8bxcoynys0,6,3,31,3,1,md,0.0,18.566,1,0.0
0989ahmna9dulp8bxcoynys0,7,3,77,3,1,md,0.0,9.984,1,0.0
0989ahmna9dulp8bxcoynys0,8,3,69,3,2,pd,1.0,7.65,1,0.0
0989ahmna9dulp8bxcoynys0,9,3,42,4,2,pd,1.0,11.727,1,0.0
0989ahmna9dulp8bxcoynys0,10,3,60,4,1,md,1.0,19.926,1,0.0
0989ahmna9dulp8bxcoynys0,11,3,59,5,1,md,0.0,11.816,1,0.0
0989ahmna9dulp8bxcoynys0,12,3,52,5,2,pd,1.0,9.256,1,0.0
0989ahmna9dulp8bxcoynys0,13,3,44,6,2,pd,0.0,12.738,1,0.0
0989ahmna9dulp8bxcoynys0,14,3,64,6,1,md,0.0,18.426,1,0.0
0989ahmna9dulp8bxcoynys0,15,3,24,7,2,pd,0.0,8.562,1,0.0
0989ahmna9dulp8bxcoynys0,16,3,45,7,1,md,1.0,10.813,1,0.0
0cuzisrtq2cdt8h5b4myuyfg,1,3,22,2,2,md,1.0,13.291,1,0.0
0cuzisrtq2cdt8h5b4myuyfg,2,3,39,2,1,pd,1.0,24.172,1,0.0
0cuzisrtq2cdt8h5b4myuyfg,3,3,71,2,1,pd,1.0,8.643,1,0.0
0cuzisrtq2cdt8h5b4myuyfg,4,3,61,2,2,md,1.0,15.182,1,0.0
0cuzisrtq2cdt8h5b4myuyfg,5,3,15,3,2,md,1.0,17.036,1,0.0
0cuzisrtq2cdt8h5b4myuyfg,6,3,31,3,1,pd,1.0,16.609,1,0.0
0cuzisrtq2cdt8h5b4myuyfg,7,3,17,4,1,pd,1.0,16.016,1,0.0
0cuzisrtq2cdt8h5b4myuyfg,8,3,69,3,2,md,1.0,14.006,1,0.0
0cuzisrtq2cdt8h5b4myuyfg,9,3,53,4,2,md,0.0,28.493,1,0.0
0cuzisrtq2cdt8h5b4myuyfg,10,3,73,4,1,pd,1.0,15.33,1,0.0
0cuzisrtq2cdt8h5b4myuyfg,11,3,63,5,1,pd,1.0,26.183,1,0.0
0cuzisrtq2cdt8h5b4myuyfg,12,3,80,4,2,md,1.0,9.517,1,0.0
0cuzisrtq2cdt8h5b4myuyfg,13,3,76,5,2,md,1.0,23.596,1,0.0
0cuzisrtq2cdt8h5b4myuyfg,14,3,54,6,1,pd,1.0,14.402,1,0.0
0cuzisrtq2cdt8h5b4myuyfg,15,3,30,7,2,md,1.0,14.85,1,0.0
0cuzisrtq2cdt8h5b4myuyfg,16,3,45,7,1,pd,1.0,8.152,1,0.0
0k9ph5p70zb8x7iugjdl96mt,1,3,19,2,1,pd,1.0,12.433,1,0.0
0k9ph5p70zb8x7iugjdl96mt,2,3,28,2,2,md,,,1,0.0
0k9ph5p70zb8x7iugjdl96mt,3,3,65,2,2,md,1.0,20.606,1,0.0
0k9ph5p70zb8x7iugjdl96mt,4,3,61,2,1,pd,0.0,22.49,1,0.0
0k9ph5p70zb8x7iugjdl96mt,5,3,37,3,2,md,0.0,14.769,1,0.0
0k9ph5p70zb8x7iugjdl96mt,6,3,13,3,1,pd,0.0,25.594,1,0.0
0k9ph5p70zb8x7iugjdl96mt,7,3,16,4,2,md,0.0,29.014,1,0.0
0k9ph5p70zb8x7iugjdl96mt,8,3,58,3,1,pd,0.0,29.285,1,0.0
0k9ph5p70zb8x7iugjdl96mt,9,3,72,4,2,md,0.0,24.796,1,0.0
0k9ph5p70zb8x7iugjdl96mt,10,3,40,4,1,pd,0.0,22.895,1,0.0
0k9ph5p70zb8x7iugjdl96mt,11,3,80,4,1,pd,1.0,18.958,1,0.0
0k9ph5p70zb8x7iugjdl96mt,12,3,67,5,2,md,0.0,28.384,1,0.0
0k9ph5p70zb8x7iugjdl96mt,13,3,36,6,1,pd,0.0,11.537,1,0.0
0k9ph5p70zb8x7iugjdl96mt,14,3,64,6,2,md,,,1,0.0
0k9ph5p70zb8x7iugjdl96mt,15,3,21,7,1,pd,1.0,4.506,1,0.0
0k9ph5p70zb8x7iugjdl96mt,16,3,66,8,2,md,0.0,6.348,1,0.0
0lbef3rih04hlz20mpmkmfaq,1,3,39,2,2,md,1.0,22.652,1,0.0
0lbef3rih04hlz20mpmkmfaq,2,3,6,2,1,pd,1.0,27.238,1,0.0
0lbef3rih04hlz20mpmkmfaq,3,3,10,3,2,md,0.0,23.181,1,0.0
0lbef3rih04hlz20mpmkmfaq,4,3,51,2,1,pd,1.0,22.441,1,0.0
0lbef3rih04hlz20mpmkmfaq,5,3,11,3,1,pd,1.0,28.447,1,0.0
0lbef3rih04hlz20mpmkmfaq,6,3,34,3,2,md,0.0,18.415,1,0.0
0lbef3rih04hlz20mpmkmfaq,7,3,58,3,1,pd,1.0,17.752,1,0.0
0lbef3rih04hlz20mpmkmfaq,8,3,16,4,2,md,1.0,16.238,1,0.0
0lbef3rih04hlz20mpmkmfaq,9,3,53,4,1,pd,1.0,27.855,1,0.0
0lbef3rih04hlz20mpmkmfaq,10,3,72,4,2,md,0.0,28.957,1,0.0
0lbef3rih04hlz20mpmkmfaq,11,3,74,5,2,md,1.0,27.739,1,0.0
0lbef3rih04hlz20mpmkmfaq,12,3,80,4,1,pd,0.0,25.668,1,0.0
0lbef3rih04hlz20mpmkmfaq,13,3,64,6,2,md,0.0,21.597,1,0.0
0lbef3rih04hlz20mpmkmfaq,14,3,36,6,1,pd,0.0,24.27,1,0.0
0lbef3rih04hlz20mpmkmfaq,15,3,29,7,1,pd,1.0,12.081,1,0.0
0lbef3rih04hlz20mpmkmfaq,16,3,66,8,2,md,0.0,24.102,1,0.0
0mifm1lzbxnc43588vf8k0ws,1,3,22,2,2,md,1.0,14.471,1,0.0
0mifm1lzbxnc43588vf8k0ws,2,3,47,2,1,pd,1.0,20.6,1,0.0
0mifm1lzbxnc43588vf8k0ws,3,3,65,2,1,pd,0.0,11.78,1,0.0
0mifm1lzbxnc43588vf8k0ws,4,3,51,2,2,md,1.0,7.246,1,0.0
0mifm1lzbxnc43588vf8k0ws,5,3,31,3,1,pd,0.0,14.944,1,0.0
0mifm1lzbxnc43588vf8k0ws,6,3,18,3,2,md,0.0,17.789,1,0.0
0mifm1lzbxnc43588vf8k0ws,7,3,56,3,2,md,1.0,16.102,1,0.0
0mifm1lzbxnc43588vf8k0ws,8,3,12,4,1,pd,0.0,17.269,1,0.0
0mifm1lzbxnc43588vf8k0ws,9,3,53,4,2,md,0.0,11.457,1,0.0
0mifm1lzbxnc43588vf8k0ws,10,3,79,4,1,pd,1.0,14.879,1,0.0
0mifm1lzbxnc43588vf8k0ws,11,3,26,5,2,md,0.0,7.412,1,0.0
0mifm1lzbxnc43588vf8k0ws,12,3,63,5,1,pd,0.0,14.38,1,0.0
0mifm1lzbxnc43588vf8k0ws,13,3,46,6,2,md,0.0,6.066,1,0.0
0mifm1lzbxnc43588vf8k0ws,14,3,64,6,1,pd,1.0,4.108,1,0.0
0mifm1lzbxnc43588vf8k0ws,15,3,66,8,1,pd,0.0,11.403,1,0.0
0mifm1lzbxnc43588vf8k0ws,16,3,21,7,2,md,0.0,11.775,1,0.0
0o92lwkkod5ficj2jyqn0f60,1,3,22,2,2,pd,1.0,11.343,1,0.0
0o92lwkkod5ficj2jyqn0f60,2,3,25,2,1,md,1.0,6.47,1,0.0
0o92lwkkod5ficj2jyqn0f60,3,3,49,2,2,pd,1.0,5.768,1,0.0
0o92lwkkod5ficj2jyqn0f60,4,3,71,2,1,md,1.0,6.829,1,0.0
0o92lwkkod5ficj2jyqn0f60,5,3,13,3,2,pd,0.0,8.85,1,0.0
0o92lwkkod5ficj2jyqn0f60,6,3,27,3,1,md,0.0,6.825,1,0.0
0o92lwkkod5ficj2jyqn0f60,7,3,62,3,2,pd,1.0,4.952,1,0.0
0o92lwkkod5ficj2jyqn0f60,8,3,12,4,1,md,1.0,6.764,1,0.0
0o92lwkkod5ficj2jyqn0f60,9,3,40,4,2,pd,1.0,3.014,1,0.0
0o92lwkkod5ficj2jyqn0f60,10,3,79,4,1,md,0.0,5.533,1,0.0
0o92lwkkod5ficj2jyqn0f60,11,3,59,5,1,md,0.0,2.751,1,0.0
0o92lwkkod5ficj2jyqn0f60,12,3,80,4,2,pd,0.0,12.769,1,0.0
0o92lwkkod5ficj2jyqn0f60,13,3,75,6,1,md,0.0,2.116,1,0.0
0o92lwkkod5ficj2jyqn0f60,14,3,44,6,2,pd,1.0,0.94,1,0.0
0o92lwkkod5ficj2jyqn0f60,15,3,24,7,2,pd,0.0,1.123,1,0.0
0o92lwkkod5ficj2jyqn0f60,16,3,78,7,1,md,0.0,9.033,1,0.0
0ppzryi0yvn8rzf45d469rfr,1,3,39,2,2,md,1.0,26.126,1,0.0
0ppzryi0yvn8rzf45d469rfr,2,3,22,2,1,pd,1.0,14.901,1,0.0
0ppzryi0yvn8rzf45d469rfr,3,3,61,2,1,pd,1.0,24.54,1,0.0
0ppzryi0yvn8rzf45d469rfr,4,3,10,3,2,md,1.0,11.712,1,0.0
0ppzryi0yvn8rzf45d469rfr,5,3,18,3,1,pd,1.0,19.373,1,0.0
0ppzryi0yvn8rzf45d469rfr,6,3,31,3,2,md,1.0,23.514,1,0.0
0ppzryi0yvn8rzf45d469rfr,7,3,56,3,1,pd,1.0,20.216,1,0.0
0ppzryi0yvn8rzf45d469rfr,8,3,16,4,2,md,1.0,10.548,1,0.0
0ppzryi0yvn8rzf45d469rfr,9,3,23,4,1,pd,1.0,11.259,1,0.0
0ppzryi0yvn8rzf45d469rfr,10,3,79,4,2,md,0.0,28.403,1,0.0
0ppzryi0yvn8rzf45d469rfr,11,3,14,5,1,pd,0.0,13.987,1,0.0
0ppzryi0yvn8rzf45d469rfr,12,3,67,5,2,md,0.0,17.127,1,0.0
0ppzryi0yvn8rzf45d469rfr,13,3,46,6,1,pd,1.0,9.241,1,0.0
0ppzryi0yvn8rzf45d469rfr,14,3,55,6,2,md,1.0,25.01,1,0.0
0ppzryi0yvn8rzf45d469rfr,15,3,45,7,2,md,1.0,15.411,1,0.0
0ppzryi0yvn8rzf45d469rfr,16,3,24,7,1,pd,0.0,12.338,1,0.0
0q9kik5fwix8xvf50jzwrbv5,1,3,39,2,1,pd,1.0,16.007,1,0.0
0q9kik5fwix8xvf50jzwrbv5,2,3,22,2,2,md,0.0,13.235,1,0.0
0q9kik5fwix8xvf50jzwrbv5,3,3,70,2,1,pd,1.0,9.693,1,0.0
0q9kik5fwix8xvf50jzwrbv5,4,3,61,2,2,md,1.0,17.036,1,0.0
0q9kik5fwix8xvf50jzwrbv5,5,3,34,3,1,pd,1.0,21.224,1,0.0
0q9kik5fwix8xvf50jzwrbv5,6,3,11,3,2,md,0.0,27.766,1,0.0
0q9kik5fwix8xvf50jzwrbv5,7,3,69,3,2,md,1.0,11.287,1,0.0
0q9kik5fwix8xvf50jzwrbv5,8,3,12,4,1,pd,0.0,23.564,1,0.0
0q9kik5fwix8xvf50jzwrbv5,9,3,40,4,2,md,0.0,27.698,1,0.0
0q9kik5fwix8xvf50jzwrbv5,10,3,60,4,1,pd,0.0,25.613,1,0.0
0q9kik5fwix8xvf50jzwrbv5,11,3,26,5,2,md,0.0,27.188,1,0.0
0q9kik5fwix8xvf50jzwrbv5,12,3,59,5,1,pd,1.0,13.612,1,0.0
0q9kik5fwix8xvf50jzwrbv5,13,3,44,6,2,md,0.0,26.173,1,0.0
0q9kik5fwix8xvf50jzwrbv5,14,3,75,6,1,pd,1.0,18.269,1,0.0
0q9kik5fwix8xvf50jzwrbv5,15,3,35,8,1,pd,1.0,16.181,1,0.0
0q9kik5fwix8xvf50jzwrbv5,16,3,24,7,2,md,1.0,23.505,1,0.0
0sj1lawlpszd1lz6vql6z3wg,1,3,28,2,2,md,1.0,8.311,1,0.0
0sj1lawlpszd1lz6vql6z3wg,2,3,20,2,1,pd,1.0,3.874,1,0.0
0sj1lawlpszd1lz6vql6z3wg,3,3,61,2,1,pd,1.0,8.19,1,0.0
0sj1lawlpszd1lz6vql6z3wg,4,3,71,2,2,md,1.0,4.636,1,0.0
0sj1lawlpszd1lz6vql6z3wg,5,3,13,3,1,pd,1.0,23.483,1,0.0
0sj1lawlpszd1lz6vql6z3wg,6,3,31,3,2,md,1.0,15.605,1,0.0
0sj1lawlpszd1lz6vql6z3wg,7,3,58,3,1,pd,1.0,6.466,1,0.0
0sj1lawlpszd1lz6vql6z3wg,8,3,17,4,2,md,1.0,21.209,1,0.0
0sj1lawlpszd1lz6vql6z3wg,9,3,53,4,1,pd,0.0,21.385,1,0.0
0sj1lawlpszd1lz6vql6z3wg,10,3,73,4,2,md,1.0,17.454,1,0.0
0sj1lawlpszd1lz6vql6z3wg,11,3,26,5,1,pd,1.0,20.914,1,0.0
0sj1lawlpszd1lz6vql6z3wg,12,3,59,5,2,md,0.0,10.949,1,0.0
0sj1lawlpszd1lz6vql6z3wg,13,3,64,6,2,md,1.0,20.286,1,0.0
0sj1lawlpszd1lz6vql6z3wg,14,3,76,5,1,pd,1.0,13.668,1,0.0
0sj1lawlpszd1lz6vql6z3wg,15,3,21,7,1,pd,0.0,19.034,1,0.0
0sj1lawlpszd1lz6vql6z3wg,16,3,35,8,2,md,0.0,19.427,1,0.0
0u9pna4ta2ooka59scvje5yw,1,3,47,2,2,md,0.0,26.982,1,0.0
0u9pna4ta2ooka59scvje5yw,2,3,22,2,1,pd,1.0,8.389,1,0.0
0u9pna4ta2ooka59scvje5yw,3,3,51,2,1,pd,1.0,29.566,1,0.0
0u9pna4ta2ooka59scvje5yw,4,3,70,2,2,md,1.0,12.443,1,0.0
0u9pna4ta2ooka59scvje5yw,5,3,37,3,2,md,0.0,29.169,1,0.0
0u9pna4ta2ooka59scvje5yw,6,3,15,3,1,pd,1.0,15.503,1,0.0
0u9pna4ta2ooka59scvje5yw,7,3,62,3,1,pd,1.0,7.591,1,0.0
0u9pna4ta2ooka59scvje5yw,8,3,12,4,2,md,1.0,23.044,1,0.0
0u9pna4ta2ooka59scvje5yw,9,3,73,4,2,md,0.0,28.996,1,0.0
0u9pna4ta2ooka59scvje5yw,10,3,42,4,1,pd,1.0,17.501,1,0.0
0u9pna4ta2ooka59scvje5yw,11,3,74,5,2,md,0.0,10.595,1,0.0
0u9pna4ta2ooka59scvje5yw,12,3,26,5,1,pd,0.0,20.114,1,0.0
0u9pna4ta2ooka59scvje5yw,13,3,55,6,2,md,1.0,28.106,1,0.0
0u9pna4ta2ooka59scvje5yw,14,3,44,6,1,pd,1.0,28.164,1,0.0
0u9pna4ta2ooka59scvje5yw,15,3,78,7,2,md,1.0,26.71,1,0.0
0u9pna4ta2ooka59scvje5yw,16,3,24,7,1,pd,1.0,15.078,1,0.0
10qcdilmyzfhgmbx4nbygedl,1,3,19,2,2,md,1.0,5.487,1,0.0
10qcdilmyzfhgmbx4nbygedl,2,3,28,2,1,pd,0.0,7.909,1,0.0
10qcdilmyzfhgmbx4nbygedl,3,3,61,2,2,md,0.0,11.318,1,0.0
10qcdilmyzfhgmbx4nbygedl,4,3,10,3,1,pd,1.0,12.385,1,0.0
10qcdilmyzfhgmbx4nbygedl,5,3,13,3,2,md,0.0,13.366,1,0.0
10qcdilmyzfhgmbx4nbygedl,6,3,27,3,1,pd,1.0,15.937,1,0.0
10qcdilmyzfhgmbx4nbygedl,7,3,77,3,1,pd,1.0,14.591,1,0.0
10qcdilmyzfhgmbx4nbygedl,8,3,62,3,2,md,1.0,19.238,1,0.0
10qcdilmyzfhgmbx4nbygedl,9,3,72,4,1,pd,1.0,22.33,1,0.0
10qcdilmyzfhgmbx4nbygedl,10,3,23,4,2,md,1.0,16.766,1,0.0
10qcdilmyzfhgmbx4nbygedl,11,3,74,5,1,pd,0.0,11.035,1,0.0
10qcdilmyzfhgmbx4nbygedl,12,3,52,5,2,md,1.0,23.336,1,0.0
10qcdilmyzfhgmbx4nbygedl,13,3,54,6,1,pd,0.0,22.29,1,0.0
10qcdilmyzfhgmbx4nbygedl,14,3,36,6,2,md,0.0,22.847,1,0.0
10qcdilmyzfhgmbx4nbygedl,15,3,21,7,2,md,0.0,11.603,1,0.0
10qcdilmyzfhgmbx4nbygedl,16,3,66,8,1,pd,0.0,12.436,1,0.0
14asg0heo2pqnmiywh8uy4ly,1,3,47,2,2,md,1.0,20.223,1,0.0
14asg0heo2pqnmiywh8uy4ly,2,3,22,2,1,pd,1.0,10.764,1,0.0
14asg0heo2pqnmiywh8uy4ly,3,3,51,2,1,pd,1.0,19.63,1,0.0
14asg0heo2pqnmiywh8uy4ly,4,3,70,2,2,md,1.0,18.761,1,0.0
14asg0heo2pqnmiywh8uy4ly,5,3,31,3,2,md,1.0,23.679,1,0.0
14asg0heo2pqnmiywh8uy4ly,6,3,13,3,1,pd,1.0,18.4,1,0.0
14asg0heo2pqnmiywh8uy4ly,7,3,16,4,2,md,1.0,14.815,1,0.0
14asg0heo2pqnmiywh8uy4ly,8,3,69,3,1,pd,1.0,17.7,1,0.0
14asg0heo2pqnmiywh8uy4ly,9,3,53,4,1,pd,0.0,15.478,1,0.0
14asg0heo2pqnmiywh8uy4ly,10,3,73,4,2,md,1.0,27.702,1,0.0
14asg0heo2pqnmiywh8uy4ly,11,3,80,4,1,pd,1.0,17.043,1,0.0
14asg0heo2pqnmiywh8uy4ly,12,3,59,5,2,md,0.0,22.548,1,0.0
14asg0heo2pqnmiywh8uy4ly,13,3,55,6,2,md,1.0,27.261,1,0.0
14asg0heo2pqnmiywh8uy4ly,14,3,46,6,1,pd,1.0,17.615,1,0.0
14asg0heo2pqnmiywh8uy4ly,15,3,21,7,1,pd,0.0,14.08,1,0.0
14asg0heo2pqnmiywh8uy4ly,16,3,66,8,2,md,1.0,15.251,1,0.0
16eppal8mpgpv1fgz4saqd0h,1,3,47,2,2,pd,0.0,5.114,1,0.0
16eppal8mpgpv1fgz4saqd0h,2,3,6,2,1,md,0.0,12.5,1,0.0
16eppal8mpgpv1fgz4saqd0h,3,3,61,2,1,md,1.0,14.59,1,0.0
16eppal8mpgpv1fgz4saqd0h,4,3,10,3,2,pd,1.0,13.599,1,0.0
16eppal8mpgpv1fgz4saqd0h,5,3,27,3,2,pd,0.0,25.613,1,0.0
16eppal8mpgpv1fgz4saqd0h,6,3,11,3,1,md,0.0,18.444,1,0.0
16eppal8mpgpv1fgz4saqd0h,7,3,12,4,2,pd,1.0,10.392,1,0.0
16eppal8mpgpv1fgz4saqd0h,8,3,69,3,1,md,1.0,14.102,1,0.0
16eppal8mpgpv1fgz4saqd0h,9,3,79,4,2,pd,0.0,18.036,1,0.0
16eppal8mpgpv1fgz4saqd0h,10,3,40,4,1,md,0.0,10.053,1,0.0
16eppal8mpgpv1fgz4saqd0h,11,3,74,5,2,pd,0.0,13.097,1,0.0
16eppal8mpgpv1fgz4saqd0h,12,3,52,5,1,md,0.0,7.711,1,0.0
16eppal8mpgpv1fgz4saqd0h,13,3,55,6,2,pd,1.0,7.648,1,0.0
16eppal8mpgpv1fgz4saqd0h,14,3,44,6,1,md,1.0,18.333,1,0.0
16eppal8mpgpv1fgz4saqd0h,15,3,66,8,2,pd,1.0,9.49,1,0.0
16eppal8mpgpv1fgz4saqd0h,16,3,29,7,1,md,1.0,22.785,1,0.0
1993v4050stwong707xpjpem,1,3,39,2,2,pd,0.0,18.776,1,0.0
1993v4050stwong707xpjpem,2,3,20,2,1,md,1.0,19.465,1,0.0
1993v4050stwong707xpjpem,3,3,51,2,1,md,0.0,24.592,1,0.0
1993v4050stwong707xpjpem,4,3,65,2,2,pd,0.0,25.882,1,0.0
1993v4050stwong707xpjpem,5,3,18,3,1,md,0.0,21.155,1,0.0
1993v4050stwong707xpjpem,6,3,37,3,2,pd,0.0,22.947,1,0.0
1993v4050stwong707xpjpem,7,3,17,4,2,pd,1.0,24.057,1,0.0
1993v4050stwong707xpjpem,8,3,58,3,1,md,1.0,21.529,1,0.0
1993v4050stwong707xpjpem,9,3,23,4,1,md,0.0,22.018,1,0.0
1993v4050stwong707xpjpem,10,3,72,4,2,pd,0.0,28.789,1,0.0
1993v4050stwong707xpjpem,11,3,26,5,1,md,,,1,0.0
1993v4050stwong707xpjpem,12,3,63,5,2,pd,0.0,12.958,1,0.0
1993v4050stwong707xpjpem,13,3,55,6,2,pd,1.0,22.275,1,0.0
1993v4050stwong707xpjpem,14,3,36,6,1,md,0.0,23.282,1,0.0
1993v4050stwong707xpjpem,15,3,29,7,1,md,0.0,17.915,1,0.0
1993v4050stwong707xpjpem,16,3,45,7,2,pd,1.0,25.56,1,0.0
1f4ok8tfzd4w2epe4epdjmgc,1,3,28,2,1,pd,0.0,11.033,1,0.0
1f4ok8tfzd4w2epe4epdjmgc,2,3,20,2,2,md,0.0,8.034,1,0.0
1f4ok8tfzd4w2epe4epdjmgc,3,3,71,2,1,pd,1.0,11.046,1,0.0
1f4ok8tfzd4w2epe4epdjmgc,4,3,51,2,2,md,1.0,12.926,1,0.0
1f4ok8tfzd4w2epe4epdjmgc,5,3,37,3,1,pd,0.0,27.826,1,0.0
1f4ok8tfzd4w2epe4epdjmgc,6,3,13,3,2,md,1.0,12.138,1,0.0
1f4ok8tfzd4w2epe4epdjmgc,7,3,62,3,2,md,1.0,10.128,1,0.0
1f4ok8tfzd4w2epe4epdjmgc,8,3,16,4,1,pd,1.0,12.005,1,0.0
1f4ok8tfzd4w2epe4epdjmgc,9,3,60,4,1,pd,0.0,22.165,1,0.0
1f4ok8tfzd4w2epe4epdjmgc,10,3,42,4,2,md,0.0,22.064,1,0.0
1f4ok8tfzd4w2epe4epdjmgc,11,3,52,5,2,md,1.0,21.29,1,0.0
1f4ok8tfzd4w2epe4epdjmgc,12,3,74,5,1,pd,1.0,22.392,1,0.0
1f4ok8tfzd4w2epe4epdjmgc,13,3,44,6,2,md,1.0,18.163,1,0.0
1f4ok8tfzd4w2epe4epdjmgc,14,3,54,6,1,pd,0.0,17.566,1,0.0
1f4ok8tfzd4w2epe4epdjmgc,15,3,35,8,1,pd,1.0,29.18,1,0.0
1f4ok8tfzd4w2epe4epdjmgc,16,3,24,7,2,md,0.0,17.433,1,0.0
1g4j85q8ac65m5kej565zy01,1,3,25,2,2,pd,1.0,6.491,1,0.0
1g4j85q8ac65m5kej565zy01,2,3,19,2,1,md,0.0,8.174,1,0.0
1g4j85q8ac65m5kej565zy01,3,3,61,2,1,md,1.0,12.062,1,0.0
1g4j85q8ac65m5kej565zy01,4,3,71,2,2,pd,1.0,10.027,1,0.0
1g4j85q8ac65m5kej565zy01,5,3,13,3,1,md,0.0,13.827,1,0.0
1g4j85q8ac65m5kej565zy01,6,3,34,3,2,pd,1.0,14.04,1,0.0
1g4j85q8ac65m5kej565zy01,7,3,56,3,1,md,0.0,18.211,1,0.0
1g4j85q8ac65m5kej565zy01,8,3,12,4,2,pd,1.0,8.655,1,0.0
1g4j85q8ac65m5kej565zy01,9,3,60,4,2,pd,1.0,18.906,1,0.0
1g4j85q8ac65m5kej565zy01,10,3,23,4,1,md,1.0,12.934,1,0.0
1g4j85q8ac65m5kej565zy01,11,3,74,5,2,pd,1.0,12.703,1,0.0
1g4j85q8ac65m5kej565zy01,12,3,80,4,1,md,0.0,16.243,1,0.0
1g4j85q8ac65m5kej565zy01,13,3,54,6,2,pd,1.0,9.65,1,0.0
1g4j85q8ac65m5kej565zy01,14,3,46,6,1,md,0.0,15.33,1,0.0
1g4j85q8ac65m5kej565zy01,15,3,78,7,2,pd,1.0,15.884,1,0.0
1g4j85q8ac65m5kej565zy01,16,3,24,7,1,md,0.0,6.278,1,0.0
1g706fp1g62ojzs5t47qqpbt,1,3,20,2,2,pd,1.0,16.756,1,0.0
1g706fp1g62ojzs5t47qqpbt,2,3,39,2,1,md,0.0,27.815,1,0.0
1g706fp1g62ojzs5t47qqpbt,3,3,51,2,2,pd,1.0,22.306,1,0.0
1g706fp1g62ojzs5t47qqpbt,4,3,71,2,1,md,1.0,12.518,1,0.0
1g706fp1g62ojzs5t47qqpbt,5,3,31,3,1,md,0.0,28.288,1,0.0
1g706fp1g62ojzs5t47qqpbt,6,3,13,3,2,pd,1.0,17.355,1,0.0
1g706fp1g62ojzs5t47qqpbt,7,3,56,3,2,pd,1.0,27.245,1,0.0
1g706fp1g62ojzs5t47qqpbt,8,3,77,3,1,md,1.0,26.635,1,0.0
1g706fp1g62ojzs5t47qqpbt,9,3,23,4,2,pd,1.0,21.974,1,0.0
1g706fp1g62ojzs5t47qqpbt,10,3,60,4,1,md,0.0,28.494,1,0.0
1g706fp1g62ojzs5t47qqpbt,11,3,59,5,1,md,0.0,16.231,1,0.0
1g706fp1g62ojzs5t47qqpbt,12,3,26,5,2,pd,1.0,26.649,1,0.0
1g706fp1g62ojzs5t47qqpbt,13,3,55,6,1,md,1.0,16.39,1,0.0
1g706fp1g62ojzs5t47qqpbt,14,3,46,6,2,pd,1.0,16.493,1,0.0
1g706fp1g62ojzs5t47qqpbt,15,3,24,7,2,pd,1.0,17.519,1,0.0
1g706fp1g62ojzs5t47qqpbt,16,3,78,7,1,md,0.0,19.833,1,0.0
1hq0a5sv7olx9j5ab2evp9yz,1,3,22,2,1,pd,1.0,15.867,1,0.0
1hq0a5sv7olx9j5ab2evp9yz,2,3,39,2,2,md,1.0,10.596,1,0.0
1hq0a5sv7olx9j5ab2evp9yz,3,3,51,2,1,pd,1.0,13.75,1,0.0
1hq0a5sv7olx9j5ab2evp9yz,4,3,65,2,2,md,1.0,8.908,1,0.0
1hq0a5sv7olx9j5ab2evp9yz,5,3,31,3,2,md,1.0,23.2,1,0.0
1hq0a5sv7olx9j5ab2evp9yz,6,3,13,3,1,pd,0.0,26.341,1,0.0
1hq0a5sv7olx9j5ab2evp9yz,7,3,17,4,2,md,0.0,23.662,1,0.0
1hq0a5sv7olx9j5ab2evp9yz,8,3,58,3,1,pd,1.0,13.523,1,0.0
1hq0a5sv7olx9j5ab2evp9yz,9,3,53,4,1,pd,1.0,14.509,1,0.0
1hq0a5sv7olx9j5ab2evp9yz,10,3,79,4,2,md,0.0,28.975,1,0.0
1hq0a5sv7olx9j5ab2evp9yz,11,3,26,5,1,pd,1.0,22.961,1,0.0
1hq0a5sv7olx9j5ab2evp9yz,12,3,59,5,2,md,0.0,13.362,1,0.0
1hq0a5sv7olx9j5ab2evp9yz,13,3,64,6,2,md,1.0,27.971,1,0.0
1hq0a5sv7olx9j5ab2evp9yz,14,3,36,6,1,pd,0.0,29.74,1,0.0
1hq0a5sv7olx9j5ab2evp9yz,15,3,24,7,1,pd,,,1,0.0
1hq0a5sv7olx9j5ab2evp9yz,16,3,35,8,2,md,0.0,18.081,1,0.0
1lpe7v1rcx3fr2hpummtb1fs,1,3,22,2,1,md,1.0,24.368,1,0.0
1lpe7v1rcx3fr2hpummtb1fs,2,3,39,2,2,pd,1.0,28.801,1,0.0
1lpe7v1rcx3fr2hpummtb1fs,3,3,51,2,1,md,1.0,18.266,1,0.0
1lpe7v1rcx3fr2hpummtb1fs,4,3,10,3,2,pd,1.0,17.022,1,0.0
1lpe7v1rcx3fr2hpummtb1fs,5,3,37,3,2,pd,1.0,28.91,1,0.0
1lpe7v1rcx3fr2hpummtb1fs,6,3,18,3,1,md,1.0,27.034,1,0.0
1lpe7v1rcx3fr2hpummtb1fs,7,3,62,3,1,md,1.0,11.745,1,0.0
1lpe7v1rcx3fr2hpummtb1fs,8,3,12,4,2,pd,1.0,20.951,1,0.0
1lpe7v1rcx3fr2hpummtb1fs,9,3,79,4,2,pd,1.0,10.579,1,0.0
1lpe7v1rcx3fr2hpummtb1fs,10,3,23,4,1,md,1.0,23.014,1,0.0
1lpe7v1rcx3fr2hpummtb1fs,11,3,59,5,2,pd,1.0,19.734,1,0.0
1lpe7v1rcx3fr2hpummtb1fs,12,3,52,5,1,md,0.0,24.133,1,0.0
1lpe7v1rcx3fr2hpummtb1fs,13,3,36,6,1,md,0.0,26.837,1,0.0
1lpe7v1rcx3fr2hpummtb1fs,14,3,64,6,2,pd,0.0,23.685,1,0.0
1lpe7v1rcx3fr2hpummtb1fs,15,3,45,7,2,pd,1.0,21.879,1,0.0
1lpe7v1rcx3fr2hpummtb1fs,16,3,29,7,1,md,1.0,23.34,1,0.0
1naj3589qwupt0nxk4w2xmmx,1,3,22,2,2,md,0.0,3.298,1,0.0
1naj3589qwupt0nxk4w2xmmx,2,3,47,2,1,pd,0.0,12.018,1,0.0
1naj3589qwupt0nxk4w2xmmx,3,3,49,2,2,md,1.0,11.931,1,0.0
1naj3589qwupt0nxk4w2xmmx,4,3,70,2,1,pd,1.0,9.591,1,0.0
1naj3589qwupt0nxk4w2xmmx,5,3,15,3,2,md,0.0,12.777,1,0.0
1naj3589qwupt0nxk4w2xmmx,6,3,31,3,1,pd,1.0,11.0,1,0.0
1naj3589qwupt0nxk4w2xmmx,7,3,58,3,2,md,1.0,15.317,1,0.0
1naj3589qwupt0nxk4w2xmmx,8,3,17,4,1,pd,1.0,7.884,1,0.0
1naj3589qwupt0nxk4w2xmmx,9,3,79,4,1,pd,1.0,5.175,1,0.0
1naj3589qwupt0nxk4w2xmmx,10,3,40,4,2,md,0.0,12.864,1,0.0
1naj3589qwupt0nxk4w2xmmx,11,3,52,5,2,md,0.0,8.517,1,0.0
1naj3589qwupt0nxk4w2xmmx,12,3,67,5,1,pd,1.0,5.186,1,0.0
1naj3589qwupt0nxk4w2xmmx,13,3,64,6,1,pd,0.0,11.432,1,0.0
1naj3589qwupt0nxk4w2xmmx,14,3,44,6,2,md,1.0,21.382,1,0.0
1naj3589qwupt0nxk4w2xmmx,15,3,45,7,1,pd,1.0,5.78,1,0.0
1naj3589qwupt0nxk4w2xmmx,16,3,29,7,2,md,0.0,6.758,1,0.0
1u89kobgictbxh3tts4p9ovc,1,3,20,2,1,md,1.0,15.777,1,0.0
1u89kobgictbxh3tts4p9ovc,2,3,47,2,2,pd,0.0,24.988,1,0.0
1u89kobgictbxh3tts4p9ovc,3,3,65,2,2,pd,1.0,9.299,1,0.0
1u89kobgictbxh3tts4p9ovc,4,3,61,2,1,md,0.0,22.692,1,0.0
1u89kobgictbxh3tts4p9ovc,5,3,34,3,2,pd,1.0,25.585,1,0.0
1u89kobgictbxh3tts4p9ovc,6,3,18,3,1,md,0.0,28.242,1,0.0
1u89kobgictbxh3tts4p9ovc,7,3,17,4,2,pd,0.0,26.33,1,0.0
1u89kobgictbxh3tts4p9ovc,8,3,56,3,1,md,0.0,18.138,1,0.0
1u89kobgictbxh3tts4p9ovc,9,3,53,4,1,md,1.0,29.315,1,0.0
1u89kobgictbxh3tts4p9ovc,10,3,60,4,2,pd,1.0,28.242,1,0.0
1u89kobgictbxh3tts4p9ovc,11,3,80,4,1,md,1.0,14.636,1,0.0
1u89kobgictbxh3tts4p9ovc,12,3,74,5,2,pd,1.0,15.939,1,0.0
1u89kobgictbxh3tts4p9ovc,13,3,54,6,2,pd,1.0,19.538,1,0.0
1u89kobgictbxh3tts4p9ovc,14,3,46,6,1,md,0.0,22.49,1,0.0
1u89kobgictbxh3tts4p9ovc,15,3,66,8,2,pd,1.0,9.443,1,0.0
1u89kobgictbxh3tts4p9ovc,16,3,30,7,1,md,1.0,16.402,1,0.0
1y7vnm5uywcpkpjvywthival,1,3,25,2,2,md,1.0,12.369,1,0.0
1y7vnm5uywcpkpjvywthival,2,3,6,2,1,pd,0.0,8.343,1,0.0
1y7vnm5uywcpkpjvywthival,3,3,71,2,2,md,1.0,7.911,1,0.0
1y7vnm5uywcpkpjvywthival,4,3,51,2,1,pd,0.0,8.332,1,0.0
1y7vnm5uywcpkpjvywthival,5,3,37,3,2,md,0.0,15.551,1,0.0
1y7vnm5uywcpkpjvywthival,6,3,13,3,1,pd,0.0,9.819,1,0.0
1y7vnm5uywcpkpjvywthival,7,3,17,4,2,md,0.0,10.189,1,0.0
1y7vnm5uywcpkpjvywthival,8,3,62,3,1,pd,1.0,8.343,1,0.0
1y7vnm5uywcpkpjvywthival,9,3,73,4,2,md,1.0,13.073,1,0.0
1y7vnm5uywcpkpjvywthival,10,3,53,4,1,pd,1.0,8.23,1,0.0
1y7vnm5uywcpkpjvywthival,11,3,59,5,2,md,0.0,6.679,1,0.0
1y7vnm5uywcpkpjvywthival,12,3,52,5,1,pd,1.0,7.421,1,0.0
1y7vnm5uywcpkpjvywthival,13,3,44,6,1,pd,0.0,8.649,1,0.0
1y7vnm5uywcpkpjvywthival,14,3,64,6,2,md,0.0,4.473,1,0.0
1y7vnm5uywcpkpjvywthival,15,3,35,8,2,md,0.0,1.509,1,0.0
1y7vnm5uywcpkpjvywthival,16,3,21,7,1,pd,1.0,1.664,1,0.0
2hbjprxch7iah7yy5j56wi0n,1,3,20,2,1,md,1.0,10.282,1,0.0
2hbjprxch7iah7yy5j56wi0n,2,3,39,2,2,pd,1.0,25.924,1,0.0
2hbjprxch7iah7yy5j56wi0n,3,3,70,2,2,pd,1.0,8.828,1,0.0
2hbjprxch7iah7yy5j56wi0n,4,3,50,2,1,md,1.0,25.399,1,0.0
2hbjprxch7iah7yy5j56wi0n,5,3,18,3,1,md,1.0,29.151,1,0.0
2hbjprxch7iah7yy5j56wi0n,6,3,31,3,2,pd,1.0,29.514,1,0.0
2hbjprxch7iah7yy5j56wi0n,7,3,17,4,2,pd,1.0,18.658,1,0.0
2hbjprxch7iah7yy5j56wi0n,8,3,62,3,1,md,1.0,20.877,1,0.0
2hbjprxch7iah7yy5j56wi0n,9,3,42,4,1,md,0.0,17.773,1,0.0
2hbjprxch7iah7yy5j56wi0n,10,3,60,4,2,pd,1.0,19.73,1,0.0
2hbjprxch7iah7yy5j56wi0n,11,3,74,5,2,pd,0.0,1.817,1,0.0
2hbjprxch7iah7yy5j56wi0n,12,3,14,5,1,md,1.0,5.957,1,0.0
2hbjprxch7iah7yy5j56wi0n,13,3,76,5,1,md,0.0,7.754,1,0.0
2hbjprxch7iah7yy5j56wi0n,14,3,75,6,2,pd,0.0,20.618,1,0.0
2hbjprxch7iah7yy5j56wi0n,15,3,66,8,2,pd,1.0,10.56,1,0.0
2hbjprxch7iah7yy5j56wi0n,16,3,24,7,1,md,0.0,12.509,1,0.0
2jyaj21vurwztq2io1bo4wp5,1,3,6,2,2,pd,1.0,4.584,1,0.0
2jyaj21vurwztq2io1bo4wp5,2,3,28,2,1,md,1.0,6.139,1,0.0
2jyaj21vurwztq2io1bo4wp5,3,3,51,2,2,pd,1.0,7.848,1,0.0
2jyaj21vurwztq2io1bo4wp5,4,3,10,3,1,md,1.0,6.618,1,0.0
2jyaj21vurwztq2io1bo4wp5,5,3,34,3,1,md,0.0,20.339,1,0.0
2jyaj21vurwztq2io1bo4wp5,6,3,18,3,2,pd,0.0,19.294,1,0.0
2jyaj21vurwztq2io1bo4wp5,7,3,77,3,1,md,1.0,14.462,1,0.0
2jyaj21vurwztq2io1bo4wp5,8,3,69,3,2,pd,1.0,11.272,1,0.0
2jyaj21vurwztq2io1bo4wp5,9,3,23,4,2,pd,1.0,7.486,1,0.0
2jyaj21vurwztq2io1bo4wp5,10,3,60,4,1,md,0.0,21.654,1,0.0
2jyaj21vurwztq2io1bo4wp5,11,3,63,5,1,md,0.0,15.652,1,0.0
2jyaj21vurwztq2io1bo4wp5,12,3,52,5,2,pd,1.0,15.601,1,0.0
2jyaj21vurwztq2io1bo4wp5,13,3,54,6,1,md,0.0,13.726,1,0.0
2jyaj21vurwztq2io1bo4wp5,14,3,44,6,2,pd,1.0,28.191,1,0.0
2jyaj21vurwztq2io1bo4wp5,15,3,66,8,1,md,1.0,14.417,1,0.0
2jyaj21vurwztq2io1bo4wp5,16,3,21,7,2,pd,0.0,9.731,1,0.0
2k38gxnthl0z3g7ni36g086k,1,3,47,2,2,md,0.0,28.154,1,0.0
2k38gxnthl0z3g7ni36g086k,2,3,22,2,1,pd,1.0,14.33,1,0.0
2k38gxnthl0z3g7ni36g086k,3,3,71,2,2,md,1.0,10.546,1,0.0
2k38gxnthl0z3g7ni36g086k,4,3,50,2,1,pd,1.0,6.53,1,0.0
2k38gxnthl0z3g7ni36g086k,5,3,15,3,1,pd,0.0,29.774,1,0.0
2k38gxnthl0z3g7ni36g086k,6,3,31,3,2,md,1.0,17.601,1,0.0
2k38gxnthl0z3g7ni36g086k,7,3,12,4,2,md,0.0,21.98,1,0.0
2k38gxnthl0z3g7ni36g086k,8,3,58,3,1,pd,1.0,14.471,1,0.0
2k38gxnthl0z3g7ni36g086k,9,3,42,4,1,pd,1.0,27.497,1,0.0
2k38gxnthl0z3g7ni36g086k,10,3,73,4,2,md,0.0,25.599,1,0.0
2k38gxnthl0z3g7ni36g086k,11,3,26,5,1,pd,1.0,16.443,1,0.0
2k38gxnthl0z3g7ni36g086k,12,3,63,5,2,md,0.0,17.842,1,0.0
2k38gxnthl0z3g7ni36g086k,13,3,55,6,2,md,1.0,10.212,1,0.0
2k38gxnthl0z3g7ni36g086k,14,3,46,6,1,pd,1.0,26.921,1,2.0
2k38gxnthl0z3g7ni36g086k,15,3,66,8,2,md,0.0,17.095,1,0.0
2k38gxnthl0z3g7ni36g086k,16,3,29,7,1,pd,1.0,19.297,1,0.0
2kaeqgaaerdmpwoywpsxmeh7,1,3,20,2,1,md,1.0,10.167,1,0.0
2kaeqgaaerdmpwoywpsxmeh7,2,3,47,2,2,pd,0.0,15.907,1,0.0
2kaeqgaaerdmpwoywpsxmeh7,3,3,61,2,1,md,0.0,12.561,1,0.0
2kaeqgaaerdmpwoywpsxmeh7,4,3,65,2,2,pd,1.0,9.913,1,0.0
2kaeqgaaerdmpwoywpsxmeh7,5,3,37,3,2,pd,0.0,8.616,1,0.0
2kaeqgaaerdmpwoywpsxmeh7,6,3,11,3,1,md,0.0,7.794,1,0.0
2kaeqgaaerdmpwoywpsxmeh7,7,3,56,3,1,md,0.0,21.17,1,0.0
2kaeqgaaerdmpwoywpsxmeh7,8,3,77,3,2,pd,1.0,12.286,1,0.0
2kaeqgaaerdmpwoywpsxmeh7,9,3,42,4,1,md,1.0,17.013,1,0.0
2kaeqgaaerdmpwoywpsxmeh7,10,3,72,4,2,pd,1.0,15.619,1,0.0
2kaeqgaaerdmpwoywpsxmeh7,11,3,14,5,1,md,1.0,21.745,1,0.0
2kaeqgaaerdmpwoywpsxmeh7,12,3,59,5,2,pd,0.0,15.913,1,0.0
2kaeqgaaerdmpwoywpsxmeh7,13,3,54,6,2,pd,0.0,7.952,1,0.0
2kaeqgaaerdmpwoywpsxmeh7,14,3,44,6,1,md,0.0,7.904,1,0.0
2kaeqgaaerdmpwoywpsxmeh7,15,3,21,7,1,md,0.0,17.336,1,0.0
2kaeqgaaerdmpwoywpsxmeh7,16,3,78,7,2,pd,1.0,9.721,1,0.0
2lwgshkagkjxlxrdwfrwqpas,1,3,47,2,2,md,1.0,8.674,1,0.0
2lwgshkagkjxlxrdwfrwqpas,2,3,19,2,1,pd,1.0,6.996,1,0.0
2lwgshkagkjxlxrdwfrwqpas,3,3,71,2,2,md,1.0,7.815,1,0.0
2lwgshkagkjxlxrdwfrwqpas,4,3,50,2,1,pd,1.0,7.491,1,0.0
2lwgshkagkjxlxrdwfrwqpas,5,3,13,3,1,pd,1.0,19.25,1,0.0
2lwgshkagkjxlxrdwfrwqpas,6,3,31,3,2,md,1.0,17.777,1,0.0
2lwgshkagkjxlxrdwfrwqpas,7,3,69,3,1,pd,1.0,4.509,1,0.0
2lwgshkagkjxlxrdwfrwqpas,8,3,16,4,2,md,0.0,14.554,1,0.0
2lwgshkagkjxlxrdwfrwqpas,9,3,72,4,2,md,0.0,8.257,1,0.0
2lwgshkagkjxlxrdwfrwqpas,10,3,23,4,1,pd,0.0,15.351,1,0.0
2lwgshkagkjxlxrdwfrwqpas,11,3,52,5,1,pd,0.0,10.727,1,0.0
2lwgshkagkjxlxrdwfrwqpas,12,3,63,5,2,md,0.0,13.475,1,0.0
2lwgshkagkjxlxrdwfrwqpas,13,3,46,6,1,pd,0.0,15.214,1,0.0
2lwgshkagkjxlxrdwfrwqpas,14,3,54,6,2,md,1.0,7.776,1,0.0
2lwgshkagkjxlxrdwfrwqpas,15,3,21,7,1,pd,1.0,11.282,1,0.0
2lwgshkagkjxlxrdwfrwqpas,16,3,78,7,2,md,0.0,7.856,1,0.0
2lxcej2tk2tol6ie9pg9ephv,1,3,6,2,1,pd,1.0,10.634,1,0.0
2lxcej2tk2tol6ie9pg9ephv,2,3,39,2,2,md,1.0,9.67,1,0.0
2lxcej2tk2tol6ie9pg9ephv,3,3,65,2,2,md,1.0,8.32,1,0.0
2lxcej2tk2tol6ie9pg9ephv,4,3,50,2,1,pd,0.0,5.864,1,0.0
2lxcej2tk2tol6ie9pg9ephv,5,3,18,3,1,pd,1.0,8.029,1,0.0
2lxcej2tk2tol6ie9pg9ephv,6,3,31,3,2,md,1.0,19.32,1,0.0
2lxcej2tk2tol6ie9pg9ephv,7,3,69,3,1,pd,1.0,9.394,1,0.0
2lxcej2tk2tol6ie9pg9ephv,8,3,12,4,2,md,1.0,11.6,1,0.0
2lxcej2tk2tol6ie9pg9ephv,9,3,73,4,2,md,1.0,18.825,1,0.0
2lxcej2tk2tol6ie9pg9ephv,10,3,42,4,1,pd,,,1,0.0
2lxcej2tk2tol6ie9pg9ephv,11,3,52,5,1,pd,1.0,18.202,1,0.0
2lxcej2tk2tol6ie9pg9ephv,12,3,63,5,2,md,0.0,25.208,1,0.0
2lxcej2tk2tol6ie9pg9ephv,13,3,64,6,2,md,1.0,17.945,1,0.0
2lxcej2tk2tol6ie9pg9ephv,14,3,76,5,1,pd,1.0,27.208,1,0.0
2lxcej2tk2tol6ie9pg9ephv,15,3,24,7,1,pd,0.0,11.34,1,0.0
2lxcej2tk2tol6ie9pg9ephv,16,3,66,8,2,md,0.0,12.056,1,0.0
2noems6hp5m2jto7zpmavxm9,1,3,25,2,2,pd,0.0,8.16,1,0.0
2noems6hp5m2jto7zpmavxm9,2,3,22,2,1,md,1.0,11.0,1,0.0
2noems6hp5m2jto7zpmavxm9,3,3,70,2,2,pd,1.0,8.94,1,0.0
2noems6hp5m2jto7zpmavxm9,4,3,50,2,1,md,1.0,7.261,1,0.0
2noems6hp5m2jto7zpmavxm9,5,3,37,3,2,pd,1.0,19.882,1,0.0
2noems6hp5m2jto7zpmavxm9,6,3,18,3,1,md,1.0,24.613,1,0.0
2noems6hp5m2jto7zpmavxm9,7,3,16,4,2,pd,1.0,6.85,1,0.0
2noems6hp5m2jto7zpmavxm9,8,3,62,3,1,md,1.0,14.658,1,0.0
2noems6hp5m2jto7zpmavxm9,9,3,60,4,2,pd,1.0,18.95,1,0.0
2noems6hp5m2jto7zpmavxm9,10,3,23,4,1,md,1.0,11.6,1,0.0
2noems6hp5m2jto7zpmavxm9,11,3,52,5,1,md,1.0,15.82,1,0.0
2noems6hp5m2jto7zpmavxm9,12,3,67,5,2,pd,1.0,10.205,1,0.0
2noems6hp5m2jto7zpmavxm9,13,3,75,6,2,pd,0.0,18.256,1,0.0
2noems6hp5m2jto7zpmavxm9,14,3,36,6,1,md,0.0,21.964,1,0.0
2noems6hp5m2jto7zpmavxm9,15,3,29,7,1,md,1.0,22.699,1,0.0
2noems6hp5m2jto7zpmavxm9,16,3,66,8,2,pd,0.0,11.284,1,0.0
2r5alrkbf4c9mvniy12cmrrp,1,3,22,2,1,md,0.0,9.104,1,0.0
2r5alrkbf4c9mvniy12cmrrp,2,3,47,2,2,pd,0.0,16.42,1,0.0
2r5alrkbf4c9mvniy12cmrrp,3,3,10,3,2,pd,1.0,9.832,1,0.0
2r5alrkbf4c9mvniy12cmrrp,4,3,50,2,1,md,0.0,21.954,1,0.0
2r5alrkbf4c9mvniy12cmrrp,5,3,37,3,2,pd,0.0,27.011,1,0.0
2r5alrkbf4c9mvniy12cmrrp,6,3,11,3,1,md,0.0,15.039,1,0.0
2r5alrkbf4c9mvniy12cmrrp,7,3,58,3,1,md,1.0,13.394,1,0.0
2r5alrkbf4c9mvniy12cmrrp,8,3,77,3,2,pd,1.0,26.637,1,0.0
2r5alrkbf4c9mvniy12cmrrp,9,3,72,4,2,pd,0.0,14.346,1,0.0
2r5alrkbf4c9mvniy12cmrrp,10,3,40,4,1,md,1.0,19.659,1,0.0
2r5alrkbf4c9mvniy12cmrrp,11,3,67,5,2,pd,1.0,9.019,1,0.0
2r5alrkbf4c9mvniy12cmrrp,12,3,80,4,1,md,1.0,26.725,1,0.0
2r5alrkbf4c9mvniy12cmrrp,13,3,54,6,2,pd,1.0,9.146,1,0.0
2r5alrkbf4c9mvniy12cmrrp,14,3,44,6,1,md,0.0,17.004,1,0.0
2r5alrkbf4c9mvniy12cmrrp,15,3,29,7,1,md,0.0,17.111,1,0.0
2r5alrkbf4c9mvniy12cmrrp,16,3,78,7,2,pd,1.0,9.345,1,0.0
2ryo3nqynuc45ekjibgor0yp,1,3,47,2,1,md,1.0,29.61,1,0.0
2ryo3nqynuc45ekjibgor0yp,2,3,20,2,2,pd,1.0,25.187,1,0.0
2ryo3nqynuc45ekjibgor0yp,3,3,10,3,1,md,0.0,12.692,1,0.0
2ryo3nqynuc45ekjibgor0yp,4,3,49,2,2,pd,1.0,15.64,1,0.0
2ryo3nqynuc45ekjibgor0yp,5,3,34,3,1,md,1.0,27.18,1,0.0
2ryo3nqynuc45ekjibgor0yp,6,3,15,3,2,pd,1.0,15.609,1,0.0
2ryo3nqynuc45ekjibgor0yp,7,3,62,3,2,pd,1.0,16.301,1,0.0
2ryo3nqynuc45ekjibgor0yp,8,3,77,3,1,md,0.0,28.512,1,0.0
2ryo3nqynuc45ekjibgor0yp,9,3,42,4,2,pd,1.0,15.417,1,0.0
2ryo3nqynuc45ekjibgor0yp,10,3,60,4,1,md,,,1,0.0
2ryo3nqynuc45ekjibgor0yp,11,3,67,5,1,md,1.0,20.793,1,0.0
2ryo3nqynuc45ekjibgor0yp,12,3,14,5,2,pd,0.0,24.87,1,0.0
2ryo3nqynuc45ekjibgor0yp,13,3,55,6,1,md,1.0,27.983,1,0.0
2ryo3nqynuc45ekjibgor0yp,14,3,44,6,2,pd,1.0,13.983,1,0.0
2ryo3nqynuc45ekjibgor0yp,15,3,29,7,2,pd,1.0,6.154,1,0.0
2ryo3nqynuc45ekjibgor0yp,16,3,66,8,1,md,0.0,10.979,1,0.0
2s9ape6golrvhw3wahi3m3r3,1,3,28,2,2,md,1.0,25.59,1,0.0
2s9ape6golrvhw3wahi3m3r3,2,3,6,2,1,pd,1.0,14.444,1,0.0
2s9ape6golrvhw3wahi3m3r3,3,3,49,2,1,pd,1.0,8.145,1,0.0
2s9ape6golrvhw3wahi3m3r3,4,3,70,2,2,md,1.0,8.101,1,0.0
2s9ape6golrvhw3wahi3m3r3,5,3,18,3,1,pd,1.0,12.304,1,0.0
2s9ape6golrvhw3wahi3m3r3,6,3,31,3,2,md,1.0,6.382,1,0.0
2s9ape6golrvhw3wahi3m3r3,7,3,17,4,2,md,1.0,13.552,1,0.0
2s9ape6golrvhw3wahi3m3r3,8,3,56,3,1,pd,1.0,12.949,1,0.0
2s9ape6golrvhw3wahi3m3r3,9,3,40,4,1,pd,1.0,16.675,1,0.0
2s9ape6golrvhw3wahi3m3r3,10,3,72,4,2,md,1.0,13.9,1,0.0
2s9ape6golrvhw3wahi3m3r3,11,3,80,4,1,pd,1.0,19.26,1,0.0
2s9ape6golrvhw3wahi3m3r3,12,3,63,5,2,md,0.0,15.447,1,0.0
2s9ape6golrvhw3wahi3m3r3,13,3,54,6,2,md,1.0,26.48,1,0.0
2s9ape6golrvhw3wahi3m3r3,14,3,76,5,1,pd,1.0,20.581,1,0.0
2s9ape6golrvhw3wahi3m3r3,15,3,66,8,2,md,0.0,16.826,1,0.0
2s9ape6golrvhw3wahi3m3r3,16,3,24,7,1,pd,0.0,9.799,1,0.0
2upl5md6ptyi3ax9pp22y7fj,1,3,19,2,1,pd,1.0,6.785,1,0.0
2upl5md6ptyi3ax9pp22y7fj,2,3,28,2,2,md,1.0,10.81,1,0.0
2upl5md6ptyi3ax9pp22y7fj,3,3,51,2,1,pd,1.0,15.611,1,0.0
2upl5md6ptyi3ax9pp22y7fj,4,3,10,3,2,md,0.0,6.973,1,0.0
2upl5md6ptyi3ax9pp22y7fj,5,3,27,3,2,md,1.0,9.775,1,0.0
2upl5md6ptyi3ax9pp22y7fj,6,3,11,3,1,pd,1.0,10.99,1,0.0
2upl5md6ptyi3ax9pp22y7fj,7,3,12,4,2,md,1.0,23.083,1,0.0
2upl5md6ptyi3ax9pp22y7fj,8,3,69,3,1,pd,1.0,8.976,1,0.0
2upl5md6ptyi3ax9pp22y7fj,9,3,60,4,2,md,0.0,16.03,1,0.0
2upl5md6ptyi3ax9pp22y7fj,10,3,40,4,1,pd,1.0,8.482,1,0.0
2upl5md6ptyi3ax9pp22y7fj,11,3,80,4,1,pd,1.0,10.225,1,0.0
2upl5md6ptyi3ax9pp22y7fj,12,3,59,5,2,md,1.0,15.422,1,0.0
2upl5md6ptyi3ax9pp22y7fj,13,3,64,6,2,md,1.0,20.394,1,0.0
2upl5md6ptyi3ax9pp22y7fj,14,3,44,6,1,pd,1.0,8.56,1,0.0
2upl5md6ptyi3ax9pp22y7fj,15,3,21,7,1,pd,0.0,13.543,1,0.0
2upl5md6ptyi3ax9pp22y7fj,16,3,66,8,2,md,1.0,10.283,1,0.0
2v9b3eic48aqgsgtr4i3rapv,1,3,47,2,2,md,0.0,14.71,1,0.0
2v9b3eic48aqgsgtr4i3rapv,2,3,6,2,1,pd,1.0,14.346,1,0.0
2v9b3eic48aqgsgtr4i3rapv,3,3,10,3,2,md,1.0,22.893,1,0.0
2v9b3eic48aqgsgtr4i3rapv,4,3,51,2,1,pd,1.0,23.778,1,0.0
2v9b3eic48aqgsgtr4i3rapv,5,3,31,3,2,md,1.0,19.576,1,0.0
2v9b3eic48aqgsgtr4i3rapv,6,3,13,3,1,pd,1.0,3.547,1,0.0
2v9b3eic48aqgsgtr4i3rapv,7,3,17,4,2,md,1.0,22.015,1,0.0
2v9b3eic48aqgsgtr4i3rapv,8,3,56,3,1,pd,1.0,13.834,1,0.0
2v9b3eic48aqgsgtr4i3rapv,9,3,53,4,1,pd,1.0,17.801,1,0.0
2v9b3eic48aqgsgtr4i3rapv,10,3,73,4,2,md,0.0,20.817,1,0.0
2v9b3eic48aqgsgtr4i3rapv,11,3,67,5,2,md,0.0,28.772,1,0.0
2v9b3eic48aqgsgtr4i3rapv,12,3,26,5,1,pd,0.0,8.286,1,0.0
2v9b3eic48aqgsgtr4i3rapv,13,3,76,5,1,pd,1.0,22.23,1,0.0
2v9b3eic48aqgsgtr4i3rapv,14,3,55,6,2,md,1.0,17.574,1,0.0
2v9b3eic48aqgsgtr4i3rapv,15,3,29,7,1,pd,1.0,20.193,1,0.0
2v9b3eic48aqgsgtr4i3rapv,16,3,45,7,2,md,0.0,22.406,1,0.0
2xovrvkaxpz9tip2r8wsuig6,1,3,25,2,1,md,1.0,12.201,1,0.0
2xovrvkaxpz9tip2r8wsuig6,2,3,22,2,2,pd,1.0,4.704,1,0.0
2xovrvkaxpz9tip2r8wsuig6,3,3,70,2,1,md,1.0,7.309,1,0.0
2xovrvkaxpz9tip2r8wsuig6,4,3,51,2,2,pd,1.0,6.657,1,0.0
2xovrvkaxpz9tip2r8wsuig6,5,3,27,3,1,md,0.0,16.143,1,0.0
2xovrvkaxpz9tip2r8wsuig6,6,3,11,3,2,pd,0.0,9.232,1,0.0
2xovrvkaxpz9tip2r8wsuig6,7,3,12,4,1,md,1.0,15.182,1,0.0
2xovrvkaxpz9tip2r8wsuig6,8,3,62,3,2,pd,1.0,12.29,1,0.0
2xovrvkaxpz9tip2r8wsuig6,9,3,73,4,1,md,0.0,9.347,1,0.0
2xovrvkaxpz9tip2r8wsuig6,10,3,40,4,2,pd,0.0,6.276,1,0.0
2xovrvkaxpz9tip2r8wsuig6,11,3,80,4,2,pd,0.0,8.329,1,0.0
2xovrvkaxpz9tip2r8wsuig6,12,3,59,5,1,md,1.0,9.466,1,0.0
2xovrvkaxpz9tip2r8wsuig6,13,3,55,6,1,md,0.0,4.667,1,0.0
2xovrvkaxpz9tip2r8wsuig6,14,3,44,6,2,pd,0.0,7.745,1,0.0
2xovrvkaxpz9tip2r8wsuig6,15,3,24,7,2,pd,0.0,4.816,1,0.0
2xovrvkaxpz9tip2r8wsuig6,16,3,66,8,1,md,0.0,5.322,1,0.0
2yzqza7zsurmv8eryo1mz7rs,1,3,25,2,2,md,1.0,13.559,1,0.0
2yzqza7zsurmv8eryo1mz7rs,2,3,22,2,1,pd,1.0,2.716,1,0.0
2yzqza7zsurmv8eryo1mz7rs,3,3,65,2,2,md,0.0,15.501,1,0.0
2yzqza7zsurmv8eryo1mz7rs,4,3,61,2,1,pd,1.0,10.47,1,0.0
2yzqza7zsurmv8eryo1mz7rs,5,3,15,3,1,pd,0.0,15.99,1,0.0
2yzqza7zsurmv8eryo1mz7rs,6,3,27,3,2,md,0.0,27.013,1,0.0
2yzqza7zsurmv8eryo1mz7rs,7,3,58,3,1,pd,1.0,7.389,1,0.0
2yzqza7zsurmv8eryo1mz7rs,8,3,12,4,2,md,0.0,26.937,1,0.0
2yzqza7zsurmv8eryo1mz7rs,9,3,79,4,2,md,0.0,23.272,1,0.0
2yzqza7zsurmv8eryo1mz7rs,10,3,53,4,1,pd,0.0,11.059,1,0.0
2yzqza7zsurmv8eryo1mz7rs,11,3,52,5,1,pd,0.0,11.458,1,0.0
2yzqza7zsurmv8eryo1mz7rs,12,3,59,5,2,md,0.0,7.04,1,0.0
2yzqza7zsurmv8eryo1mz7rs,13,3,54,6,2,md,0.0,8.446,1,0.0
2yzqza7zsurmv8eryo1mz7rs,14,3,46,6,1,pd,0.0,11.816,1,0.0
2yzqza7zsurmv8eryo1mz7rs,15,3,66,8,2,md,1.0,9.937,1,0.0
2yzqza7zsurmv8eryo1mz7rs,16,3,21,7,1,pd,0.0,7.914,1,0.0
33vgnwo4ptzhp430sqai90mc,1,3,22,2,1,pd,1.0,4.878,1,0.0
33vgnwo4ptzhp430sqai90mc,2,3,25,2,2,md,1.0,7.248,1,0.0
33vgnwo4ptzhp430sqai90mc,3,3,50,2,1,pd,1.0,6.173,1,0.0
33vgnwo4ptzhp430sqai90mc,4,3,65,2,2,md,1.0,6.847,1,0.0
33vgnwo4ptzhp430sqai90mc,5,3,18,3,1,pd,1.0,8.071,1,0.0
33vgnwo4ptzhp430sqai90mc,6,3,37,3,2,md,0.0,12.393,1,0.0
33vgnwo4ptzhp430sqai90mc,7,3,77,3,2,md,1.0,9.742,1,0.0
33vgnwo4ptzhp430sqai90mc,8,3,58,3,1,pd,1.0,11.723,1,0.0
33vgnwo4ptzhp430sqai90mc,9,3,53,4,1,pd,1.0,12.453,1,0.0
33vgnwo4ptzhp430sqai90mc,10,3,60,4,2,md,0.0,17.833,1,0.0
33vgnwo4ptzhp430sqai90mc,11,3,74,5,2,md,0.0,16.307,1,0.0
33vgnwo4ptzhp430sqai90mc,12,3,80,4,1,pd,1.0,8.362,1,0.0
33vgnwo4ptzhp430sqai90mc,13,3,54,6,2,md,1.0,19.525,1,0.0
33vgnwo4ptzhp430sqai90mc,14,3,76,5,1,pd,0.0,8.938,1,0.0
33vgnwo4ptzhp430sqai90mc,15,3,24,7,1,pd,0.0,9.487,1,0.0
33vgnwo4ptzhp430sqai90mc,16,3,66,8,2,md,1.0,14.088,1,0.0
35i1vwqxvv43ark5es4ehs0y,1,3,28,2,2,pd,1.0,26.744,1,0.0
35i1vwqxvv43ark5es4ehs0y,2,3,19,2,1,md,0.0,16.094,1,0.0
35i1vwqxvv43ark5es4ehs0y,3,3,70,2,2,pd,1.0,15.219,1,0.0
35i1vwqxvv43ark5es4ehs0y,4,3,50,2,1,md,1.0,13.235,1,0.0
35i1vwqxvv43ark5es4ehs0y,5,3,11,3,1,md,0.0,25.638,1,0.0
35i1vwqxvv43ark5es4ehs0y,6,3,31,3,2,pd,1.0,27.496,1,0.0
35i1vwqxvv43ark5es4ehs0y,7,3,16,4,2,pd,1.0,9.477,1,0.0
35i1vwqxvv43ark5es4ehs0y,8,3,62,3,1,md,1.0,14.049,1,0.0
35i1vwqxvv43ark5es4ehs0y,9,3,53,4,1,md,0.0,23.739,1,0.0
35i1vwqxvv43ark5es4ehs0y,10,3,73,4,2,pd,0.0,27.517,1,0.0
35i1vwqxvv43ark5es4ehs0y,11,3,59,5,2,pd,0.0,26.851,1,0.0
35i1vwqxvv43ark5es4ehs0y,12,3,14,5,1,md,0.0,26.778,1,0.0
35i1vwqxvv43ark5es4ehs0y,13,3,64,6,2,pd,0.0,1.438,1,0.0
35i1vwqxvv43ark5es4ehs0y,14,3,36,6,1,md,1.0,27.511,1,0.0
35i1vwqxvv43ark5es4ehs0y,15,3,21,7,1,md,0.0,11.072,1,0.0
35i1vwqxvv43ark5es4ehs0y,16,3,45,7,2,pd,1.0,19.546,1,0.0
374y9fwt2b00n99yi3ofx4qb,1,3,39,2,2,pd,,,1,0.0
374y9fwt2b00n99yi3ofx4qb,2,3,6,2,1,md,0.0,6.003,1,0.0
374y9fwt2b00n99yi3ofx4qb,3,3,70,2,2,pd,0.0,4.586,1,0.0
374y9fwt2b00n99yi3ofx4qb,4,3,61,2,1,md,1.0,11.384,1,0.0
374y9fwt2b00n99yi3ofx4qb,5,3,15,3,1,md,0.0,11.062,1,0.0
374y9fwt2b00n99yi3ofx4qb,6,3,27,3,2,pd,0.0,12.575,1,0.0
374y9fwt2b00n99yi3ofx4qb,7,3,77,3,2,pd,0.0,9.66,1,0.0
374y9fwt2b00n99yi3ofx4qb,8,3,69,3,1,md,0.0,7.951,1,0.0
374y9fwt2b00n99yi3ofx4qb,9,3,79,4,2,pd,0.0,13.306,1,0.0
374y9fwt2b00n99yi3ofx4qb,10,3,40,4,1,md,0.0,7.788,1,0.0
374y9fwt2b00n99yi3ofx4qb,11,3,74,5,2,pd,0.0,11.291,1,0.0
374y9fwt2b00n99yi3ofx4qb,12,3,80,4,1,md,0.0,12.18,1,0.0
374y9fwt2b00n99yi3ofx4qb,13,3,55,6,2,pd,1.0,11.784,1,0.0
374y9fwt2b00n99yi3ofx4qb,14,3,46,6,1,md,1.0,10.425,1,0.0
374y9fwt2b00n99yi3ofx4qb,15,3,30,7,1,md,0.0,13.621,1,0.0
374y9fwt2b00n99yi3ofx4qb,16,3,45,7,2,pd,1.0,3.972,1,0.0
39i7gcci8k1p1p0swddsw7qi,1,3,22,2,1,md,0.0,5.308,1,0.0
39i7gcci8k1p1p0swddsw7qi,2,3,39,2,2,pd,0.0,13.147,1,0.0
39i7gcci8k1p1p0swddsw7qi,3,3,10,3,2,pd,0.0,5.05,1,0.0
39i7gcci8k1p1p0swddsw7qi,4,3,50,2,1,md,1.0,26.526,1,0.0
39i7gcci8k1p1p0swddsw7qi,5,3,27,3,2,pd,1.0,25.675,1,0.0
39i7gcci8k1p1p0swddsw7qi,6,3,11,3,1,md,0.0,13.657,1,0.0
39i7gcci8k1p1p0swddsw7qi,7,3,17,4,2,pd,0.0,22.639,1,0.0
39i7gcci8k1p1p0swddsw7qi,8,3,56,3,1,md,0.0,22.476,1,0.0
39i7gcci8k1p1p0swddsw7qi,9,3,53,4,1,md,0.0,17.786,1,0.0
39i7gcci8k1p1p0swddsw7qi,10,3,60,4,2,pd,1.0,27.122,1,0.0
39i7gcci8k1p1p0swddsw7qi,11,3,59,5,2,pd,0.0,26.787,1,0.0
39i7gcci8k1p1p0swddsw7qi,12,3,80,4,1,md,0.0,25.788,1,0.0
39i7gcci8k1p1p0swddsw7qi,13,3,46,6,1,md,1.0,26.886,1,0.0
39i7gcci8k1p1p0swddsw7qi,14,3,75,6,2,pd,0.0,11.089,1,0.0
39i7gcci8k1p1p0swddsw7qi,15,3,78,7,2,pd,1.0,19.118,1,0.0
39i7gcci8k1p1p0swddsw7qi,16,3,30,7,1,md,0.0,14.645,1,0.0
3abvws8gbp1d26tmli4e6a4t,1,3,6,2,1,md,1.0,7.253,1,0.0
3abvws8gbp1d26tmli4e6a4t,2,3,47,2,2,pd,0.0,21.697,1,0.0
3abvws8gbp1d26tmli4e6a4t,3,3,61,2,1,md,1.0,15.975,1,0.0
3abvws8gbp1d26tmli4e6a4t,4,3,10,3,2,pd,1.0,20.386,1,0.0
3abvws8gbp1d26tmli4e6a4t,5,3,31,3,2,pd,1.0,15.79,1,0.0
3abvws8gbp1d26tmli4e6a4t,6,3,13,3,1,md,0.0,3.342,1,0.0
3abvws8gbp1d26tmli4e6a4t,7,3,17,4,2,pd,1.0,17.18,1,0.0
3abvws8gbp1d26tmli4e6a4t,8,3,69,3,1,md,0.0,19.424,1,0.0
3abvws8gbp1d26tmli4e6a4t,9,3,79,4,2,pd,0.0,4.698,1,0.0
3abvws8gbp1d26tmli4e6a4t,10,3,23,4,1,md,1.0,21.647,1,0.0
3abvws8gbp1d26tmli4e6a4t,11,3,74,5,2,pd,0.0,2.285,1,0.0
3abvws8gbp1d26tmli4e6a4t,12,3,52,5,1,md,0.0,20.897,1,0.0
3abvws8gbp1d26tmli4e6a4t,13,3,55,6,2,pd,0.0,18.33,1,0.0
3abvws8gbp1d26tmli4e6a4t,14,3,76,5,1,md,0.0,23.866,1,0.0
3abvws8gbp1d26tmli4e6a4t,15,3,45,7,2,pd,1.0,19.613,1,0.0
3abvws8gbp1d26tmli4e6a4t,16,3,30,7,1,md,1.0,24.444,1,0.0
3hrldrezqnbmcz7wsfqpk444,1,3,22,2,1,pd,1.0,12.354,1,0.0
3hrldrezqnbmcz7wsfqpk444,2,3,39,2,2,md,1.0,21.157,1,0.0
3hrldrezqnbmcz7wsfqpk444,3,3,71,2,2,md,1.0,20.276,1,0.0
3hrldrezqnbmcz7wsfqpk444,4,3,49,2,1,pd,1.0,10.646,1,0.0
3hrldrezqnbmcz7wsfqpk444,5,3,27,3,2,md,0.0,28.319,1,0.0
3hrldrezqnbmcz7wsfqpk444,6,3,13,3,1,pd,1.0,24.317,1,0.0
3hrldrezqnbmcz7wsfqpk444,7,3,62,3,1,pd,1.0,21.969,1,0.0
3hrldrezqnbmcz7wsfqpk444,8,3,77,3,2,md,0.0,29.838,1,0.0
3hrldrezqnbmcz7wsfqpk444,9,3,42,4,1,pd,,,1,0.0
3hrldrezqnbmcz7wsfqpk444,10,3,60,4,2,md,0.0,19.937,1,0.0
3hrldrezqnbmcz7wsfqpk444,11,3,67,5,2,md,0.0,25.885,1,0.0
3hrldrezqnbmcz7wsfqpk444,12,3,80,4,1,pd,1.0,17.296,1,0.0
3hrldrezqnbmcz7wsfqpk444,13,3,36,6,1,pd,1.0,29.741,1,0.0
3hrldrezqnbmcz7wsfqpk444,14,3,54,6,2,md,1.0,17.823,1,0.0
3hrldrezqnbmcz7wsfqpk444,15,3,21,7,1,pd,1.0,16.27,1,0.0
3hrldrezqnbmcz7wsfqpk444,16,3,45,7,2,md,1.0,24.791,1,0.0
3i5irx9r0mj1u7jsd4eal9gx,1,3,19,2,2,md,1.0,12.483,1,0.0
3i5irx9r0mj1u7jsd4eal9gx,2,3,47,2,1,pd,0.0,10.319,1,0.0
3i5irx9r0mj1u7jsd4eal9gx,3,3,61,2,2,md,1.0,13.936,1,0.0
3i5irx9r0mj1u7jsd4eal9gx,4,3,71,2,1,pd,1.0,13.678,1,0.0
3i5irx9r0mj1u7jsd4eal9gx,5,3,11,3,2,md,0.0,29.301,1,0.0
3i5irx9r0mj1u7jsd4eal9gx,6,3,34,3,1,pd,1.0,8.797,1,0.0
3i5irx9r0mj1u7jsd4eal9gx,7,3,16,4,1,pd,1.0,5.872,1,0.0
3i5irx9r0mj1u7jsd4eal9gx,8,3,58,3,2,md,1.0,10.173,1,0.0
3i5irx9r0mj1u7jsd4eal9gx,9,3,72,4,1,pd,1.0,18.58,1,0.0
3i5irx9r0mj1u7jsd4eal9gx,10,3,42,4,2,md,1.0,22.358,1,0.0
3i5irx9r0mj1u7jsd4eal9gx,11,3,74,5,1,pd,0.0,14.399,1,0.0
3i5irx9r0mj1u7jsd4eal9gx,12,3,14,5,2,md,0.0,20.744,1,0.0
3i5irx9r0mj1u7jsd4eal9gx,13,3,64,6,1,pd,1.0,24.649,1,0.0
3i5irx9r0mj1u7jsd4eal9gx,14,3,44,6,2,md,0.0,6.622,1,0.0
3i5irx9r0mj1u7jsd4eal9gx,15,3,66,8,1,pd,0.0,14.444,1,1.0
3i5irx9r0mj1u7jsd4eal9gx,16,3,24,7,2,md,1.0,13.212,1,0.0
3lbs4rayaxcbl7hqxk7spw6s,1,3,19,2,2,md,1.0,11.696,1,0.0
3lbs4rayaxcbl7hqxk7spw6s,2,3,25,2,1,pd,1.0,12.069,1,0.0
3lbs4rayaxcbl7hqxk7spw6s,3,3,65,2,1,pd,1.0,8.895,1,0.0
3lbs4rayaxcbl7hqxk7spw6s,4,3,50,2,2,md,0.0,5.935,1,0.0
3lbs4rayaxcbl7hqxk7spw6s,5,3,37,3,1,pd,1.0,8.366,1,0.0
3lbs4rayaxcbl7hqxk7spw6s,6,3,15,3,2,md,1.0,12.175,1,0.0
3lbs4rayaxcbl7hqxk7spw6s,7,3,12,4,1,pd,0.0,11.655,1,0.0
3lbs4rayaxcbl7hqxk7spw6s,8,3,69,3,2,md,1.0,7.468,1,0.0
3lbs4rayaxcbl7hqxk7spw6s,9,3,42,4,2,md,1.0,9.487,1,0.0
3lbs4rayaxcbl7hqxk7spw6s,10,3,73,4,1,pd,1.0,11.783,1,0.0
3lbs4rayaxcbl7hqxk7spw6s,11,3,59,5,1,pd,0.0,4.615,1,0.0
3lbs4rayaxcbl7hqxk7spw6s,12,3,52,5,2,md,0.0,6.175,1,0.0
3lbs4rayaxcbl7hqxk7spw6s,13,3,44,6,2,md,0.0,9.991,1,0.0
3lbs4rayaxcbl7hqxk7spw6s,14,3,55,6,1,pd,1.0,5.823,1,0.0
3lbs4rayaxcbl7hqxk7spw6s,15,3,24,7,2,md,0.0,7.079,1,0.0
3lbs4rayaxcbl7hqxk7spw6s,16,3,66,8,1,pd,0.0,7.815,1,0.0
3mlg5gieakg52hh4kb0xgrbx,1,3,20,2,1,pd,1.0,23.579,1,0.0
3mlg5gieakg52hh4kb0xgrbx,2,3,28,2,2,md,1.0,15.981,1,0.0
3mlg5gieakg52hh4kb0xgrbx,3,3,49,2,1,pd,1.0,18.882,1,0.0
3mlg5gieakg52hh4kb0xgrbx,4,3,71,2,2,md,0.0,8.248,1,0.0
3mlg5gieakg52hh4kb0xgrbx,5,3,37,3,2,md,0.0,28.926,1,0.0
3mlg5gieakg52hh4kb0xgrbx,6,3,13,3,1,pd,0.0,14.193,1,0.0
3mlg5gieakg52hh4kb0xgrbx,7,3,62,3,1,pd,1.0,15.824,1,0.0
3mlg5gieakg52hh4kb0xgrbx,8,3,12,4,2,md,0.0,15.468,1,0.0
3mlg5gieakg52hh4kb0xgrbx,9,3,72,4,2,md,0.0,28.005,1,0.0
3mlg5gieakg52hh4kb0xgrbx,10,3,53,4,1,pd,0.0,11.819,1,0.0
3mlg5gieakg52hh4kb0xgrbx,11,3,63,5,2,md,0.0,18.761,1,0.0
3mlg5gieakg52hh4kb0xgrbx,12,3,14,5,1,pd,0.0,27.267,1,0.0
3mlg5gieakg52hh4kb0xgrbx,13,3,64,6,2,md,1.0,20.746,1,0.0
3mlg5gieakg52hh4kb0xgrbx,14,3,46,6,1,pd,1.0,17.056,1,0.0
3mlg5gieakg52hh4kb0xgrbx,15,3,24,7,1,pd,0.0,11.262,1,0.0
3mlg5gieakg52hh4kb0xgrbx,16,3,78,7,2,md,1.0,12.723,1,0.0
3op34p5re2dqxm85smzsl7o7,1,3,25,2,1,pd,1.0,9.776,1,0.0
3op34p5re2dqxm85smzsl7o7,2,3,22,2,2,md,1.0,8.882,1,0.0
3op34p5re2dqxm85smzsl7o7,3,3,50,2,2,md,1.0,8.967,1,0.0
3op34p5re2dqxm85smzsl7o7,4,3,65,2,1,pd,1.0,7.83,1,0.0
3op34p5re2dqxm85smzsl7o7,5,3,18,3,2,md,1.0,26.034,1,0.0
3op34p5re2dqxm85smzsl7o7,6,3,37,3,1,pd,,,1,0.0
3op34p5re2dqxm85smzsl7o7,7,3,56,3,2,md,1.0,27.6,1,0.0
3op34p5re2dqxm85smzsl7o7,8,3,17,4,1,pd,1.0,26.147,1,0.0
3op34p5re2dqxm85smzsl7o7,9,3,73,4,1,pd,1.0,22.873,1,0.0
3op34p5re2dqxm85smzsl7o7,10,3,40,4,2,md,0.0,14.401,1,0.0
3op34p5re2dqxm85smzsl7o7,11,3,63,5,1,pd,0.0,25.145,1,0.0
3op34p5re2dqxm85smzsl7o7,12,3,14,5,2,md,,,1,0.0
3op34p5re2dqxm85smzsl7o7,13,3,54,6,1,pd,1.0,25.801,1,0.0
3op34p5re2dqxm85smzsl7o7,14,3,36,6,2,md,1.0,27.397,1,0.0
3op34p5re2dqxm85smzsl7o7,15,3,78,7,1,pd,0.0,29.632,1,0.0
3op34p5re2dqxm85smzsl7o7,16,3,21,7,2,md,0.0,22.184,1,0.0
3r2ifq00z06hun105tincwcm,1,3,19,2,2,md,0.0,8.307,1,0.0
3r2ifq00z06hun105tincwcm,2,3,25,2,1,pd,0.0,3.454,1,0.0
3r2ifq00z06hun105tincwcm,3,3,70,2,1,pd,1.0,4.516,1,0.0
3r2ifq00z06hun105tincwcm,4,3,51,2,2,md,0.0,6.313,1,0.0
3r2ifq00z06hun105tincwcm,5,3,13,3,2,md,0.0,12.994,1,0.0
3r2ifq00z06hun105tincwcm,6,3,37,3,1,pd,1.0,17.313,1,0.0
3r2ifq00z06hun105tincwcm,7,3,69,3,2,md,1.0,10.651,1,0.0
3r2ifq00z06hun105tincwcm,8,3,77,3,1,pd,1.0,12.164,1,0.0
3r2ifq00z06hun105tincwcm,9,3,23,4,2,md,1.0,12.28,1,0.0
3r2ifq00z06hun105tincwcm,10,3,72,4,1,pd,1.0,15.974,1,0.0
3r2ifq00z06hun105tincwcm,11,3,26,5,2,md,0.0,22.85,1,0.0
3r2ifq00z06hun105tincwcm,12,3,67,5,1,pd,1.0,5.442,1,0.0
3r2ifq00z06hun105tincwcm,13,3,36,6,2,md,1.0,26.949,1,0.0
3r2ifq00z06hun105tincwcm,14,3,54,6,1,pd,0.0,8.62,1,0.0
3r2ifq00z06hun105tincwcm,15,3,30,7,2,md,0.0,16.42,1,0.0
3r2ifq00z06hun105tincwcm,16,3,78,7,1,pd,1.0,18.195,1,0.0
3ryh9gpnd9mp6935pdj9x6u7,1,3,47,2,1,md,0.0,17.807,1,0.0
3ryh9gpnd9mp6935pdj9x6u7,2,3,6,2,2,pd,1.0,9.424,1,0.0
3ryh9gpnd9mp6935pdj9x6u7,3,3,51,2,2,pd,1.0,10.165,1,0.0
3ryh9gpnd9mp6935pdj9x6u7,4,3,70,2,1,md,1.0,9.394,1,0.0
3ryh9gpnd9mp6935pdj9x6u7,5,3,31,3,1,md,0.0,29.872,1,0.0
3ryh9gpnd9mp6935pdj9x6u7,6,3,18,3,2,pd,0.0,26.246,1,0.0
3ryh9gpnd9mp6935pdj9x6u7,7,3,62,3,2,pd,1.0,13.637,1,0.0
3ryh9gpnd9mp6935pdj9x6u7,8,3,77,3,1,md,1.0,12.431,1,0.0
3ryh9gpnd9mp6935pdj9x6u7,9,3,79,4,1,md,0.0,25.795,1,0.0
3ryh9gpnd9mp6935pdj9x6u7,10,3,23,4,2,pd,1.0,12.972,1,0.0
3ryh9gpnd9mp6935pdj9x6u7,11,3,52,5,2,pd,1.0,12.44,1,0.0
3ryh9gpnd9mp6935pdj9x6u7,12,3,67,5,1,md,1.0,24.201,1,0.0
3ryh9gpnd9mp6935pdj9x6u7,13,3,36,6,2,pd,1.0,21.387,1,0.0
3ryh9gpnd9mp6935pdj9x6u7,14,3,75,6,1,md,1.0,27.474,1,0.0
3ryh9gpnd9mp6935pdj9x6u7,15,3,21,7,2,pd,1.0,16.139,1,0.0
3ryh9gpnd9mp6935pdj9x6u7,16,3,66,8,1,md,1.0,25.711,1,0.0
3sf7bhi9na56hcqeqo68gpgl,1,3,19,2,2,md,0.0,4.266,1,0.0
3sf7bhi9na56hcqeqo68gpgl,2,3,47,2,1,pd,1.0,14.626,1,0.0
3sf7bhi9na56hcqeqo68gpgl,3,3,70,2,1,pd,1.0,8.061,1,0.0
3sf7bhi9na56hcqeqo68gpgl,4,3,49,2,2,md,1.0,7.27,1,0.0
3sf7bhi9na56hcqeqo68gpgl,5,3,34,3,1,pd,0.0,17.21,1,0.0
3sf7bhi9na56hcqeqo68gpgl,6,3,15,3,2,md,1.0,20.849,1,0.0
3sf7bhi9na56hcqeqo68gpgl,7,3,69,3,2,md,1.0,15.386,1,0.0
3sf7bhi9na56hcqeqo68gpgl,8,3,17,4,1,pd,1.0,10.12,1,0.0
3sf7bhi9na56hcqeqo68gpgl,9,3,60,4,1,pd,0.0,25.684,1,0.0
3sf7bhi9na56hcqeqo68gpgl,10,3,40,4,2,md,0.0,20.973,1,0.0
3sf7bhi9na56hcqeqo68gpgl,11,3,80,4,2,md,1.0,12.962,1,0.0
3sf7bhi9na56hcqeqo68gpgl,12,3,63,5,1,pd,0.0,26.021,1,0.0
3sf7bhi9na56hcqeqo68gpgl,13,3,55,6,1,pd,1.0,19.323,1,0.0
3sf7bhi9na56hcqeqo68gpgl,14,3,44,6,2,md,0.0,11.932,1,0.0
3sf7bhi9na56hcqeqo68gpgl,15,3,45,7,1,pd,1.0,9.07,1,0.0
3sf7bhi9na56hcqeqo68gpgl,16,3,24,7,2,md,0.0,12.811,1,0.0
3z2z4oqvsyxn2lwrqjavmvfm,1,3,25,2,1,pd,1.0,5.746,1,0.0
3z2z4oqvsyxn2lwrqjavmvfm,2,3,20,2,2,md,1.0,8.634,1,0.0
3z2z4oqvsyxn2lwrqjavmvfm,3,3,70,2,1,pd,1.0,3.803,1,0.0
3z2z4oqvsyxn2lwrqjavmvfm,4,3,61,2,2,md,0.0,9.289,1,0.0
3z2z4oqvsyxn2lwrqjavmvfm,5,3,34,3,1,pd,1.0,19.862,1,0.0
3z2z4oqvsyxn2lwrqjavmvfm,6,3,15,3,2,md,1.0,27.106,1,0.0
3z2z4oqvsyxn2lwrqjavmvfm,7,3,69,3,2,md,0.0,12.642,1,0.0
3z2z4oqvsyxn2lwrqjavmvfm,8,3,17,4,1,pd,1.0,12.049,1,0.0
3z2z4oqvsyxn2lwrqjavmvfm,9,3,53,4,2,md,1.0,17.224,1,0.0
3z2z4oqvsyxn2lwrqjavmvfm,10,3,79,4,1,pd,1.0,22.94,1,0.0
3z2z4oqvsyxn2lwrqjavmvfm,11,3,63,5,1,pd,1.0,28.766,1,0.0
3z2z4oqvsyxn2lwrqjavmvfm,12,3,14,5,2,md,1.0,19.475,1,0.0
3z2z4oqvsyxn2lwrqjavmvfm,13,3,54,6,1,pd,0.0,20.04,1,0.0
3z2z4oqvsyxn2lwrqjavmvfm,14,3,44,6,2,md,0.0,13.482,1,0.0
3z2z4oqvsyxn2lwrqjavmvfm,15,3,30,7,2,md,1.0,24.015,1,0.0
3z2z4oqvsyxn2lwrqjavmvfm,16,3,66,8,1,pd,1.0,22.044,1,0.0
3zxobbu2jzlvm8lhki7czl8t,1,3,19,2,2,pd,1.0,11.279,1,0.0
3zxobbu2jzlvm8lhki7czl8t,2,3,25,2,1,md,1.0,17.742,1,0.0
3zxobbu2jzlvm8lhki7czl8t,3,3,70,2,1,md,1.0,9.971,1,0.0
3zxobbu2jzlvm8lhki7czl8t,4,3,51,2,2,pd,1.0,12.59,1,0.0
3zxobbu2jzlvm8lhki7czl8t,5,3,27,3,1,md,1.0,17.746,1,0.0
3zxobbu2jzlvm8lhki7czl8t,6,3,15,3,2,pd,1.0,17.295,1,0.0
3zxobbu2jzlvm8lhki7czl8t,7,3,17,4,1,md,1.0,15.154,1,0.0
3zxobbu2jzlvm8lhki7czl8t,8,3,62,3,2,pd,1.0,17.566,1,0.0
3zxobbu2jzlvm8lhki7czl8t,9,3,23,4,2,pd,1.0,11.232,1,0.0
3zxobbu2jzlvm8lhki7czl8t,10,3,60,4,1,md,,,1,0.0
3zxobbu2jzlvm8lhki7czl8t,11,3,67,5,1,md,1.0,17.223,1,0.0
3zxobbu2jzlvm8lhki7czl8t,12,3,80,4,2,pd,1.0,18.208,1,0.0
3zxobbu2jzlvm8lhki7czl8t,13,3,36,6,2,pd,1.0,17.974,1,0.0
3zxobbu2jzlvm8lhki7czl8t,14,3,55,6,1,md,0.0,12.066,1,0.0
3zxobbu2jzlvm8lhki7czl8t,15,3,35,8,1,md,1.0,10.958,1,0.0
3zxobbu2jzlvm8lhki7czl8t,16,3,21,7,2,pd,1.0,14.311,1,0.0
47rjc265202ngfb9rcn5q489,1,3,6,2,2,pd,1.0,5.068,1,0.0
47rjc265202ngfb9rcn5q489,2,3,39,2,1,md,0.0,25.855,1,0.0
47rjc265202ngfb9rcn5q489,3,3,61,2,2,pd,0.0,14.962,1,0.0
47rjc265202ngfb9rcn5q489,4,3,10,3,1,md,0.0,9.021,1,0.0
47rjc265202ngfb9rcn5q489,5,3,13,3,2,pd,0.0,13.384,1,0.0
47rjc265202ngfb9rcn5q489,6,3,34,3,1,md,0.0,14.026,1,0.0
47rjc265202ngfb9rcn5q489,7,3,17,4,1,md,1.0,19.336,1,0.0
47rjc265202ngfb9rcn5q489,8,3,69,3,2,pd,0.0,1.747,1,0.0
47rjc265202ngfb9rcn5q489,9,3,60,4,1,md,0.0,12.569,1,0.0
47rjc265202ngfb9rcn5q489,10,3,40,4,2,pd,1.0,8.493,1,0.0
47rjc265202ngfb9rcn5q489,11,3,80,4,2,pd,0.0,11.526,1,0.0
47rjc265202ngfb9rcn5q489,12,3,63,5,1,md,0.0,8.258,1,0.0
47rjc265202ngfb9rcn5q489,13,3,44,6,2,pd,0.0,6.57,1,0.0
47rjc265202ngfb9rcn5q489,14,3,54,6,1,md,0.0,5.635,1,0.0
47rjc265202ngfb9rcn5q489,15,3,78,7,1,md,0.0,18.65,1,0.0
47rjc265202ngfb9rcn5q489,16,3,21,7,2,pd,0.0,5.987,1,0.0
494n14p8nmsroi0grjhd1tdz,1,3,20,2,2,md,1.0,15.661,1,0.0
494n14p8nmsroi0grjhd1tdz,2,3,39,2,1,pd,0.0,28.535,1,0.0
494n14p8nmsroi0grjhd1tdz,3,3,65,2,1,pd,1.0,8.451,1,0.0
494n14p8nmsroi0grjhd1tdz,4,3,51,2,2,md,1.0,17.442,1,0.0
494n14p8nmsroi0grjhd1tdz,5,3,18,3,2,md,0.0,22.146,1,0.0
494n14p8nmsroi0grjhd1tdz,6,3,34,3,1,pd,1.0,29.05,1,0.0
494n14p8nmsroi0grjhd1tdz,7,3,69,3,2,md,1.0,15.834,1,0.0
494n14p8nmsroi0grjhd1tdz,8,3,16,4,1,pd,1.0,8.223,1,0.0
494n14p8nmsroi0grjhd1tdz,9,3,72,4,1,pd,1.0,28.616,1,0.0
494n14p8nmsroi0grjhd1tdz,10,3,23,4,2,md,1.0,16.837,1,0.0
494n14p8nmsroi0grjhd1tdz,11,3,63,5,1,pd,0.0,16.21,1,0.0
494n14p8nmsroi0grjhd1tdz,12,3,14,5,2,md,1.0,29.242,1,0.0
494n14p8nmsroi0grjhd1tdz,13,3,36,6,2,md,1.0,29.39,1,0.0
494n14p8nmsroi0grjhd1tdz,14,3,54,6,1,pd,1.0,15.384,1,0.0
494n14p8nmsroi0grjhd1tdz,15,3,45,7,1,pd,1.0,10.939,1,0.0
494n14p8nmsroi0grjhd1tdz,16,3,29,7,2,md,1.0,22.924,1,0.0
4dmuir6ip4hx9eryfxcq2rrg,1,3,19,2,1,pd,0.0,5.489,1,0.0
4dmuir6ip4hx9eryfxcq2rrg,2,3,39,2,2,md,1.0,11.611,1,0.0
4dmuir6ip4hx9eryfxcq2rrg,3,3,65,2,2,md,1.0,7.302,1,0.0
4dmuir6ip4hx9eryfxcq2rrg,4,3,50,2,1,pd,1.0,24.818,1,0.0
4dmuir6ip4hx9eryfxcq2rrg,5,3,27,3,2,md,0.0,29.011,1,0.0
4dmuir6ip4hx9eryfxcq2rrg,6,3,13,3,1,pd,1.0,25.832,1,0.0
4dmuir6ip4hx9eryfxcq2rrg,7,3,12,4,2,md,0.0,15.031,1,0.0
4dmuir6ip4hx9eryfxcq2rrg,8,3,58,3,1,pd,1.0,8.999,1,0.0
4dmuir6ip4hx9eryfxcq2rrg,9,3,79,4,2,md,0.0,12.632,1,0.0
4dmuir6ip4hx9eryfxcq2rrg,10,3,42,4,1,pd,1.0,15.481,1,0.0
4dmuir6ip4hx9eryfxcq2rrg,11,3,26,5,1,pd,0.0,13.689,1,0.0
4dmuir6ip4hx9eryfxcq2rrg,12,3,67,5,2,md,1.0,15.827,1,0.0
4dmuir6ip4hx9eryfxcq2rrg,13,3,64,6,2,md,0.0,21.712,1,0.0
4dmuir6ip4hx9eryfxcq2rrg,14,3,44,6,1,pd,0.0,29.294,1,0.0
4dmuir6ip4hx9eryfxcq2rrg,15,3,66,8,2,md,1.0,16.178,1,0.0
4dmuir6ip4hx9eryfxcq2rrg,16,3,24,7,1,pd,0.0,18.079,1,0.0
4f3an3rrow7k3ie0j752t45k,1,3,19,2,2,md,1.0,14.605,1,0.0
4f3an3rrow7k3ie0j752t45k,2,3,39,2,1,pd,1.0,28.234,1,0.0
4f3an3rrow7k3ie0j752t45k,3,3,51,2,2,md,1.0,19.357,1,0.0
4f3an3rrow7k3ie0j752t45k,4,3,70,2,1,pd,1.0,5.322,1,0.0
4f3an3rrow7k3ie0j752t45k,5,3,11,3,2,md,1.0,24.415,1,0.0
4f3an3rrow7k3ie0j752t45k,6,3,27,3,1,pd,1.0,20.042,1,0.0
4f3an3rrow7k3ie0j752t45k,7,3,58,3,2,md,1.0,21.98,1,0.0
4f3an3rrow7k3ie0j752t45k,8,3,12,4,1,pd,1.0,19.229,1,0.0
4f3an3rrow7k3ie0j752t45k,9,3,53,4,2,md,1.0,29.055,1,0.0
4f3an3rrow7k3ie0j752t45k,10,3,60,4,1,pd,1.0,22.394,1,0.0
4f3an3rrow7k3ie0j752t45k,11,3,63,5,1,pd,1.0,28.654,1,0.0
4f3an3rrow7k3ie0j752t45k,12,3,52,5,2,md,1.0,21.297,1,0.0
4f3an3rrow7k3ie0j752t45k,13,3,36,6,2,md,1.0,26.868,1,0.0
4f3an3rrow7k3ie0j752t45k,14,3,55,6,1,pd,1.0,17.535,1,0.0
4f3an3rrow7k3ie0j752t45k,15,3,24,7,2,md,1.0,24.816,1,0.0
4f3an3rrow7k3ie0j752t45k,16,3,66,8,1,pd,1.0,27.35,1,0.0
4h5yju9ncyeiyah2g5oi6vgt,1,3,20,2,2,pd,0.0,8.605,1,0.0
4h5yju9ncyeiyah2g5oi6vgt,2,3,47,2,1,md,0.0,16.772,1,0.0
4h5yju9ncyeiyah2g5oi6vgt,3,3,51,2,2,pd,1.0,11.125,1,0.0
4h5yju9ncyeiyah2g5oi6vgt,4,3,70,2,1,md,1.0,16.477,1,0.0
4h5yju9ncyeiyah2g5oi6vgt,5,3,37,3,1,md,0.0,4.783,1,0.0
4h5yju9ncyeiyah2g5oi6vgt,6,3,18,3,2,pd,0.0,7.442,1,0.0
4h5yju9ncyeiyah2g5oi6vgt,7,3,17,4,1,md,0.0,8.656,1,0.0
4h5yju9ncyeiyah2g5oi6vgt,8,3,58,3,2,pd,0.0,12.314,1,0.0
4h5yju9ncyeiyah2g5oi6vgt,9,3,23,4,2,pd,1.0,14.847,1,0.0
4h5yju9ncyeiyah2g5oi6vgt,10,3,73,4,1,md,0.0,5.088,1,0.0
4h5yju9ncyeiyah2g5oi6vgt,11,3,14,5,2,pd,0.0,9.912,1,0.0
4h5yju9ncyeiyah2g5oi6vgt,12,3,59,5,1,md,0.0,2.352,1,0.0
4h5yju9ncyeiyah2g5oi6vgt,13,3,36,6,2,pd,0.0,6.79,1,0.0
4h5yju9ncyeiyah2g5oi6vgt,14,3,75,6,1,md,0.0,1.525,1,0.0
4h5yju9ncyeiyah2g5oi6vgt,15,3,29,7,2,pd,0.0,0.766,1,0.0
4h5yju9ncyeiyah2g5oi6vgt,16,3,45,7,1,md,0.0,0.635,1,0.0
4i8fdqxxcxtx42msnwvy3e5p,1,3,6,2,1,pd,1.0,8.655,1,0.0
4i8fdqxxcxtx42msnwvy3e5p,2,3,25,2,2,md,1.0,11.07,1,0.0
4i8fdqxxcxtx42msnwvy3e5p,3,3,65,2,2,md,1.0,10.813,1,0.0
4i8fdqxxcxtx42msnwvy3e5p,4,3,49,2,1,pd,1.0,11.784,1,0.0
4i8fdqxxcxtx42msnwvy3e5p,5,3,18,3,1,pd,1.0,15.211,1,0.0
4i8fdqxxcxtx42msnwvy3e5p,6,3,27,3,2,md,0.0,22.89,1,0.0
4i8fdqxxcxtx42msnwvy3e5p,7,3,58,3,1,pd,1.0,14.762,1,0.0
4i8fdqxxcxtx42msnwvy3e5p,8,3,77,3,2,md,1.0,27.033,1,0.0
4i8fdqxxcxtx42msnwvy3e5p,9,3,23,4,1,pd,1.0,11.483,1,0.0
4i8fdqxxcxtx42msnwvy3e5p,10,3,79,4,2,md,0.0,26.999,1,0.0
4i8fdqxxcxtx42msnwvy3e5p,11,3,26,5,1,pd,1.0,22.682,1,0.0
4i8fdqxxcxtx42msnwvy3e5p,12,3,67,5,2,md,1.0,18.96,1,0.0
4i8fdqxxcxtx42msnwvy3e5p,13,3,55,6,2,md,1.0,9.566,1,0.0
4i8fdqxxcxtx42msnwvy3e5p,14,3,76,5,1,pd,0.0,27.664,1,0.0
4i8fdqxxcxtx42msnwvy3e5p,15,3,30,7,1,pd,1.0,16.243,1,0.0
4i8fdqxxcxtx42msnwvy3e5p,16,3,78,7,2,md,0.0,26.292,1,0.0
4mhzsuh7xfod2do73mss6ig2,1,3,22,2,1,pd,1.0,3.884,1,0.0
4mhzsuh7xfod2do73mss6ig2,2,3,47,2,2,md,1.0,13.248,1,0.0
4mhzsuh7xfod2do73mss6ig2,3,3,10,3,2,md,1.0,9.499,1,0.0
4mhzsuh7xfod2do73mss6ig2,4,3,49,2,1,pd,1.0,4.35,1,0.0
4mhzsuh7xfod2do73mss6ig2,5,3,13,3,1,pd,1.0,9.357,1,0.0
4mhzsuh7xfod2do73mss6ig2,6,3,31,3,2,md,0.0,16.95,1,0.0
4mhzsuh7xfod2do73mss6ig2,7,3,58,3,1,pd,1.0,4.513,1,0.0
4mhzsuh7xfod2do73mss6ig2,8,3,16,4,2,md,0.0,8.105,1,0.0
4mhzsuh7xfod2do73mss6ig2,9,3,73,4,2,md,0.0,20.019,1,0.0
4mhzsuh7xfod2do73mss6ig2,10,3,23,4,1,pd,1.0,3.853,1,0.0
4mhzsuh7xfod2do73mss6ig2,11,3,59,5,2,md,1.0,6.553,1,0.0
4mhzsuh7xfod2do73mss6ig2,12,3,52,5,1,pd,1.0,5.815,1,0.0
4mhzsuh7xfod2do73mss6ig2,13,3,75,6,2,md,0.0,13.185,1,0.0
4mhzsuh7xfod2do73mss6ig2,14,3,46,6,1,pd,1.0,12.745,1,0.0
4mhzsuh7xfod2do73mss6ig2,15,3,21,7,1,pd,0.0,8.936,1,0.0
4mhzsuh7xfod2do73mss6ig2,16,3,78,7,2,md,1.0,12.116,1,0.0
519zbyjdj3cdg883oowodetg,1,3,22,2,2,md,0.0,3.588,1,0.0
519zbyjdj3cdg883oowodetg,2,3,28,2,1,pd,0.0,4.915,1,0.0
519zbyjdj3cdg883oowodetg,3,3,51,2,2,md,0.0,4.799,1,0.0
519zbyjdj3cdg883oowodetg,4,3,65,2,1,pd,0.0,2.772,1,0.0
519zbyjdj3cdg883oowodetg,5,3,27,3,1,pd,0.0,6.236,1,0.0
519zbyjdj3cdg883oowodetg,6,3,11,3,2,md,0.0,3.304,1,0.0
519zbyjdj3cdg883oowodetg,7,3,77,3,1,pd,1.0,3.763,1,0.0
519zbyjdj3cdg883oowodetg,8,3,62,3,2,md,0.0,5.621,1,0.0
519zbyjdj3cdg883oowodetg,9,3,40,4,2,md,0.0,3.382,1,0.0
519zbyjdj3cdg883oowodetg,10,3,79,4,1,pd,0.0,2.648,1,0.0
519zbyjdj3cdg883oowodetg,11,3,80,4,2,md,0.0,2.862,1,0.0
519zbyjdj3cdg883oowodetg,12,3,59,5,1,pd,0.0,4.54,1,0.0
519zbyjdj3cdg883oowodetg,13,3,76,5,2,md,0.0,3.197,1,0.0
519zbyjdj3cdg883oowodetg,14,3,54,6,1,pd,0.0,5.598,1,0.0
519zbyjdj3cdg883oowodetg,15,3,66,8,1,pd,0.0,4.766,1,0.0
519zbyjdj3cdg883oowodetg,16,3,21,7,2,md,0.0,3.265,1,0.0
51brojcur0ahwcou0zeiofr4,1,3,6,2,1,pd,0.0,7.576,1,0.0
51brojcur0ahwcou0zeiofr4,2,3,39,2,2,md,1.0,8.856,1,0.0
51brojcur0ahwcou0zeiofr4,3,3,50,2,1,pd,1.0,7.026,1,0.0
51brojcur0ahwcou0zeiofr4,4,3,70,2,2,md,1.0,9.279,1,0.0
51brojcur0ahwcou0zeiofr4,5,3,15,3,1,pd,0.0,11.876,1,0.0
51brojcur0ahwcou0zeiofr4,6,3,34,3,2,md,1.0,13.879,1,0.0
51brojcur0ahwcou0zeiofr4,7,3,56,3,1,pd,1.0,11.702,1,0.0
51brojcur0ahwcou0zeiofr4,8,3,77,3,2,md,1.0,7.24,1,0.0
51brojcur0ahwcou0zeiofr4,9,3,23,4,1,pd,1.0,7.407,1,0.0
51brojcur0ahwcou0zeiofr4,10,3,73,4,2,md,1.0,16.144,1,0.0
51brojcur0ahwcou0zeiofr4,11,3,52,5,1,pd,0.0,15.763,1,0.0
51brojcur0ahwcou0zeiofr4,12,3,63,5,2,md,0.0,16.135,1,0.0
51brojcur0ahwcou0zeiofr4,13,3,54,6,2,md,0.0,13.803,1,0.0
51brojcur0ahwcou0zeiofr4,14,3,36,6,1,pd,1.0,10.898,1,0.0
51brojcur0ahwcou0zeiofr4,15,3,45,7,2,md,0.0,9.943,1,0.0
51brojcur0ahwcou0zeiofr4,16,3,29,7,1,pd,1.0,8.872,1,0.0
525crgtd5xx14lsyudfeth8r,1,3,20,2,1,pd,1.0,13.494,1,0.0
525crgtd5xx14lsyudfeth8r,2,3,47,2,2,md,1.0,13.486,1,0.0
525crgtd5xx14lsyudfeth8r,3,3,10,3,2,md,1.0,15.76,1,0.0
525crgtd5xx14lsyudfeth8r,4,3,61,2,1,pd,1.0,13.206,1,0.0
525crgtd5xx14lsyudfeth8r,5,3,11,3,1,pd,1.0,12.497,1,0.0
525crgtd5xx14lsyudfeth8r,6,3,27,3,2,md,0.0,13.779,1,0.0
525crgtd5xx14lsyudfeth8r,7,3,62,3,1,pd,1.0,8.515,1,0.0
525crgtd5xx14lsyudfeth8r,8,3,17,4,2,md,0.0,15.43,1,0.0
525crgtd5xx14lsyudfeth8r,9,3,53,4,1,pd,1.0,12.502,1,0.0
525crgtd5xx14lsyudfeth8r,10,3,72,4,2,md,0.0,15.579,1,0.0
525crgtd5xx14lsyudfeth8r,11,3,67,5,2,md,1.0,13.485,1,0.0
525crgtd5xx14lsyudfeth8r,12,3,80,4,1,pd,0.0,15.968,1,0.0
525crgtd5xx14lsyudfeth8r,13,3,76,5,1,pd,0.0,13.606,1,0.0
525crgtd5xx14lsyudfeth8r,14,3,75,6,2,md,0.0,17.165,1,0.0
525crgtd5xx14lsyudfeth8r,15,3,45,7,2,md,0.0,5.756,1,0.0
525crgtd5xx14lsyudfeth8r,16,3,30,7,1,pd,1.0,3.533,1,0.0
56rfelahgx44yaqkd2iu7s0n,1,3,47,2,1,md,0.0,16.907,1,0.0
56rfelahgx44yaqkd2iu7s0n,2,3,6,2,2,pd,1.0,9.711,1,0.0
56rfelahgx44yaqkd2iu7s0n,3,3,10,3,1,md,1.0,13.991,1,0.0
56rfelahgx44yaqkd2iu7s0n,4,3,50,2,2,pd,0.0,25.537,1,0.0
56rfelahgx44yaqkd2iu7s0n,5,3,13,3,2,pd,1.0,16.465,1,0.0
56rfelahgx44yaqkd2iu7s0n,6,3,34,3,1,md,0.0,9.371,1,0.0
56rfelahgx44yaqkd2iu7s0n,7,3,62,3,2,pd,0.0,20.701,1,0.0
56rfelahgx44yaqkd2iu7s0n,8,3,16,4,1,md,0.0,11.406,1,0.0
56rfelahgx44yaqkd2iu7s0n,9,3,42,4,2,pd,0.0,20.952,1,0.0
56rfelahgx44yaqkd2iu7s0n,10,3,73,4,1,md,0.0,12.929,1,0.0
56rfelahgx44yaqkd2iu7s0n,11,3,26,5,2,pd,1.0,23.176,1,0.0
56rfelahgx44yaqkd2iu7s0n,12,3,67,5,1,md,0.0,18.622,1,0.0
56rfelahgx44yaqkd2iu7s0n,13,3,46,6,2,pd,1.0,22.562,1,0.0
56rfelahgx44yaqkd2iu7s0n,14,3,64,6,1,md,0.0,18.412,1,0.0
56rfelahgx44yaqkd2iu7s0n,15,3,35,8,1,md,0.0,10.902,1,0.0
56rfelahgx44yaqkd2iu7s0n,16,3,21,7,2,pd,0.0,15.047,1,0.0
59ngy801iiqpmbpdnlmfjeei,1,3,19,2,2,md,1.0,7.646,1,0.0
59ngy801iiqpmbpdnlmfjeei,2,3,25,2,1,pd,1.0,9.011,1,0.0
59ngy801iiqpmbpdnlmfjeei,3,3,70,2,1,pd,1.0,10.27,1,0.0
59ngy801iiqpmbpdnlmfjeei,4,3,61,2,2,md,0.0,25.141,1,0.0
59ngy801iiqpmbpdnlmfjeei,5,3,27,3,1,pd,1.0,23.321,1,0.0
59ngy801iiqpmbpdnlmfjeei,6,3,11,3,2,md,0.0,15.379,1,0.0
59ngy801iiqpmbpdnlmfjeei,7,3,69,3,2,md,1.0,7.944,1,0.0
59ngy801iiqpmbpdnlmfjeei,8,3,16,4,1,pd,1.0,4.464,1,0.0
59ngy801iiqpmbpdnlmfjeei,9,3,40,4,2,md,1.0,12.761,1,0.0
59ngy801iiqpmbpdnlmfjeei,10,3,73,4,1,pd,1.0,7.228,1,0.0
59ngy801iiqpmbpdnlmfjeei,11,3,74,5,1,pd,0.0,12.63,1,0.0
59ngy801iiqpmbpdnlmfjeei,12,3,26,5,2,md,1.0,14.269,1,0.0
59ngy801iiqpmbpdnlmfjeei,13,3,46,6,2,md,1.0,13.027,1,0.0
59ngy801iiqpmbpdnlmfjeei,14,3,75,6,1,pd,0.0,3.722,1,0.0
59ngy801iiqpmbpdnlmfjeei,15,3,24,7,2,md,0.0,9.61,1,0.0
59ngy801iiqpmbpdnlmfjeei,16,3,78,7,1,pd,0.0,5.852,1,0.0
5crlydz5xjnujl7cw511iew5,1,3,6,2,1,pd,1.0,7.611,1,0.0
5crlydz5xjnujl7cw511iew5,2,3,47,2,2,md,0.0,11.623,1,0.0
5crlydz5xjnujl7cw511iew5,3,3,61,2,1,pd,1.0,12.306,1,0.0
5crlydz5xjnujl7cw511iew5,4,3,10,3,2,md,1.0,20.591,1,0.0
5crlydz5xjnujl7cw511iew5,5,3,11,3,1,pd,0.0,26.597,1,0.0
5crlydz5xjnujl7cw511iew5,6,3,31,3,2,md,1.0,12.732,1,0.0
5crlydz5xjnujl7cw511iew5,7,3,77,3,2,md,1.0,11.371,1,0.0
5crlydz5xjnujl7cw511iew5,8,3,58,3,1,pd,1.0,11.029,1,0.0
5crlydz5xjnujl7cw511iew5,9,3,53,4,1,pd,0.0,18.788,1,0.0
5crlydz5xjnujl7cw511iew5,10,3,60,4,2,md,1.0,11.256,1,0.0
5crlydz5xjnujl7cw511iew5,11,3,80,4,1,pd,0.0,9.577,1,0.0
5crlydz5xjnujl7cw511iew5,12,3,67,5,2,md,0.0,10.008,1,0.0
5crlydz5xjnujl7cw511iew5,13,3,64,6,2,md,0.0,17.812,1,0.0
5crlydz5xjnujl7cw511iew5,14,3,46,6,1,pd,1.0,10.167,1,0.0
5crlydz5xjnujl7cw511iew5,15,3,35,8,2,md,0.0,10.368,1,0.0
5crlydz5xjnujl7cw511iew5,16,3,21,7,1,pd,0.0,15.957,1,0.0
5g41xp889l6rn0ju6xu3b53m,1,3,25,2,1,md,1.0,7.38,1,0.0
5g41xp889l6rn0ju6xu3b53m,2,3,6,2,2,pd,1.0,4.32,1,0.0
5g41xp889l6rn0ju6xu3b53m,3,3,70,2,1,md,1.0,5.43,1,0.0
5g41xp889l6rn0ju6xu3b53m,4,3,61,2,2,pd,1.0,10.359,1,0.0
5g41xp889l6rn0ju6xu3b53m,5,3,13,3,2,pd,0.0,15.175,1,0.0
5g41xp889l6rn0ju6xu3b53m,6,3,34,3,1,md,1.0,26.839,1,0.0
5g41xp889l6rn0ju6xu3b53m,7,3,62,3,2,pd,0.0,16.238,1,0.0
5g41xp889l6rn0ju6xu3b53m,8,3,12,4,1,md,0.0,8.583,1,0.0
5g41xp889l6rn0ju6xu3b53m,9,3,79,4,1,md,1.0,11.95,1,0.0
5g41xp889l6rn0ju6xu3b53m,10,3,23,4,2,pd,1.0,5.871,1,0.0
5g41xp889l6rn0ju6xu3b53m,11,3,14,5,2,pd,0.0,11.384,1,0.0
5g41xp889l6rn0ju6xu3b53m,12,3,74,5,1,md,0.0,6.964,1,0.0
5g41xp889l6rn0ju6xu3b53m,13,3,44,6,2,pd,0.0,6.557,1,0.0
5g41xp889l6rn0ju6xu3b53m,14,3,75,6,1,md,0.0,5.838,1,0.0
5g41xp889l6rn0ju6xu3b53m,15,3,30,7,2,pd,1.0,9.473,1,0.0
5g41xp889l6rn0ju6xu3b53m,16,3,78,7,1,md,0.0,9.239,1,0.0
5jy2qnd6t58agficsjd2vths,1,3,28,2,1,md,0.0,10.273,1,0.0
5jy2qnd6t58agficsjd2vths,2,3,6,2,2,pd,1.0,5.98,1,0.0
5jy2qnd6t58agficsjd2vths,3,3,10,3,1,md,0.0,19.086,1,0.0
5jy2qnd6t58agficsjd2vths,4,3,51,2,2,pd,1.0,8.628,1,0.0
5jy2qnd6t58agficsjd2vths,5,3,15,3,2,pd,0.0,14.282,1,0.0
5jy2qnd6t58agficsjd2vths,6,3,37,3,1,md,0.0,10.018,1,0.0
5jy2qnd6t58agficsjd2vths,7,3,12,4,1,md,0.0,9.429,1,0.0
5jy2qnd6t58agficsjd2vths,8,3,56,3,2,pd,1.0,11.12,1,0.0
5jy2qnd6t58agficsjd2vths,9,3,40,4,2,pd,0.0,7.202,1,0.0
5jy2qnd6t58agficsjd2vths,10,3,73,4,1,md,0.0,7.27,1,0.0
5jy2qnd6t58agficsjd2vths,11,3,14,5,2,pd,1.0,12.238,1,0.0
5jy2qnd6t58agficsjd2vths,12,3,67,5,1,md,0.0,7.399,1,0.0
5jy2qnd6t58agficsjd2vths,13,3,76,5,2,pd,0.0,8.152,1,0.0
5jy2qnd6t58agficsjd2vths,14,3,55,6,1,md,0.0,3.059,1,0.0
5jy2qnd6t58agficsjd2vths,15,3,78,7,1,md,1.0,8.854,1,0.0
5jy2qnd6t58agficsjd2vths,16,3,29,7,2,pd,0.0,8.247,1,0.0
5la01jwgjd5r0smzsld92t1m,1,3,6,2,2,pd,1.0,5.707,1,0.0
5la01jwgjd5r0smzsld92t1m,2,3,28,2,1,md,1.0,22.497,1,0.0
5la01jwgjd5r0smzsld92t1m,3,3,61,2,2,pd,1.0,15.949,1,0.0
5la01jwgjd5r0smzsld92t1m,4,3,65,2,1,md,1.0,10.042,1,0.0
5la01jwgjd5r0smzsld92t1m,5,3,11,3,2,pd,1.0,18.317,1,0.0
5la01jwgjd5r0smzsld92t1m,6,3,37,3,1,md,0.0,24.908,1,0.0
5la01jwgjd5r0smzsld92t1m,7,3,17,4,1,md,1.0,16.151,1,0.0
5la01jwgjd5r0smzsld92t1m,8,3,62,3,2,pd,1.0,7.6,1,0.0
5la01jwgjd5r0smzsld92t1m,9,3,23,4,2,pd,1.0,7.718,1,0.0
5la01jwgjd5r0smzsld92t1m,10,3,79,4,1,md,1.0,19.075,1,0.0
5la01jwgjd5r0smzsld92t1m,11,3,26,5,2,pd,0.0,28.141,1,0.0
5la01jwgjd5r0smzsld92t1m,12,3,74,5,1,md,1.0,16.22,1,0.0
5la01jwgjd5r0smzsld92t1m,13,3,64,6,1,md,1.0,29.386,1,0.0
5la01jwgjd5r0smzsld92t1m,14,3,76,5,2,pd,1.0,14.694,1,0.0
5la01jwgjd5r0smzsld92t1m,15,3,35,8,1,md,1.0,9.194,1,0.0
5la01jwgjd5r0smzsld92t1m,16,3,21,7,2,pd,1.0,10.138,1,0.0
5m8lau3ky2gtgpbmnr8kuv4g,1,3,22,2,2,pd,1.0,13.446,1,0.0
5m8lau3ky2gtgpbmnr8kuv4g,2,3,39,2,1,md,1.0,29.226,1,0.0
5m8lau3ky2gtgpbmnr8kuv4g,3,3,49,2,2,pd,1.0,19.2,1,0.0
5m8lau3ky2gtgpbmnr8kuv4g,4,3,71,2,1,md,1.0,26.255,1,0.0
5m8lau3ky2gtgpbmnr8kuv4g,5,3,34,3,1,md,0.0,29.668,1,0.0
5m8lau3ky2gtgpbmnr8kuv4g,6,3,11,3,2,pd,1.0,25.638,1,0.0
5m8lau3ky2gtgpbmnr8kuv4g,7,3,62,3,2,pd,1.0,14.698,1,0.0
5m8lau3ky2gtgpbmnr8kuv4g,8,3,12,4,1,md,1.0,28.045,1,0.0
5m8lau3ky2gtgpbmnr8kuv4g,9,3,53,4,2,pd,1.0,19.304,1,0.0
5m8lau3ky2gtgpbmnr8kuv4g,10,3,72,4,1,md,0.0,18.553,1,0.0
5m8lau3ky2gtgpbmnr8kuv4g,11,3,26,5,2,pd,1.0,13.948,1,0.0
5m8lau3ky2gtgpbmnr8kuv4g,12,3,67,5,1,md,1.0,16.233,1,0.0
5m8lau3ky2gtgpbmnr8kuv4g,13,3,54,6,1,md,0.0,25.517,1,0.0
5m8lau3ky2gtgpbmnr8kuv4g,14,3,76,5,2,pd,1.0,10.262,1,0.0
5m8lau3ky2gtgpbmnr8kuv4g,15,3,24,7,2,pd,1.0,24.037,1,0.0
5m8lau3ky2gtgpbmnr8kuv4g,16,3,78,7,1,md,,,1,0.0
5m92mo123e9gh0jbia35or3b,1,3,22,2,1,md,0.0,4.536,1,0.0
5m92mo123e9gh0jbia35or3b,2,3,25,2,2,pd,1.0,5.712,1,0.0
5m92mo123e9gh0jbia35or3b,3,3,51,2,1,md,1.0,13.159,1,0.0
5m92mo123e9gh0jbia35or3b,4,3,71,2,2,pd,1.0,6.215,1,0.0
5m92mo123e9gh0jbia35or3b,5,3,31,3,2,pd,1.0,22.265,1,0.0
5m92mo123e9gh0jbia35or3b,6,3,18,3,1,md,1.0,15.392,1,0.0
5m92mo123e9gh0jbia35or3b,7,3,62,3,1,md,1.0,9.81,1,0.0
5m92mo123e9gh0jbia35or3b,8,3,77,3,2,pd,1.0,7.605,1,0.0
5m92mo123e9gh0jbia35or3b,9,3,23,4,1,md,0.0,11.87,1,0.0
5m92mo123e9gh0jbia35or3b,10,3,79,4,2,pd,1.0,20.56,1,0.0
5m92mo123e9gh0jbia35or3b,11,3,52,5,1,md,0.0,15.618,1,0.0
5m92mo123e9gh0jbia35or3b,12,3,67,5,2,pd,1.0,11.191,1,0.0
5m92mo123e9gh0jbia35or3b,13,3,76,5,1,md,0.0,14.31,1,0.0
5m92mo123e9gh0jbia35or3b,14,3,55,6,2,pd,1.0,16.735,1,0.0
5m92mo123e9gh0jbia35or3b,15,3,35,8,2,pd,0.0,23.55,1,0.0
5m92mo123e9gh0jbia35or3b,16,3,29,7,1,md,1.0,13.721,1,0.0
5nbu6wm0asr5wgoe8y4yoz5b,1,3,28,2,2,pd,1.0,23.684,1,0.0
5nbu6wm0asr5wgoe8y4yoz5b,2,3,22,2,1,md,0.0,9.715,1,0.0
5nbu6wm0asr5wgoe8y4yoz5b,3,3,10,3,2,pd,1.0,28.103,1,0.0
5nbu6wm0asr5wgoe8y4yoz5b,4,3,51,2,1,md,0.0,12.95,1,0.0
5nbu6wm0asr5wgoe8y4yoz5b,5,3,13,3,1,md,0.0,16.122,1,0.0
5nbu6wm0asr5wgoe8y4yoz5b,6,3,37,3,2,pd,0.0,22.785,1,0.0
5nbu6wm0asr5wgoe8y4yoz5b,7,3,69,3,1,md,1.0,25.726,1,0.0
5nbu6wm0asr5wgoe8y4yoz5b,8,3,12,4,2,pd,0.0,8.42,1,0.0
5nbu6wm0asr5wgoe8y4yoz5b,9,3,73,4,2,pd,1.0,16.467,1,0.0
5nbu6wm0asr5wgoe8y4yoz5b,10,3,23,4,1,md,0.0,15.282,1,0.0
5nbu6wm0asr5wgoe8y4yoz5b,11,3,80,4,1,md,0.0,9.699,1,0.0
5nbu6wm0asr5wgoe8y4yoz5b,12,3,67,5,2,pd,1.0,12.237,1,0.0
5nbu6wm0asr5wgoe8y4yoz5b,13,3,54,6,2,pd,0.0,12.48,1,0.0
5nbu6wm0asr5wgoe8y4yoz5b,14,3,44,6,1,md,0.0,9.816,1,0.0
5nbu6wm0asr5wgoe8y4yoz5b,15,3,30,7,1,md,1.0,8.619,1,0.0
5nbu6wm0asr5wgoe8y4yoz5b,16,3,78,7,2,pd,1.0,10.225,1,0.0
5rx4okg7d5vk026dtzkaxc0m,1,3,19,2,1,md,0.0,16.544,1,0.0
5rx4okg7d5vk026dtzkaxc0m,2,3,47,2,2,pd,1.0,18.572,1,0.0
5rx4okg7d5vk026dtzkaxc0m,3,3,51,2,1,md,1.0,18.808,1,0.0
5rx4okg7d5vk026dtzkaxc0m,4,3,71,2,2,pd,1.0,15.998,1,0.0
5rx4okg7d5vk026dtzkaxc0m,5,3,37,3,2,pd,,,1,0.0
5rx4okg7d5vk026dtzkaxc0m,6,3,13,3,1,md,0.0,18.402,1,0.0
5rx4okg7d5vk026dtzkaxc0m,7,3,56,3,1,md,0.0,22.857,1,0.0
5rx4okg7d5vk026dtzkaxc0m,8,3,77,3,2,pd,1.0,21.265,1,0.0
5rx4okg7d5vk026dtzkaxc0m,9,3,79,4,2,pd,0.0,13.664,1,0.0
5rx4okg7d5vk026dtzkaxc0m,10,3,40,4,1,md,1.0,15.361,1,0.0
5rx4okg7d5vk026dtzkaxc0m,11,3,63,5,2,pd,0.0,26.854,1,0.0
5rx4okg7d5vk026dtzkaxc0m,12,3,52,5,1,md,0.0,12.211,1,0.0
5rx4okg7d5vk026dtzkaxc0m,13,3,64,6,2,pd,0.0,14.711,1,0.0
5rx4okg7d5vk026dtzkaxc0m,14,3,46,6,1,md,0.0,6.387,1,0.0
5rx4okg7d5vk026dtzkaxc0m,15,3,29,7,1,md,0.0,19.194,1,0.0
5rx4okg7d5vk026dtzkaxc0m,16,3,66,8,2,pd,0.0,3.723,1,0.0
5w8iljymylasl128wlos7fim,1,3,6,2,1,md,0.0,5.222,1,0.0
5w8iljymylasl128wlos7fim,2,3,28,2,2,pd,0.0,8.639,1,0.0
5w8iljymylasl128wlos7fim,3,3,49,2,1,md,1.0,13.41,1,0.0
5w8iljymylasl128wlos7fim,4,3,10,3,2,pd,1.0,8.278,1,0.0
5w8iljymylasl128wlos7fim,5,3,18,3,1,md,1.0,8.035,1,0.0
5w8iljymylasl128wlos7fim,6,3,27,3,2,pd,1.0,12.414,1,0.0
5w8iljymylasl128wlos7fim,7,3,16,4,2,pd,1.0,8.193,1,0.0
5w8iljymylasl128wlos7fim,8,3,56,3,1,md,0.0,12.802,1,0.0
5w8iljymylasl128wlos7fim,9,3,40,4,1,md,1.0,9.45,1,0.0
5w8iljymylasl128wlos7fim,10,3,73,4,2,pd,0.0,18.258,1,0.0
5w8iljymylasl128wlos7fim,11,3,74,5,2,pd,0.0,21.484,1,0.0
5w8iljymylasl128wlos7fim,12,3,26,5,1,md,0.0,22.795,1,0.0
5w8iljymylasl128wlos7fim,13,3,36,6,1,md,1.0,25.669,1,0.0
5w8iljymylasl128wlos7fim,14,3,54,6,2,pd,1.0,11.888,1,0.0
5w8iljymylasl128wlos7fim,15,3,30,7,1,md,0.0,16.976,1,0.0
5w8iljymylasl128wlos7fim,16,3,45,7,2,pd,0.0,22.949,1,0.0
600h90dv4z92iv06ocn127ze,1,3,22,2,2,md,1.0,8.553,1,0.0
600h90dv4z92iv06ocn127ze,2,3,28,2,1,pd,1.0,27.496,1,0.0
600h90dv4z92iv06ocn127ze,3,3,10,3,1,pd,1.0,13.528,1,0.0
600h90dv4z92iv06ocn127ze,4,3,49,2,2,md,1.0,12.242,1,0.0
600h90dv4z92iv06ocn127ze,5,3,31,3,1,pd,1.0,19.009,1,0.0
600h90dv4z92iv06ocn127ze,6,3,18,3,2,md,1.0,26.177,1,0.0
600h90dv4z92iv06ocn127ze,7,3,16,4,1,pd,1.0,12.04,1,0.0
600h90dv4z92iv06ocn127ze,8,3,58,3,2,md,1.0,17.294,1,0.0
600h90dv4z92iv06ocn127ze,9,3,23,4,2,md,1.0,19.04,1,0.0
600h90dv4z92iv06ocn127ze,10,3,60,4,1,pd,1.0,28.258,1,0.0
600h90dv4z92iv06ocn127ze,11,3,63,5,1,pd,1.0,28.972,1,0.0
600h90dv4z92iv06ocn127ze,12,3,14,5,2,md,0.0,27.382,1,0.0
600h90dv4z92iv06ocn127ze,13,3,44,6,2,md,0.0,15.42,1,0.0
600h90dv4z92iv06ocn127ze,14,3,54,6,1,pd,0.0,14.084,1,0.0
600h90dv4z92iv06ocn127ze,15,3,35,8,1,pd,1.0,11.222,1,0.0
600h90dv4z92iv06ocn127ze,16,3,24,7,2,md,1.0,15.008,1,0.0
61e4vo4vrncsxadrq3jv3je1,1,3,22,2,1,md,0.0,2.325,1,0.0
61e4vo4vrncsxadrq3jv3je1,2,3,47,2,2,pd,0.0,5.101,1,0.0
61e4vo4vrncsxadrq3jv3je1,3,3,71,2,2,pd,0.0,3.447,1,0.0
61e4vo4vrncsxadrq3jv3je1,4,3,50,2,1,md,1.0,8.312,1,0.0
61e4vo4vrncsxadrq3jv3je1,5,3,27,3,2,pd,0.0,8.854,1,0.0
61e4vo4vrncsxadrq3jv3je1,6,3,15,3,1,md,0.0,17.658,1,0.0
61e4vo4vrncsxadrq3jv3je1,7,3,56,3,1,md,1.0,13.359,1,0.0
61e4vo4vrncsxadrq3jv3je1,8,3,77,3,2,pd,0.0,8.394,1,0.0
61e4vo4vrncsxadrq3jv3je1,9,3,73,4,2,pd,1.0,5.116,1,0.0
61e4vo4vrncsxadrq3jv3je1,10,3,42,4,1,md,0.0,16.82,1,0.0
61e4vo4vrncsxadrq3jv3je1,11,3,74,5,2,pd,0.0,3.634,1,0.0
61e4vo4vrncsxadrq3jv3je1,12,3,26,5,1,md,0.0,13.757,1,0.0
61e4vo4vrncsxadrq3jv3je1,13,3,44,6,1,md,1.0,8.503,1,0.0
61e4vo4vrncsxadrq3jv3je1,14,3,54,6,2,pd,1.0,12.88,1,0.0
61e4vo4vrncsxadrq3jv3je1,15,3,78,7,2,pd,1.0,5.485,1,0.0
61e4vo4vrncsxadrq3jv3je1,16,3,24,7,1,md,0.0,2.936,1,0.0
657qttkac7rp4n21ts58rxcd,1,3,19,2,1,md,0.0,10.664,1,0.0
657qttkac7rp4n21ts58rxcd,2,3,39,2,2,pd,1.0,9.222,1,0.0
657qttkac7rp4n21ts58rxcd,3,3,65,2,2,pd,0.0,13.076,1,0.0
657qttkac7rp4n21ts58rxcd,4,3,49,2,1,md,0.0,10.236,1,0.0
657qttkac7rp4n21ts58rxcd,5,3,31,3,2,pd,1.0,17.228,1,0.0
657qttkac7rp4n21ts58rxcd,6,3,18,3,1,md,0.0,16.657,1,0.0
657qttkac7rp4n21ts58rxcd,7,3,58,3,1,md,0.0,9.918,1,0.0
657qttkac7rp4n21ts58rxcd,8,3,77,3,2,pd,0.0,7.158,1,0.0
657qttkac7rp4n21ts58rxcd,9,3,23,4,1,md,1.0,8.015,1,0.0
657qttkac7rp4n21ts58rxcd,10,3,72,4,2,pd,1.0,10.231,1,0.0
657qttkac7rp4n21ts58rxcd,11,3,59,5,2,pd,0.0,18.536,1,0.0
657qttkac7rp4n21ts58rxcd,12,3,26,5,1,md,0.0,18.191,1,0.0
657qttkac7rp4n21ts58rxcd,13,3,36,6,1,md,0.0,18.537,1,0.0
657qttkac7rp4n21ts58rxcd,14,3,64,6,2,pd,1.0,18.913,1,0.0
657qttkac7rp4n21ts58rxcd,15,3,45,7,2,pd,1.0,7.164,1,0.0
657qttkac7rp4n21ts58rxcd,16,3,30,7,1,md,1.0,20.988,1,0.0
67heohzr97c0kcq6lwqjqc10,1,3,25,2,1,md,1.0,15.802,1,0.0
67heohzr97c0kcq6lwqjqc10,2,3,19,2,2,pd,1.0,10.207,1,0.0
67heohzr97c0kcq6lwqjqc10,3,3,51,2,2,pd,1.0,21.081,1,0.0
67heohzr97c0kcq6lwqjqc10,4,3,10,3,1,md,1.0,26.537,1,0.0
67heohzr97c0kcq6lwqjqc10,5,3,11,3,2,pd,1.0,24.468,1,0.0
67heohzr97c0kcq6lwqjqc10,6,3,27,3,1,md,1.0,23.298,1,0.0
67heohzr97c0kcq6lwqjqc10,7,3,17,4,1,md,1.0,10.745,1,0.0
67heohzr97c0kcq6lwqjqc10,8,3,56,3,2,pd,0.0,28.304,1,0.0
67heohzr97c0kcq6lwqjqc10,9,3,73,4,1,md,1.0,28.188,1,0.0
67heohzr97c0kcq6lwqjqc10,10,3,23,4,2,pd,1.0,8.883,1,0.0
67heohzr97c0kcq6lwqjqc10,11,3,14,5,2,pd,0.0,28.35,1,0.0
67heohzr97c0kcq6lwqjqc10,12,3,63,5,1,md,1.0,17.203,1,0.0
67heohzr97c0kcq6lwqjqc10,13,3,64,6,1,md,1.0,25.173,1,0.0
67heohzr97c0kcq6lwqjqc10,14,3,46,6,2,pd,1.0,12.594,1,0.0
67heohzr97c0kcq6lwqjqc10,15,3,45,7,1,md,1.0,17.39,1,0.0
67heohzr97c0kcq6lwqjqc10,16,3,30,7,2,pd,1.0,19.026,1,0.0
68td3tbgc9pgeihse2uscazd,1,3,25,2,2,md,0.0,5.492,1,0.0
68td3tbgc9pgeihse2uscazd,2,3,22,2,1,pd,1.0,19.419,1,0.0
68td3tbgc9pgeihse2uscazd,3,3,65,2,2,md,1.0,25.795,1,0.0
68td3tbgc9pgeihse2uscazd,4,3,51,2,1,pd,1.0,22.443,1,0.0
68td3tbgc9pgeihse2uscazd,5,3,27,3,2,md,1.0,23.475,1,0.0
68td3tbgc9pgeihse2uscazd,6,3,11,3,1,pd,1.0,25.522,1,0.0
68td3tbgc9pgeihse2uscazd,7,3,58,3,1,pd,1.0,11.075,1,0.0
68td3tbgc9pgeihse2uscazd,8,3,17,4,2,md,1.0,25.493,1,0.0
68td3tbgc9pgeihse2uscazd,9,3,72,4,2,md,1.0,22.716,1,0.0
68td3tbgc9pgeihse2uscazd,10,3,40,4,1,pd,1.0,18.612,1,0.0
68td3tbgc9pgeihse2uscazd,11,3,80,4,1,pd,1.0,13.29,1,0.0
68td3tbgc9pgeihse2uscazd,12,3,59,5,2,md,1.0,25.556,1,0.0
68td3tbgc9pgeihse2uscazd,13,3,55,6,2,md,1.0,18.741,1,0.0
68td3tbgc9pgeihse2uscazd,14,3,46,6,1,pd,1.0,19.428,1,0.0
68td3tbgc9pgeihse2uscazd,15,3,35,8,2,md,0.0,28.268,1,0.0
68td3tbgc9pgeihse2uscazd,16,3,29,7,1,pd,1.0,15.757,1,0.0
6a80r7h6mc233wfkku689f8n,1,3,47,2,2,md,0.0,8.667,1,0.0
6a80r7h6mc233wfkku689f8n,2,3,19,2,1,pd,1.0,9.903,1,0.0
6a80r7h6mc233wfkku689f8n,3,3,61,2,1,pd,1.0,14.072,1,0.0
6a80r7h6mc233wfkku689f8n,4,3,65,2,2,md,1.0,8.175,1,0.0
6a80r7h6mc233wfkku689f8n,5,3,18,3,1,pd,0.0,16.376,1,0.0
6a80r7h6mc233wfkku689f8n,6,3,37,3,2,md,0.0,9.874,1,0.0
6a80r7h6mc233wfkku689f8n,7,3,62,3,1,pd,1.0,7.215,1,0.0
6a80r7h6mc233wfkku689f8n,8,3,17,4,2,md,0.0,19.25,1,0.0
6a80r7h6mc233wfkku689f8n,9,3,42,4,1,pd,0.0,12.813,1,0.0
6a80r7h6mc233wfkku689f8n,10,3,60,4,2,md,1.0,7.729,1,0.0
6a80r7h6mc233wfkku689f8n,11,3,80,4,1,pd,1.0,6.402,1,0.0
6a80r7h6mc233wfkku689f8n,12,3,67,5,2,md,1.0,12.365,1,0.0
6a80r7h6mc233wfkku689f8n,13,3,36,6,1,pd,0.0,6.524,1,0.0
6a80r7h6mc233wfkku689f8n,14,3,54,6,2,md,0.0,3.651,1,0.0
6a80r7h6mc233wfkku689f8n,15,3,78,7,2,md,0.0,10.633,1,0.0
6a80r7h6mc233wfkku689f8n,16,3,24,7,1,pd,0.0,3.921,1,0.0
6dgt2qu2enlze2oxudlmz2tv,1,3,22,2,2,pd,1.0,12.997,1,0.0
6dgt2qu2enlze2oxudlmz2tv,2,3,47,2,1,md,1.0,20.507,1,0.0
6dgt2qu2enlze2oxudlmz2tv,3,3,65,2,1,md,1.0,11.164,1,0.0
6dgt2qu2enlze2oxudlmz2tv,4,3,50,2,2,pd,1.0,9.633,1,0.0
6dgt2qu2enlze2oxudlmz2tv,5,3,34,3,1,md,0.0,27.036,1,0.0
6dgt2qu2enlze2oxudlmz2tv,6,3,13,3,2,pd,1.0,27.391,1,0.0
6dgt2qu2enlze2oxudlmz2tv,7,3,17,4,1,md,1.0,23.37,1,0.0
6dgt2qu2enlze2oxudlmz2tv,8,3,58,3,2,pd,1.0,14.405,1,0.0
6dgt2qu2enlze2oxudlmz2tv,9,3,72,4,1,md,1.0,27.853,1,0.0
6dgt2qu2enlze2oxudlmz2tv,10,3,40,4,2,pd,0.0,28.616,1,0.0
6dgt2qu2enlze2oxudlmz2tv,11,3,74,5,1,md,1.0,29.735,1,0.0
6dgt2qu2enlze2oxudlmz2tv,12,3,52,5,2,pd,1.0,17.47,1,0.0
6dgt2qu2enlze2oxudlmz2tv,13,3,75,6,1,md,0.0,28.902,1,0.0
6dgt2qu2enlze2oxudlmz2tv,14,3,76,5,2,pd,1.0,18.674,1,0.0
6dgt2qu2enlze2oxudlmz2tv,15,3,29,7,2,pd,1.0,16.733,1,0.0
6dgt2qu2enlze2oxudlmz2tv,16,3,45,7,1,md,1.0,12.701,1,0.0
6dsauyx0839dqhnltlqi16cm,1,3,28,2,2,pd,1.0,14.688,1,0.0
6dsauyx0839dqhnltlqi16cm,2,3,19,2,1,md,1.0,5.587,1,0.0
6dsauyx0839dqhnltlqi16cm,3,3,70,2,2,pd,1.0,6.972,1,0.0
6dsauyx0839dqhnltlqi16cm,4,3,49,2,1,md,1.0,6.215,1,0.0
6dsauyx0839dqhnltlqi16cm,5,3,18,3,1,md,1.0,8.765,1,0.0
6dsauyx0839dqhnltlqi16cm,6,3,37,3,2,pd,1.0,14.499,1,0.0
6dsauyx0839dqhnltlqi16cm,7,3,16,4,2,pd,1.0,12.577,1,0.0
6dsauyx0839dqhnltlqi16cm,8,3,56,3,1,md,1.0,14.364,1,0.0
6dsauyx0839dqhnltlqi16cm,9,3,23,4,1,md,1.0,16.88,1,0.0
6dsauyx0839dqhnltlqi16cm,10,3,79,4,2,pd,0.0,15.217,1,0.0
6dsauyx0839dqhnltlqi16cm,11,3,26,5,1,md,1.0,17.388,1,0.0
6dsauyx0839dqhnltlqi16cm,12,3,74,5,2,pd,1.0,17.83,1,0.0
6dsauyx0839dqhnltlqi16cm,13,3,64,6,2,pd,1.0,28.665,1,0.0
6dsauyx0839dqhnltlqi16cm,14,3,44,6,1,md,1.0,10.799,1,0.0
6dsauyx0839dqhnltlqi16cm,15,3,66,8,2,pd,1.0,18.941,1,0.0
6dsauyx0839dqhnltlqi16cm,16,3,30,7,1,md,1.0,12.357,1,0.0
6eywh4zy4by0a1c781864e0m,1,3,22,2,2,md,1.0,7.578,1,0.0
6eywh4zy4by0a1c781864e0m,2,3,25,2,1,pd,1.0,13.012,1,0.0
6eywh4zy4by0a1c781864e0m,3,3,61,2,2,md,1.0,9.47,1,0.0
6eywh4zy4by0a1c781864e0m,4,3,70,2,1,pd,1.0,15.078,1,0.0
6eywh4zy4by0a1c781864e0m,5,3,31,3,1,pd,1.0,16.338,1,0.0
6eywh4zy4by0a1c781864e0m,6,3,11,3,2,md,0.0,15.626,1,0.0
6eywh4zy4by0a1c781864e0m,7,3,12,4,1,pd,1.0,16.395,1,0.0
6eywh4zy4by0a1c781864e0m,8,3,69,3,2,md,1.0,10.564,1,0.0
6eywh4zy4by0a1c781864e0m,9,3,73,4,1,pd,1.0,17.198,1,0.0
6eywh4zy4by0a1c781864e0m,10,3,42,4,2,md,1.0,17.329,1,0.0
6eywh4zy4by0a1c781864e0m,11,3,74,5,1,pd,0.0,8.736,1,0.0
6eywh4zy4by0a1c781864e0m,12,3,80,4,2,md,0.0,9.754,1,0.0
6eywh4zy4by0a1c781864e0m,13,3,54,6,1,pd,0.0,20.906,1,0.0
6eywh4zy4by0a1c781864e0m,14,3,36,6,2,md,0.0,13.85,1,0.0
6eywh4zy4by0a1c781864e0m,15,3,35,8,1,pd,1.0,9.435,1,0.0
6eywh4zy4by0a1c781864e0m,16,3,30,7,2,md,0.0,8.401,1,0.0
6ml3i9hxab3g5ldho73rp53t,1,3,28,2,1,pd,1.0,8.357,1,0.0
6ml3i9hxab3g5ldho73rp53t,2,3,22,2,2,md,1.0,6.723,1,0.0
6ml3i9hxab3g5ldho73rp53t,3,3,51,2,2,md,1.0,9.874,1,0.0
6ml3i9hxab3g5ldho73rp53t,4,3,10,3,1,pd,1.0,11.465,1,0.0
6ml3i9hxab3g5ldho73rp53t,5,3,11,3,2,md,0.0,12.956,1,0.0
6ml3i9hxab3g5ldho73rp53t,6,3,27,3,1,pd,1.0,13.416,1,0.0
6ml3i9hxab3g5ldho73rp53t,7,3,69,3,2,md,1.0,10.05,1,0.0
6ml3i9hxab3g5ldho73rp53t,8,3,16,4,1,pd,1.0,5.795,1,0.0
6ml3i9hxab3g5ldho73rp53t,9,3,79,4,1,pd,1.0,18.554,1,0.0
6ml3i9hxab3g5ldho73rp53t,10,3,40,4,2,md,1.0,12.102,1,0.0
6ml3i9hxab3g5ldho73rp53t,11,3,74,5,1,pd,0.0,15.637,1,0.0
6ml3i9hxab3g5ldho73rp53t,12,3,26,5,2,md,1.0,16.55,1,0.0
6ml3i9hxab3g5ldho73rp53t,13,3,64,6,1,pd,0.0,15.62,1,0.0
6ml3i9hxab3g5ldho73rp53t,14,3,46,6,2,md,0.0,10.517,1,0.0
6ml3i9hxab3g5ldho73rp53t,15,3,29,7,2,md,0.0,13.402,1,0.0
6ml3i9hxab3g5ldho73rp53t,16,3,35,8,1,pd,1.0,9.53,1,0.0
6nprfiv7nfr7axt7mv51m4p4,1,3,19,2,1,md,1.0,10.146,1,0.0
6nprfiv7nfr7axt7mv51m4p4,2,3,39,2,2,pd,1.0,10.666,1,0.0
6nprfiv7nfr7axt7mv51m4p4,3,3,65,2,2,pd,0.0,20.066,1,0.0
6nprfiv7nfr7axt7mv51m4p4,4,3,61,2,1,md,0.0,26.476,1,0.0
6nprfiv7nfr7axt7mv51m4p4,5,3,37,3,2,pd,1.0,17.524,1,0.0
6nprfiv7nfr7axt7mv51m4p4,6,3,15,3,1,md,1.0,23.298,1,0.0
6nprfiv7nfr7axt7mv51m4p4,7,3,77,3,2,pd,1.0,12.702,1,0.0
6nprfiv7nfr7axt7mv51m4p4,8,3,58,3,1,md,1.0,13.005,1,0.0
6nprfiv7nfr7axt7mv51m4p4,9,3,73,4,2,pd,,,1,0.0
6nprfiv7nfr7axt7mv51m4p4,10,3,23,4,1,md,1.0,12.98,1,0.0
6nprfiv7nfr7axt7mv51m4p4,11,3,67,5,2,pd,1.0,12.647,1,0.0
6nprfiv7nfr7axt7mv51m4p4,12,3,26,5,1,md,0.0,22.728,1,0.0
6nprfiv7nfr7axt7mv51m4p4,13,3,54,6,2,pd,1.0,15.328,1,0.0
6nprfiv7nfr7axt7mv51m4p4,14,3,46,6,1,md,1.0,23.749,1,0.0
6nprfiv7nfr7axt7mv51m4p4,15,3,35,8,2,pd,0.0,12.486,1,0.0
6nprfiv7nfr7axt7mv51m4p4,16,3,24,7,1,md,0.0,1.951,1,0.0
6pu02mdi58xe1h5bt0sln0th,1,3,20,2,2,md,1.0,19.885,1,0.0
6pu02mdi58xe1h5bt0sln0th,2,3,47,2,1,pd,1.0,13.911,1,0.0
6pu02mdi58xe1h5bt0sln0th,3,3,49,2,2,md,1.0,9.712,1,0.0
6pu02mdi58xe1h5bt0sln0th,4,3,70,2,1,pd,1.0,14.471,1,0.0
6pu02mdi58xe1h5bt0sln0th,5,3,11,3,2,md,0.0,21.494,1,0.0
6pu02mdi58xe1h5bt0sln0th,6,3,31,3,1,pd,1.0,22.253,1,0.0
6pu02mdi58xe1h5bt0sln0th,7,3,77,3,1,pd,1.0,16.429,1,0.0
6pu02mdi58xe1h5bt0sln0th,8,3,62,3,2,md,1.0,10.351,1,0.0
6pu02mdi58xe1h5bt0sln0th,9,3,40,4,2,md,1.0,21.985,1,0.0
6pu02mdi58xe1h5bt0sln0th,10,3,79,4,1,pd,1.0,14.679,1,0.0
6pu02mdi58xe1h5bt0sln0th,11,3,14,5,2,md,1.0,20.853,1,0.0
6pu02mdi58xe1h5bt0sln0th,12,3,63,5,1,pd,1.0,18.821,1,0.0
6pu02mdi58xe1h5bt0sln0th,13,3,36,6,2,md,0.0,19.888,1,0.0
6pu02mdi58xe1h5bt0sln0th,14,3,75,6,1,pd,1.0,15.919,1,0.0
6pu02mdi58xe1h5bt0sln0th,15,3,24,7,2,md,0.0,22.87,1,0.0
6pu02mdi58xe1h5bt0sln0th,16,3,45,7,1,pd,1.0,9.203,1,0.0
6sqzntxosrpt76sm28lb0w81,1,3,22,2,1,pd,1.0,11.348,1,0.0
6sqzntxosrpt76sm28lb0w81,2,3,25,2,2,md,1.0,17.544,1,0.0
6sqzntxosrpt76sm28lb0w81,3,3,61,2,1,pd,1.0,26.371,1,0.0
6sqzntxosrpt76sm28lb0w81,4,3,71,2,2,md,1.0,17.197,1,0.0
6sqzntxosrpt76sm28lb0w81,5,3,37,3,2,md,1.0,27.782,1,0.0
6sqzntxosrpt76sm28lb0w81,6,3,13,3,1,pd,1.0,25.286,1,0.0
6sqzntxosrpt76sm28lb0w81,7,3,62,3,1,pd,1.0,8.719,1,0.0
6sqzntxosrpt76sm28lb0w81,8,3,16,4,2,md,1.0,20.643,1,0.0
6sqzntxosrpt76sm28lb0w81,9,3,42,4,1,pd,1.0,22.53,1,0.0
6sqzntxosrpt76sm28lb0w81,10,3,79,4,2,md,1.0,23.778,1,0.0
6sqzntxosrpt76sm28lb0w81,11,3,67,5,2,md,1.0,22.855,1,0.0
6sqzntxosrpt76sm28lb0w81,12,3,52,5,1,pd,1.0,20.886,1,0.0
6sqzntxosrpt76sm28lb0w81,13,3,54,6,2,md,0.0,12.74,1,0.0
6sqzntxosrpt76sm28lb0w81,14,3,76,5,1,pd,1.0,10.226,1,0.0
6sqzntxosrpt76sm28lb0w81,15,3,29,7,1,pd,1.0,18.734,1,0.0
6sqzntxosrpt76sm28lb0w81,16,3,35,8,2,md,1.0,19.529,1,0.0
71a0cmlv8tcccrsg49rz5ty6,1,3,39,2,1,md,0.0,15.951,0,0.0
71a0cmlv8tcccrsg49rz5ty6,2,3,19,2,2,pd,0.0,17.894,0,0.0
71a0cmlv8tcccrsg49rz5ty6,3,3,71,2,1,md,1.0,8.23,0,0.0
71a0cmlv8tcccrsg49rz5ty6,4,3,50,2,2,pd,0.0,18.981,0,0.0
71a0cmlv8tcccrsg49rz5ty6,5,3,18,3,2,pd,0.0,9.95,0,0.0
71a0cmlv8tcccrsg49rz5ty6,6,3,31,3,1,md,0.0,18.888,0,0.0
71a0cmlv8tcccrsg49rz5ty6,7,3,77,3,1,md,0.0,4.85,0,0.0
71a0cmlv8tcccrsg49rz5ty6,8,3,58,3,2,pd,0.0,13.98,0,0.0
71a0cmlv8tcccrsg49rz5ty6,9,3,40,4,2,pd,0.0,6.008,0,0.0
71a0cmlv8tcccrsg49rz5ty6,10,3,73,4,1,md,0.0,3.442,0,0.0
71a0cmlv8tcccrsg49rz5ty6,11,3,59,5,1,md,0.0,5.651,0,0.0
71a0cmlv8tcccrsg49rz5ty6,12,3,14,5,2,pd,1.0,4.463,0,0.0
71a0cmlv8tcccrsg49rz5ty6,13,3,76,5,2,pd,1.0,13.033,0,0.0
71a0cmlv8tcccrsg49rz5ty6,14,3,64,6,1,md,0.0,22.49,0,0.0
71a0cmlv8tcccrsg49rz5ty6,15,3,21,7,2,pd,0.0,0.884,0,0.0
71a0cmlv8tcccrsg49rz5ty6,16,3,35,8,1,md,1.0,8.31,0,0.0
77ns1fox63i44jwup2r16uud,1,3,20,2,1,pd,1.0,8.242,1,0.0
77ns1fox63i44jwup2r16uud,2,3,28,2,2,md,1.0,13.579,1,0.0
77ns1fox63i44jwup2r16uud,3,3,49,2,1,pd,1.0,7.988,1,0.0
77ns1fox63i44jwup2r16uud,4,3,10,3,2,md,1.0,7.509,1,0.0
77ns1fox63i44jwup2r16uud,5,3,15,3,1,pd,0.0,29.321,1,0.0
77ns1fox63i44jwup2r16uud,6,3,34,3,2,md,1.0,25.819,1,0.0
77ns1fox63i44jwup2r16uud,7,3,69,3,1,pd,1.0,18.254,1,0.0
77ns1fox63i44jwup2r16uud,8,3,17,4,2,md,1.0,12.612,1,0.0
77ns1fox63i44jwup2r16uud,9,3,60,4,2,md,1.0,27.477,1,0.0
77ns1fox63i44jwup2r16uud,10,3,23,4,1,pd,1.0,8.9,1,0.0
77ns1fox63i44jwup2r16uud,11,3,26,5,1,pd,1.0,28.191,1,0.0
77ns1fox63i44jwup2r16uud,12,3,63,5,2,md,1.0,13.45,1,0.0
77ns1fox63i44jwup2r16uud,13,3,44,6,1,pd,1.0,16.302,1,0.0
77ns1fox63i44jwup2r16uud,14,3,64,6,2,md,1.0,27.087,1,2.0
77ns1fox63i44jwup2r16uud,15,3,45,7,2,md,1.0,9.298,1,0.0
77ns1fox63i44jwup2r16uud,16,3,30,7,1,pd,1.0,7.508,1,0.0
77poyt1iy1cqjcjztrjtaqk2,1,3,20,2,2,md,1.0,6.947,1,0.0
77poyt1iy1cqjcjztrjtaqk2,2,3,47,2,1,pd,1.0,15.268,1,0.0
77poyt1iy1cqjcjztrjtaqk2,3,3,10,3,1,pd,1.0,13.873,1,0.0
77poyt1iy1cqjcjztrjtaqk2,4,3,49,2,2,md,1.0,6.187,1,0.0
77poyt1iy1cqjcjztrjtaqk2,5,3,11,3,2,md,0.0,16.047,1,0.0
77poyt1iy1cqjcjztrjtaqk2,6,3,37,3,1,pd,1.0,13.11,1,0.0
77poyt1iy1cqjcjztrjtaqk2,7,3,12,4,1,pd,1.0,4.449,1,0.0
77poyt1iy1cqjcjztrjtaqk2,8,3,69,3,2,md,0.0,2.406,1,0.0
77poyt1iy1cqjcjztrjtaqk2,9,3,73,4,1,pd,1.0,18.288,1,0.0
77poyt1iy1cqjcjztrjtaqk2,10,3,53,4,2,md,1.0,4.099,1,0.0
77poyt1iy1cqjcjztrjtaqk2,11,3,14,5,2,md,0.0,8.097,1,0.0
77poyt1iy1cqjcjztrjtaqk2,12,3,74,5,1,pd,1.0,4.558,1,0.0
77poyt1iy1cqjcjztrjtaqk2,13,3,76,5,2,md,0.0,3.584,1,0.0
77poyt1iy1cqjcjztrjtaqk2,14,3,75,6,1,pd,1.0,12.232,1,0.0
77poyt1iy1cqjcjztrjtaqk2,15,3,29,7,2,md,1.0,23.655,1,0.0
77poyt1iy1cqjcjztrjtaqk2,16,3,66,8,1,pd,0.0,6.891,1,0.0
7e1qtuicoel8euz710kf6m0t,1,3,19,2,2,pd,1.0,4.869,1,0.0
7e1qtuicoel8euz710kf6m0t,2,3,25,2,1,md,1.0,6.773,1,0.0
7e1qtuicoel8euz710kf6m0t,3,3,10,3,1,md,1.0,11.225,1,0.0
7e1qtuicoel8euz710kf6m0t,4,3,49,2,2,pd,1.0,4.775,1,0.0
7e1qtuicoel8euz710kf6m0t,5,3,27,3,1,md,1.0,10.402,1,0.0
7e1qtuicoel8euz710kf6m0t,6,3,11,3,2,pd,1.0,14.736,1,0.0
7e1qtuicoel8euz710kf6m0t,7,3,12,4,1,md,0.0,9.27,1,0.0
7e1qtuicoel8euz710kf6m0t,8,3,62,3,2,pd,1.0,3.778,1,0.0
7e1qtuicoel8euz710kf6m0t,9,3,79,4,1,md,0.0,7.206,1,0.0
7e1qtuicoel8euz710kf6m0t,10,3,42,4,2,pd,1.0,7.169,1,0.0
7e1qtuicoel8euz710kf6m0t,11,3,26,5,2,pd,0.0,7.898,1,0.0
7e1qtuicoel8euz710kf6m0t,12,3,74,5,1,md,0.0,3.136,1,0.0
7e1qtuicoel8euz710kf6m0t,13,3,36,6,2,pd,0.0,3.376,1,0.0
7e1qtuicoel8euz710kf6m0t,14,3,64,6,1,md,0.0,1.888,1,0.0
7e1qtuicoel8euz710kf6m0t,15,3,66,8,1,md,0.0,2.523,1,0.0
7e1qtuicoel8euz710kf6m0t,16,3,21,7,2,pd,1.0,4.023,1,0.0
7escbsueprx85mqubp6ejsc1,1,3,39,2,2,md,1.0,29.681,1,0.0
7escbsueprx85mqubp6ejsc1,2,3,22,2,1,pd,1.0,14.831,1,0.0
7escbsueprx85mqubp6ejsc1,3,3,50,2,1,pd,1.0,13.685,1,0.0
7escbsueprx85mqubp6ejsc1,4,3,10,3,2,md,1.0,16.475,1,0.0
7escbsueprx85mqubp6ejsc1,5,3,13,3,1,pd,0.0,22.94,1,0.0
7escbsueprx85mqubp6ejsc1,6,3,34,3,2,md,1.0,22.654,1,0.0
7escbsueprx85mqubp6ejsc1,7,3,56,3,1,pd,1.0,27.834,1,0.0
7escbsueprx85mqubp6ejsc1,8,3,17,4,2,md,1.0,26.975,1,0.0
7escbsueprx85mqubp6ejsc1,9,3,72,4,2,md,1.0,28.334,1,0.0
7escbsueprx85mqubp6ejsc1,10,3,53,4,1,pd,1.0,26.54,1,0.0
7escbsueprx85mqubp6ejsc1,11,3,74,5,2,md,1.0,27.874,1,0.0
7escbsueprx85mqubp6ejsc1,12,3,14,5,1,pd,0.0,28.821,1,0.0
7escbsueprx85mqubp6ejsc1,13,3,75,6,2,md,1.0,28.94,1,0.0
7escbsueprx85mqubp6ejsc1,14,3,44,6,1,pd,1.0,27.868,1,0.0
7escbsueprx85mqubp6ejsc1,15,3,30,7,1,pd,1.0,27.798,1,0.0
7escbsueprx85mqubp6ejsc1,16,3,78,7,2,md,0.0,28.576,1,0.0
7n3smquj1y0u5ggz6o4feidf,1,3,39,2,2,md,0.0,3.438,1,0.0
7n3smquj1y0u5ggz6o4feidf,2,3,19,2,1,pd,1.0,6.551,1,0.0
7n3smquj1y0u5ggz6o4feidf,3,3,10,3,2,md,1.0,7.656,1,0.0
7n3smquj1y0u5ggz6o4feidf,4,3,61,2,1,pd,1.0,9.532,1,0.0
7n3smquj1y0u5ggz6o4feidf,5,3,31,3,2,md,0.0,12.915,1,0.0
7n3smquj1y0u5ggz6o4feidf,6,3,15,3,1,pd,1.0,7.878,1,0.0
7n3smquj1y0u5ggz6o4feidf,7,3,69,3,1,pd,1.0,7.828,1,0.0
7n3smquj1y0u5ggz6o4feidf,8,3,16,4,2,md,0.0,4.772,1,0.0
7n3smquj1y0u5ggz6o4feidf,9,3,23,4,1,pd,0.0,3.847,1,0.0
7n3smquj1y0u5ggz6o4feidf,10,3,73,4,2,md,0.0,3.314,1,0.0
7n3smquj1y0u5ggz6o4feidf,11,3,67,5,2,md,0.0,2.115,1,0.0
7n3smquj1y0u5ggz6o4feidf,12,3,52,5,1,pd,1.0,8.29,1,0.0
7n3smquj1y0u5ggz6o4feidf,13,3,44,6,1,pd,0.0,3.932,1,0.0
7n3smquj1y0u5ggz6o4feidf,14,3,64,6,2,md,1.0,2.972,1,0.0
7n3smquj1y0u5ggz6o4feidf,15,3,21,7,1,pd,0.0,1.107,1,0.0
7n3smquj1y0u5ggz6o4feidf,16,3,66,8,2,md,0.0,2.553,1,0.0
7o693dgge46kfallr2wivb9t,1,3,6,2,1,pd,1.0,12.97,1,0.0
7o693dgge46kfallr2wivb9t,2,3,28,2,2,md,1.0,19.916,1,0.0
7o693dgge46kfallr2wivb9t,3,3,70,2,2,md,1.0,9.123,1,0.0
7o693dgge46kfallr2wivb9t,4,3,61,2,1,pd,1.0,22.301,1,0.0
7o693dgge46kfallr2wivb9t,5,3,15,3,1,pd,1.0,12.229,1,0.0
7o693dgge46kfallr2wivb9t,6,3,34,3,2,md,,,1,0.0
7o693dgge46kfallr2wivb9t,7,3,77,3,2,md,1.0,13.45,1,0.0
7o693dgge46kfallr2wivb9t,8,3,62,3,1,pd,1.0,8.695,1,0.0
7o693dgge46kfallr2wivb9t,9,3,79,4,2,md,,,1,0.0
7o693dgge46kfallr2wivb9t,10,3,23,4,1,pd,1.0,7.018,1,0.0
7o693dgge46kfallr2wivb9t,11,3,74,5,2,md,1.0,17.923,1,0.0
7o693dgge46kfallr2wivb9t,12,3,80,4,1,pd,1.0,6.083,1,0.0
7o693dgge46kfallr2wivb9t,13,3,44,6,1,pd,1.0,10.062,1,0.0
7o693dgge46kfallr2wivb9t,14,3,55,6,2,md,0.0,13.903,1,0.0
7o693dgge46kfallr2wivb9t,15,3,45,7,2,md,1.0,13.338,1,0.0
7o693dgge46kfallr2wivb9t,16,3,21,7,1,pd,1.0,9.286,1,0.0
7x6ngqb8r29sszek04wz6876,1,3,28,2,1,md,0.0,13.052,0,0.0
7x6ngqb8r29sszek04wz6876,2,3,20,2,2,pd,1.0,7.796,0,0.0
7x6ngqb8r29sszek04wz6876,3,3,70,2,1,md,0.0,10.442,0,0.0
7x6ngqb8r29sszek04wz6876,4,3,50,2,2,pd,0.0,5.216,0,0.0
7x6ngqb8r29sszek04wz6876,5,3,34,3,1,md,0.0,10.138,0,0.0
7x6ngqb8r29sszek04wz6876,6,3,15,3,2,pd,1.0,5.336,0,0.0
7x6ngqb8r29sszek04wz6876,7,3,56,3,2,pd,0.0,9.375,0,0.0
7x6ngqb8r29sszek04wz6876,8,3,16,4,1,md,0.0,9.475,0,0.0
7x6ngqb8r29sszek04wz6876,9,3,40,4,2,pd,0.0,6.385,0,0.0
7x6ngqb8r29sszek04wz6876,10,3,72,4,1,md,0.0,5.204,0,0.0
7x6ngqb8r29sszek04wz6876,11,3,52,5,2,pd,0.0,7.894,0,0.0
7x6ngqb8r29sszek04wz6876,12,3,74,5,1,md,1.0,4.959,0,0.0
7x6ngqb8r29sszek04wz6876,13,3,36,6,2,pd,0.0,9.493,0,0.0
7x6ngqb8r29sszek04wz6876,14,3,64,6,1,md,0.0,5.516,0,0.0
7x6ngqb8r29sszek04wz6876,15,3,24,7,2,pd,0.0,3.594,0,0.0
7x6ngqb8r29sszek04wz6876,16,3,35,8,1,md,0.0,3.443,0,0.0
7xfgwhsicmn01xvjvttcoxae,1,3,6,2,2,pd,0.0,5.525,1,0.0
7xfgwhsicmn01xvjvttcoxae,2,3,28,2,1,md,1.0,26.456,1,0.0
7xfgwhsicmn01xvjvttcoxae,3,3,70,2,1,md,1.0,6.728,1,0.0
7xfgwhsicmn01xvjvttcoxae,4,3,49,2,2,pd,1.0,10.242,1,0.0
7xfgwhsicmn01xvjvttcoxae,5,3,18,3,2,pd,1.0,15.201,1,0.0
7xfgwhsicmn01xvjvttcoxae,6,3,31,3,1,md,1.0,25.362,1,0.0
7xfgwhsicmn01xvjvttcoxae,7,3,62,3,2,pd,1.0,9.769,1,0.0
7xfgwhsicmn01xvjvttcoxae,8,3,16,4,1,md,1.0,26.273,1,0.0
7xfgwhsicmn01xvjvttcoxae,9,3,53,4,2,pd,1.0,10.962,1,0.0
7xfgwhsicmn01xvjvttcoxae,10,3,73,4,1,md,1.0,28.104,1,0.0
7xfgwhsicmn01xvjvttcoxae,11,3,67,5,1,md,1.0,11.138,1,0.0
7xfgwhsicmn01xvjvttcoxae,12,3,80,4,2,pd,1.0,12.667,1,0.0
7xfgwhsicmn01xvjvttcoxae,13,3,46,6,2,pd,1.0,8.187,1,0.0
7xfgwhsicmn01xvjvttcoxae,14,3,55,6,1,md,0.0,23.153,1,0.0
7xfgwhsicmn01xvjvttcoxae,15,3,24,7,2,pd,0.0,6.873,1,0.0
7xfgwhsicmn01xvjvttcoxae,16,3,66,8,1,md,0.0,27.418,1,0.0
7zx5y8m5887yrnnoqc2xfk5a,1,3,20,2,2,pd,0.0,16.57,1,0.0
7zx5y8m5887yrnnoqc2xfk5a,2,3,28,2,1,md,0.0,16.624,1,0.0
7zx5y8m5887yrnnoqc2xfk5a,3,3,50,2,2,pd,0.0,28.57,1,0.0
7zx5y8m5887yrnnoqc2xfk5a,4,3,65,2,1,md,1.0,11.351,1,0.0
7zx5y8m5887yrnnoqc2xfk5a,5,3,27,3,1,md,1.0,15.388,1,0.0
7zx5y8m5887yrnnoqc2xfk5a,6,3,11,3,2,pd,0.0,26.938,1,0.0
7zx5y8m5887yrnnoqc2xfk5a,7,3,12,4,1,md,0.0,12.62,1,0.0
7zx5y8m5887yrnnoqc2xfk5a,8,3,56,3,2,pd,0.0,15.348,1,0.0
7zx5y8m5887yrnnoqc2xfk5a,9,3,53,4,2,pd,0.0,14.34,1,0.0
7zx5y8m5887yrnnoqc2xfk5a,10,3,73,4,1,md,0.0,7.633,1,0.0
7zx5y8m5887yrnnoqc2xfk5a,11,3,67,5,1,md,1.0,8.832,1,0.0
7zx5y8m5887yrnnoqc2xfk5a,12,3,52,5,2,pd,0.0,8.424,1,0.0
7zx5y8m5887yrnnoqc2xfk5a,13,3,54,6,1,md,0.0,4.676,1,0.0
7zx5y8m5887yrnnoqc2xfk5a,14,3,36,6,2,pd,0.0,25.123,1,0.0
7zx5y8m5887yrnnoqc2xfk5a,15,3,30,7,2,pd,1.0,4.797,1,0.0
7zx5y8m5887yrnnoqc2xfk5a,16,3,78,7,1,md,0.0,16.273,1,0.0
81lfve8j4tgfyj20fo1gx0nj,1,3,19,2,1,pd,1.0,7.818,1,0.0
81lfve8j4tgfyj20fo1gx0nj,2,3,28,2,2,md,1.0,16.976,1,0.0
81lfve8j4tgfyj20fo1gx0nj,3,3,61,2,1,pd,1.0,8.514,1,0.0
81lfve8j4tgfyj20fo1gx0nj,4,3,71,2,2,md,1.0,7.428,1,0.0
81lfve8j4tgfyj20fo1gx0nj,5,3,15,3,1,pd,1.0,10.434,1,0.0
81lfve8j4tgfyj20fo1gx0nj,6,3,27,3,2,md,1.0,10.793,1,0.0
81lfve8j4tgfyj20fo1gx0nj,7,3,17,4,2,md,0.0,19.948,1,0.0
81lfve8j4tgfyj20fo1gx0nj,8,3,62,3,1,pd,1.0,9.864,1,0.0
81lfve8j4tgfyj20fo1gx0nj,9,3,73,4,2,md,1.0,26.327,1,0.0
81lfve8j4tgfyj20fo1gx0nj,10,3,40,4,1,pd,1.0,11.058,1,0.0
81lfve8j4tgfyj20fo1gx0nj,11,3,52,5,1,pd,1.0,9.13,1,0.0
81lfve8j4tgfyj20fo1gx0nj,12,3,74,5,2,md,1.0,14.698,1,0.0
81lfve8j4tgfyj20fo1gx0nj,13,3,44,6,1,pd,0.0,18.597,1,0.0
81lfve8j4tgfyj20fo1gx0nj,14,3,75,6,2,md,0.0,21.714,1,0.0
81lfve8j4tgfyj20fo1gx0nj,15,3,35,8,2,md,1.0,17.441,1,0.0
81lfve8j4tgfyj20fo1gx0nj,16,3,29,7,1,pd,1.0,16.67,1,0.0
873jao078mf4v86xccmcv7vj,1,3,25,2,2,md,1.0,10.791,1,0.0
873jao078mf4v86xccmcv7vj,2,3,19,2,1,pd,1.0,7.373,1,0.0
873jao078mf4v86xccmcv7vj,3,3,10,3,2,md,1.0,12.455,1,0.0
873jao078mf4v86xccmcv7vj,4,3,49,2,1,pd,0.0,7.125,1,0.0
873jao078mf4v86xccmcv7vj,5,3,11,3,1,pd,1.0,14.834,1,0.0
873jao078mf4v86xccmcv7vj,6,3,34,3,2,md,1.0,19.102,1,0.0
873jao078mf4v86xccmcv7vj,7,3,12,4,2,md,1.0,29.725,1,0.0
873jao078mf4v86xccmcv7vj,8,3,69,3,1,pd,1.0,11.784,1,0.0
873jao078mf4v86xccmcv7vj,9,3,23,4,1,pd,1.0,7.27,1,0.0
873jao078mf4v86xccmcv7vj,10,3,73,4,2,md,1.0,19.639,1,0.0
873jao078mf4v86xccmcv7vj,11,3,67,5,2,md,1.0,17.715,1,0.0
873jao078mf4v86xccmcv7vj,12,3,14,5,1,pd,1.0,29.764,1,0.0
873jao078mf4v86xccmcv7vj,13,3,46,6,1,pd,1.0,27.302,1,0.0
873jao078mf4v86xccmcv7vj,14,3,55,6,2,md,1.0,13.863,1,0.0
873jao078mf4v86xccmcv7vj,15,3,24,7,1,pd,1.0,23.114,1,0.0
873jao078mf4v86xccmcv7vj,16,3,78,7,2,md,1.0,8.564,1,0.0
8qnoyczn985a0zzvg8iv7gfk,1,3,28,2,1,pd,1.0,11.518,1,0.0
8qnoyczn985a0zzvg8iv7gfk,2,3,19,2,2,md,0.0,11.088,1,0.0
8qnoyczn985a0zzvg8iv7gfk,3,3,49,2,2,md,1.0,5.789,1,0.0
8qnoyczn985a0zzvg8iv7gfk,4,3,70,2,1,pd,1.0,7.388,1,0.0
8qnoyczn985a0zzvg8iv7gfk,5,3,18,3,2,md,0.0,19.633,1,0.0
8qnoyczn985a0zzvg8iv7gfk,6,3,37,3,1,pd,1.0,21.258,1,0.0
8qnoyczn985a0zzvg8iv7gfk,7,3,77,3,1,pd,0.0,11.885,1,0.0
8qnoyczn985a0zzvg8iv7gfk,8,3,58,3,2,md,1.0,14.035,1,0.0
8qnoyczn985a0zzvg8iv7gfk,9,3,60,4,1,pd,0.0,22.264,1,0.0
8qnoyczn985a0zzvg8iv7gfk,10,3,23,4,2,md,0.0,18.58,1,0.0
8qnoyczn985a0zzvg8iv7gfk,11,3,67,5,1,pd,1.0,9.737,1,0.0
8qnoyczn985a0zzvg8iv7gfk,12,3,52,5,2,md,1.0,16.181,1,0.0
8qnoyczn985a0zzvg8iv7gfk,13,3,55,6,1,pd,0.0,7.434,1,0.0
8qnoyczn985a0zzvg8iv7gfk,14,3,44,6,2,md,0.0,23.673,1,0.0
8qnoyczn985a0zzvg8iv7gfk,15,3,45,7,1,pd,1.0,11.722,1,2.0
8qnoyczn985a0zzvg8iv7gfk,16,3,30,7,2,md,1.0,19.437,1,0.0
8t7d0pmrn1b87qagwkta8lg1,1,3,6,2,1,md,1.0,12.269,1,0.0
8t7d0pmrn1b87qagwkta8lg1,2,3,39,2,2,pd,1.0,27.406,1,0.0
8t7d0pmrn1b87qagwkta8lg1,3,3,61,2,1,md,1.0,12.589,1,0.0
8t7d0pmrn1b87qagwkta8lg1,4,3,71,2,2,pd,1.0,10.938,1,0.0
8t7d0pmrn1b87qagwkta8lg1,5,3,31,3,2,pd,1.0,17.954,1,0.0
8t7d0pmrn1b87qagwkta8lg1,6,3,13,3,1,md,1.0,11.328,1,0.0
8t7d0pmrn1b87qagwkta8lg1,7,3,12,4,2,pd,1.0,25.539,1,0.0
8t7d0pmrn1b87qagwkta8lg1,8,3,69,3,1,md,0.0,14.214,1,0.0
8t7d0pmrn1b87qagwkta8lg1,9,3,53,4,1,md,0.0,21.356,1,0.0
8t7d0pmrn1b87qagwkta8lg1,10,3,72,4,2,pd,1.0,16.916,1,0.0
8t7d0pmrn1b87qagwkta8lg1,11,3,67,5,2,pd,1.0,9.553,1,0.0
8t7d0pmrn1b87qagwkta8lg1,12,3,26,5,1,md,1.0,19.228,1,0.0
8t7d0pmrn1b87qagwkta8lg1,13,3,76,5,1,md,0.0,25.568,1,0.0
8t7d0pmrn1b87qagwkta8lg1,14,3,64,6,2,pd,1.0,25.263,1,0.0
8t7d0pmrn1b87qagwkta8lg1,15,3,45,7,2,pd,1.0,13.887,1,0.0
8t7d0pmrn1b87qagwkta8lg1,16,3,30,7,1,md,1.0,13.938,1,0.0
96d32q3ghoqw31xzl9a9fe5y,1,3,20,2,1,md,0.0,5.712,1,0.0
96d32q3ghoqw31xzl9a9fe5y,2,3,28,2,2,pd,0.0,13.46,1,2.0
96d32q3ghoqw31xzl9a9fe5y,3,3,10,3,2,pd,1.0,19.249,1,0.0
96d32q3ghoqw31xzl9a9fe5y,4,3,51,2,1,md,1.0,13.406,1,0.0
96d32q3ghoqw31xzl9a9fe5y,5,3,37,3,2,pd,1.0,16.895,1,0.0
96d32q3ghoqw31xzl9a9fe5y,6,3,15,3,1,md,1.0,19.929,1,0.0
96d32q3ghoqw31xzl9a9fe5y,7,3,58,3,1,md,1.0,22.328,1,0.0
96d32q3ghoqw31xzl9a9fe5y,8,3,17,4,2,pd,1.0,22.379,1,0.0
96d32q3ghoqw31xzl9a9fe5y,9,3,73,4,2,pd,1.0,27.729,1,0.0
96d32q3ghoqw31xzl9a9fe5y,10,3,42,4,1,md,0.0,12.688,1,0.0
96d32q3ghoqw31xzl9a9fe5y,11,3,59,5,2,pd,1.0,15.196,1,0.0
96d32q3ghoqw31xzl9a9fe5y,12,3,52,5,1,md,0.0,20.316,1,0.0
96d32q3ghoqw31xzl9a9fe5y,13,3,75,6,2,pd,1.0,25.188,1,0.0
96d32q3ghoqw31xzl9a9fe5y,14,3,76,5,1,md,1.0,29.539,1,0.0
96d32q3ghoqw31xzl9a9fe5y,15,3,78,7,2,pd,0.0,23.085,1,0.0
96d32q3ghoqw31xzl9a9fe5y,16,3,29,7,1,md,1.0,25.39,1,0.0
9f66o33e03dp9zq1aqgl39ma,1,3,25,2,1,pd,1.0,11.589,1,0.0
9f66o33e03dp9zq1aqgl39ma,2,3,19,2,2,md,1.0,20.275,1,0.0
9f66o33e03dp9zq1aqgl39ma,3,3,61,2,2,md,1.0,28.405,1,0.0
9f66o33e03dp9zq1aqgl39ma,4,3,10,3,1,pd,1.0,12.338,1,0.0
9f66o33e03dp9zq1aqgl39ma,5,3,15,3,2,md,1.0,18.123,1,0.0
9f66o33e03dp9zq1aqgl39ma,6,3,37,3,1,pd,0.0,13.17,1,0.0
9f66o33e03dp9zq1aqgl39ma,7,3,56,3,2,md,0.0,25.342,1,0.0
9f66o33e03dp9zq1aqgl39ma,8,3,77,3,1,pd,1.0,15.807,1,0.0
9f66o33e03dp9zq1aqgl39ma,9,3,60,4,1,pd,1.0,17.514,1,0.0
9f66o33e03dp9zq1aqgl39ma,10,3,40,4,2,md,0.0,25.597,1,0.0
9f66o33e03dp9zq1aqgl39ma,11,3,52,5,2,md,1.0,17.444,1,0.0
9f66o33e03dp9zq1aqgl39ma,12,3,59,5,1,pd,1.0,19.42,1,0.0
9f66o33e03dp9zq1aqgl39ma,13,3,76,5,2,md,0.0,10.019,1,0.0
9f66o33e03dp9zq1aqgl39ma,14,3,64,6,1,pd,0.0,14.901,1,0.0
9f66o33e03dp9zq1aqgl39ma,15,3,66,8,1,pd,1.0,13.065,1,0.0
9f66o33e03dp9zq1aqgl39ma,16,3,21,7,2,md,1.0,22.516,1,0.0
9k53ht6h0096rwmabzdwat9q,1,3,6,2,2,pd,1.0,11.858,1,0.0
9k53ht6h0096rwmabzdwat9q,2,3,25,2,1,md,1.0,11.446,1,0.0
9k53ht6h0096rwmabzdwat9q,3,3,70,2,1,md,1.0,19.609,1,0.0
9k53ht6h0096rwmabzdwat9q,4,3,50,2,2,pd,1.0,19.492,1,0.0
9k53ht6h0096rwmabzdwat9q,5,3,31,3,1,md,0.0,24.653,1,0.0
9k53ht6h0096rwmabzdwat9q,6,3,11,3,2,pd,1.0,25.459,1,0.0
9k53ht6h0096rwmabzdwat9q,7,3,62,3,2,pd,1.0,8.88,1,0.0
9k53ht6h0096rwmabzdwat9q,8,3,16,4,1,md,1.0,17.941,1,0.0
9k53ht6h0096rwmabzdwat9q,9,3,73,4,1,md,1.0,25.156,1,0.0
9k53ht6h0096rwmabzdwat9q,10,3,23,4,2,pd,1.0,22.873,1,0.0
9k53ht6h0096rwmabzdwat9q,11,3,74,5,1,md,0.0,25.628,1,0.0
9k53ht6h0096rwmabzdwat9q,12,3,14,5,2,pd,1.0,21.615,1,0.0
9k53ht6h0096rwmabzdwat9q,13,3,55,6,1,md,1.0,15.597,1,0.0
9k53ht6h0096rwmabzdwat9q,14,3,44,6,2,pd,1.0,24.143,1,0.0
9k53ht6h0096rwmabzdwat9q,15,3,24,7,2,pd,1.0,11.807,1,0.0
9k53ht6h0096rwmabzdwat9q,16,3,35,8,1,md,1.0,10.59,1,0.0
9kdpimklx03e225ptr8p71hl,1,3,19,2,1,pd,1.0,16.875,1,0.0
9kdpimklx03e225ptr8p71hl,2,3,47,2,2,md,0.0,28.406,1,0.0
9kdpimklx03e225ptr8p71hl,3,3,70,2,2,md,1.0,14.838,1,0.0
9kdpimklx03e225ptr8p71hl,4,3,50,2,1,pd,1.0,13.464,1,0.0
9kdpimklx03e225ptr8p71hl,5,3,34,3,2,md,0.0,25.64,1,0.0
9kdpimklx03e225ptr8p71hl,6,3,11,3,1,pd,1.0,16.73,1,0.0
9kdpimklx03e225ptr8p71hl,7,3,56,3,1,pd,1.0,14.862,1,0.0
9kdpimklx03e225ptr8p71hl,8,3,77,3,2,md,1.0,16.998,1,0.0
9kdpimklx03e225ptr8p71hl,9,3,60,4,2,md,,,1,0.0
9kdpimklx03e225ptr8p71hl,10,3,40,4,1,pd,0.0,23.836,1,0.0
9kdpimklx03e225ptr8p71hl,11,3,67,5,2,md,1.0,17.821,1,0.0
9kdpimklx03e225ptr8p71hl,12,3,14,5,1,pd,1.0,23.961,1,0.0
9kdpimklx03e225ptr8p71hl,13,3,46,6,1,pd,1.0,26.97,1,0.0
9kdpimklx03e225ptr8p71hl,14,3,54,6,2,md,1.0,16.233,1,0.0
9kdpimklx03e225ptr8p71hl,15,3,29,7,1,pd,1.0,13.326,1,0.0
9kdpimklx03e225ptr8p71hl,16,3,35,8,2,md,1.0,29.564,1,0.0
9n3ckjytby15xji8m3759ga0,1,3,6,2,2,md,1.0,6.201,1,0.0
9n3ckjytby15xji8m3759ga0,2,3,47,2,1,pd,0.0,12.448,1,0.0
9n3ckjytby15xji8m3759ga0,3,3,50,2,2,md,1.0,12.628,1,0.0
9n3ckjytby15xji8m3759ga0,4,3,70,2,1,pd,1.0,5.857,1,0.0
9n3ckjytby15xji8m3759ga0,5,3,27,3,1,pd,0.0,7.56,1,0.0
9n3ckjytby15xji8m3759ga0,6,3,13,3,2,md,0.0,13.429,1,0.0
9n3ckjytby15xji8m3759ga0,7,3,77,3,1,pd,1.0,8.617,1,0.0
9n3ckjytby15xji8m3759ga0,8,3,58,3,2,md,1.0,18.549,1,0.0
9n3ckjytby15xji8m3759ga0,9,3,60,4,1,pd,0.0,19.873,1,0.0
9n3ckjytby15xji8m3759ga0,10,3,23,4,2,md,1.0,17.203,1,0.0
9n3ckjytby15xji8m3759ga0,11,3,63,5,1,pd,0.0,7.432,1,0.0
9n3ckjytby15xji8m3759ga0,12,3,14,5,2,md,0.0,18.714,1,0.0
9n3ckjytby15xji8m3759ga0,13,3,36,6,2,md,1.0,28.906,1,0.0
9n3ckjytby15xji8m3759ga0,14,3,64,6,1,pd,0.0,29.435,1,0.0
9n3ckjytby15xji8m3759ga0,15,3,35,8,1,pd,1.0,14.289,1,0.0
9n3ckjytby15xji8m3759ga0,16,3,24,7,2,md,1.0,26.991,1,0.0
9s88tid5d5r16f6vib0lf7ts,1,3,19,2,2,pd,1.0,6.256,1,0.0
9s88tid5d5r16f6vib0lf7ts,2,3,28,2,1,md,0.0,28.029,1,0.0
9s88tid5d5r16f6vib0lf7ts,3,3,61,2,2,pd,1.0,7.834,1,0.0
9s88tid5d5r16f6vib0lf7ts,4,3,71,2,1,md,1.0,4.937,1,0.0
9s88tid5d5r16f6vib0lf7ts,5,3,37,3,1,md,1.0,15.583,1,0.0
9s88tid5d5r16f6vib0lf7ts,6,3,11,3,2,pd,0.0,17.619,1,0.0
9s88tid5d5r16f6vib0lf7ts,7,3,77,3,1,md,0.0,19.883,1,0.0
9s88tid5d5r16f6vib0lf7ts,8,3,62,3,2,pd,1.0,14.935,1,0.0
9s88tid5d5r16f6vib0lf7ts,9,3,60,4,1,md,0.0,22.448,1,0.0
9s88tid5d5r16f6vib0lf7ts,10,3,40,4,2,pd,0.0,12.838,1,0.0
9s88tid5d5r16f6vib0lf7ts,11,3,26,5,2,pd,0.0,9.144,1,0.0
9s88tid5d5r16f6vib0lf7ts,12,3,67,5,1,md,1.0,18.738,1,0.0
9s88tid5d5r16f6vib0lf7ts,13,3,76,5,2,pd,1.0,7.413,1,0.0
9s88tid5d5r16f6vib0lf7ts,14,3,55,6,1,md,0.0,9.546,1,0.0
9s88tid5d5r16f6vib0lf7ts,15,3,35,8,1,md,0.0,11.003,1,0.0
9s88tid5d5r16f6vib0lf7ts,16,3,24,7,2,pd,1.0,6.011,1,0.0
9w63piyvhpvu41rg6hlvkhcm,1,3,19,2,2,md,1.0,20.913,1,0.0
9w63piyvhpvu41rg6hlvkhcm,2,3,39,2,1,pd,0.0,27.92,1,0.0
9w63piyvhpvu41rg6hlvkhcm,3,3,65,2,1,pd,1.0,14.763,1,0.0
9w63piyvhpvu41rg6hlvkhcm,4,3,61,2,2,md,0.0,25.719,1,0.0
9w63piyvhpvu41rg6hlvkhcm,5,3,11,3,2,md,0.0,19.273,1,0.0
9w63piyvhpvu41rg6hlvkhcm,6,3,37,3,1,pd,,,1,0.0
9w63piyvhpvu41rg6hlvkhcm,7,3,17,4,1,pd,0.0,29.157,1,0.0
9w63piyvhpvu41rg6hlvkhcm,8,3,58,3,2,md,1.0,24.006,1,0.0
9w63piyvhpvu41rg6hlvkhcm,9,3,53,4,2,md,0.0,17.156,1,0.0
9w63piyvhpvu41rg6hlvkhcm,10,3,72,4,1,pd,1.0,27.969,1,0.0
