subject,trial,item_set,item,dimension,test_form,distractor,accuracy,rt,minimum_resolution,browser_interactions
01b653iwjusnxf359qk7596t,1,3,22,2,1,pd,1.0,6.088,1,0.0
01b653iwjusnxf359qk7596t,2,3,28,2,2,md,1.0,12.884,1,0.0
01b653iwjusnxf359qk7596t,3,3,70,2,2,md,1.0,7.699,1,0.0
01b653iwjusnxf359qk7596t,4,3,51,2,1,pd,1.0,9.247,1,0.0
01b653iwjusnxf359qk7596t,5,3,11,3,1,pd,0.0,6.396,1,0.0
01b653iwjusnxf359qk7596t,6,3,31,3,2,md,0.0,10.662,1,0.0
01b653iwjusnxf359qk7596t,7,3,17,4,2,md,0.0,13.843,1,0.0
01b653iwjusnxf359qk7596t,8,3,62,3,1,pd,1.0,11.4,1,0.0
01b653iwjusnxf359qk7596t,9,3,42,4,1,pd,0.0,16.601,1,0.0
01b653iwjusnxf359qk7596t,10,3,60,4,2,md,1.0,18.384,1,0.0
01b653iwjusnxf359qk7596t,11,3,52,5,1,pd,1.0,24.616,1,0.0
01b653iwjusnxf359qk7596t,12,3,63,5,2,md,0.0,19.049,1,0.0
01b653iwjusnxf359qk7596t,13,3,46,6,1,pd,1.0,10.405,1,0.0
01b653iwjusnxf359qk7596t,14,3,54,6,2,md,0.0,13.536,1,0.0
01b653iwjusnxf359qk7596t,15,3,78,7,2,md,0.0,28.942,1,0.0
01b653iwjusnxf359qk7596t,16,3,30,7,1,pd,1.0,16.371,1,0.0
03i65ytrhnqf85c2lvnzb2ov,1,3,28,2,1,md,0.0,4.405,1,0.0
03i65ytrhnqf85c2lvnzb2ov,2,3,20,2,2,pd,1.0,3.59,1,0.0
03i65ytrhnqf85c2lvnzb2ov,3,3,61,2,2,pd,1.0,4.112,1,0.0
03i65ytrhnqf85c2lvnzb2ov,4,3,70,2,1,md,1.0,6.953,1,0.0
03i65ytrhnqf85c2lvnzb2ov,5,3,15,3,2,pd,1.0,5.666,1,0.0
03i65ytrhnqf85c2lvnzb2ov,6,3,34,3,1,md,0.0,6.97,1,0.0
03i65ytrhnqf85c2lvnzb2ov,7,3,77,3,1,md,1.0,9.575,1,0.0
03i65ytrhnqf85c2lvnzb2ov,8,3,69,3,2,pd,1.0,7.247,1,0.0
03i65ytrhnqf85c2lvnzb2ov,9,3,72,4,1,md,0.0,6.772,1,0.0
03i65ytrhnqf85c2lvnzb2ov,10,3,42,4,2,pd,1.0,13.082,1,0.0
03i65ytrhnqf85c2lvnzb2ov,11,3,52,5,2,pd,0.0,9.005,1,0.0
03i65ytrhnqf85c2lvnzb2ov,12,3,59,5,1,md,1.0,12.913,1,0.0
03i65ytrhnqf85c2lvnzb2ov,13,3,54,6,1,md,0.0,9.026,1,0.0
03i65ytrhnqf85c2lvnzb2ov,14,3,76,5,2,pd,1.0,8.704,1,0.0
03i65ytrhnqf85c2lvnzb2ov,15,3,45,7,1,md,0.0,6.194,1,0.0
03i65ytrhnqf85c2lvnzb2ov,16,3,29,7,2,pd,0.0,8.004,1,0.0
06hmew4su9ph9i5gigwdmwr4,1,3,47,2,2,md,0.0,15.821,1,0.0
06hmew4su9ph9i5gigwdmwr4,2,3,20,2,1,pd,1.0,8.242,1,0.0
06hmew4su9ph9i5gigwdmwr4,3,3,50,2,1,pd,0.0,13.718,1,0.0
06hmew4su9ph9i5gigwdmwr4,4,3,71,2,2,md,1.0,10.712,1,0.0
06hmew4su9ph9i5gigwdmwr4,5,3,34,3,2,md,1.0,11.69,1,0.0
06hmew4su9ph9i5gigwdmwr4,6,3,15,3,1,pd,1.0,15.769,1,0.0
06hmew4su9ph9i5gigwdmwr4,7,3,16,4,2,md,1.0,5.421,1,0.0
06hmew4su9ph9i5gigwdmwr4,8,3,56,3,1,pd,1.0,8.835,1,0.0
06hmew4su9ph9i5gigwdmwr4,9,3,60,4,2,md,1.0,18.137,1,0.0
06hmew4su9ph9i5gigwdmwr4,10,3,40,4,1,pd,1.0,15.653,1,0.0
06hmew4su9ph9i5gigwdmwr4,11,3,59,5,2,md,0.0,24.939,1,0.0
06hmew4su9ph9i5gigwdmwr4,12,3,52,5,1,pd,1.0,17.967,1,0.0
06hmew4su9ph9i5gigwdmwr4,13,3,64,6,2,md,1.0,28.605,1,0.0
06hmew4su9ph9i5gigwdmwr4,14,3,44,6,1,pd,1.0,13.894,1,0.0
06hmew4su9ph9i5gigwdmwr4,15,3,35,8,2,md,1.0,23.969,1,0.0
06hmew4su9ph9i5gigwdmwr4,16,3,29,7,1,pd,1.0,11.687,1,0.0
0989ahmna9dulp8bxcoynys0,1,3,28,2,1,md,1.0,22.487,1,0.0
0989ahmna9dulp8bxcoynys0,2,3,20,2,2,pd,1.0,11.017,1,0.0
0989ahmna9dulp8bxcoynys0,3,3,10,3,1,md,1.0,8.439,1,0.0
0989ahmna9dulp8bxcoynys0,4,3,50,2,2,pd,1.0,13.573,1,0.0
0989ahmna9dulp8bxcoynys0,5,3,18,3,2,pd,1.0,12.865,1,0.0
0989ahmna9dulp8bxcoynys0,6,3,31,3,1,md,0.0,18.566,1,0.0
0989ahmna9dulp8bxcoynys0,7,3,77,3,1,md,0.0,9.984,1,0.0
0989ahmna9dulp8bxcoynys0,8,3,69,3,2,pd,1.0,7.65,1,0.0
0989ahmna9dulp8bxcoynys0,9,3,42,4,2,pd,1.0,11.727,1,0.0
0989ahmna9dulp8bxcoynys0,10,3,60,4,1,md,1.0,19.926,1,0.0
0989ahmna9dulp8bxcoynys0,11,3,59,5,1,md,0.0,11.816,1,0.0
0989ahmna9dulp8bxcoynys0,12,3,52,5,2,pd,1.0,9.256,1,0.0
0989ahmna9dulp8bxcoynys0,13,3,44,6,2,pd,0.0,12.738,1,0.0
0989ahmna9dulp8bxcoynys0,14,3,64,6,1,md,0.0,18.426,1,0.0
0989ahmna9dulp8bxcoynys0,15,3,24,7,2,pd,0.0,8.562,1,0.0
0989ahmna9dulp8bxcoynys0,16,3,45,7,1,md,1.0,10.813,1,0.0
0k9ph5p70zb8x7iugjdl96mt,1,3,19,2,1,pd,1.0,12.433,1,0.0
0k9ph5p70zb8x7iugjdl96mt,2,3,28,2,2,md,,,1,0.0
0k9ph5p70zb8x7iugjdl96mt,3,3,65,2,2,md,1.0,20.606,1,0.0
0k9ph5p70zb8x7iugjdl96mt,4,3,61,2,1,pd,0.0,22.49,1,0.0
0k9ph5p70zb8x7iugjdl96mt,5,3,37,3,2,md,0.0,14.769,1,0.0
0k9ph5p70zb8x7iugjdl96mt,6,3,13,3,1,pd,0.0,25.594,1,0.0
0k9ph5p70zb8x7iugjdl96mt,7,3,16,4,2,md,0.0,29.014,1,0.0
0k9ph5p70zb8x7iugjdl96mt,8,3,58,3,1,pd,0.0,29.285,1,0.0
0k9ph5p70zb8x7iugjdl96mt,9,3,72,4,2,md,0.0,24.796,1,0.0
0k9ph5p70zb8x7iugjdl96mt,10,3,40,4,1,pd,0.0,22.895,1,0.0
0k9ph5p70zb8x7iugjdl96mt,11,3,80,4,1,pd,1.0,18.958,1,0.0
0k9ph5p70zb8x7iugjdl96mt,12,3,67,5,2,md,0.0,28.384,1,0.0
0k9ph5p70zb8x7iugjdl96mt,13,3,36,6,1,pd,0.0,11.537,1,0.0
0k9ph5p70zb8x7iugjdl96mt,14,3,64,6,2,md,,,1,0.0
0k9ph5p70zb8x7iugjdl96mt,15,3,21,7,1,pd,1.0,4.506,1,0.0
0k9ph5p70zb8x7iugjdl96mt,16,3,66,8,2,md,0.0,6.348,1,0.0
0lbef3rih04hlz20mpmkmfaq,1,3,39,2,2,md,1.0,22.652,1,0.0
0lbef3rih04hlz20mpmkmfaq,2,3,6,2,1,pd,1.0,27.238,1,0.0
0lbef3rih04hlz20mpmkmfaq,3,3,10,3,2,md,0.0,23.181,1,0.0
0lbef3rih04hlz20mpmkmfaq,4,3,51,2,1,pd,1.0,22.441,1,0.0
0lbef3rih04hlz20mpmkmfaq,5,3,11,3,1,pd,1.0,28.447,1,0.0
0lbef3rih04hlz20mpmkmfaq,6,3,34,3,2,md,0.0,18.415,1,0.0
0lbef3rih04hlz20mpmkmfaq,7,3,58,3,1,pd,1.0,17.752,1,0.0
0lbef3rih04hlz20mpmkmfaq,8,3,16,4,2,md,1.0,16.238,1,0.0
0lbef3rih04hlz20mpmkmfaq,9,3,53,4,1,pd,1.0,27.855,1,0.0
0lbef3rih04hlz20mpmkmfaq,10,3,72,4,2,md,0.0,28.957,1,0.0
0lbef3rih04hlz20mpmkmfaq,11,3,74,5,2,md,1.0,27.739,1,0.0
0lbef3rih04hlz20mpmkmfaq,12,3,80,4,1,pd,0.0,25.668,1,0.0
0lbef3rih04hlz20mpmkmfaq,13,3,64,6,2,md,0.0,21.597,1,0.0
0lbef3rih04hlz20mpmkmfaq,14,3,36,6,1,pd,0.0,24.27,1,0.0
0lbef3rih04hlz20mpmkmfaq,15,3,29,7,1,pd,1.0,12.081,1,0.0
0lbef3rih04hlz20mpmkmfaq,16,3,66,8,2,md,0.0,24.102,1,0.0
0o92lwkkod5ficj2jyqn0f60,1,3,22,2,2,pd,1.0,11.343,1,0.0
0o92lwkkod5ficj2jyqn0f60,2,3,25,2,1,md,1.0,6.47,1,0.0
0o92lwkkod5ficj2jyqn0f60,3,3,49,2,2,pd,1.0,5.768,1,0.0
0o92lwkkod5ficj2jyqn0f60,4,3,71,2,1,md,1.0,6.829,1,0.0
0o92lwkkod5ficj2jyqn0f60,5,3,13,3,2,pd,0.0,8.85,1,0.0
0o92lwkkod5ficj2jyqn0f60,6,3,27,3,1,md,0.0,6.825,1,0.0
0o92lwkkod5ficj2jyqn0f60,7,3,62,3,2,pd,1.0,4.952,1,0.0
0o92lwkkod5ficj2jyqn0f60,8,3,12,4,1,md,1.0,6.764,1,0.0
0o92lwkkod5ficj2jyqn0f60,9,3,40,4,2,pd,1.0,3.014,1,0.0
0o92lwkkod5ficj2jyqn0f60,10,3,79,4,1,md,0.0,5.533,1,0.0
0o92lwkkod5ficj2jyqn0f60,11,3,59,5,1,md,0.0,2.751,1,0.0
0o92lwkkod5ficj2jyqn0f60,12,3,80,4,2,pd,0.0,12.769,1,0.0
0o92lwkkod5ficj2jyqn0f60,13,3,75,6,1,md,0.0,2.116,1,0.0
0o92lwkkod5ficj2jyqn0f60,14,3,44,6,2,pd,1.0,0.94,1,0.0
0o92lwkkod5ficj2jyqn0f60,15,3,24,7,2,pd,0.0,1.123,1,0.0
0o92lwkkod5ficj2jyqn0f60,16,3,78,7,1,md,0.0,9.033,1,0.0
0ppzryi0yvn8rzf45d469rfr,1,3,39,2,2,md,1.0,26.126,1,0.0
0ppzryi0yvn8rzf45d469rfr,2,3,22,2,1,pd,1.0,14.901,1,0.0
0ppzryi0yvn8rzf45d469rfr,3,3,61,2,1,pd,1.0,24.54,1,0.0
0ppzryi0yvn8rzf45d469rfr,4,3,10,3,2,md,1.0,11.712,1,0.0
0ppzryi0yvn8rzf45d469rfr,5,3,18,3,1,pd,1.0,19.373,1,0.0
0ppzryi0yvn8rzf45d469rfr,6,3,31,3,2,md,1.0,23.514,1,0.0
0ppzryi0yvn8rzf45d469rfr,7,3,56,3,1,pd,1.0,20.216,1,0.0
0ppzryi0yvn8rzf45d469rfr,8,3,16,4,2,md,1.0,10.548,1,0.0
0ppzryi0yvn8rzf45d469rfr,9,3,23,4,1,pd,1.0,11.259,1,0.0
0ppzryi0yvn8rzf45d469rfr,10,3,79,4,2,md,0.0,28.403,1,0.0
0ppzryi0yvn8rzf45d469rfr,11,3,14,5,1,pd,0.0,13.987,1,0.0
0ppzryi0yvn8rzf45d469rfr,12,3,67,5,2,md,0.0,17.127,1,0.0
0ppzryi0yvn8rzf45d469rfr,13,3,46,6,1,pd,1.0,9.241,1,0.0
0ppzryi0yvn8rzf45d469rfr,14,3,55,6,2,md,1.0,25.01,1,0.0
0ppzryi0yvn8rzf45d469rfr,15,3,45,7,2,md,1.0,15.411,1,0.0
0ppzryi0yvn8rzf45d469rfr,16,3,24,7,1,pd,0.0,12.338,1,0.0
0sj1lawlpszd1lz6vql6z3wg,1,3,28,2,2,md,1.0,8.311,1,0.0
0sj1lawlpszd1lz6vql6z3wg,2,3,20,2,1,pd,1.0,3.874,1,0.0
0sj1lawlpszd1lz6vql6z3wg,3,3,61,2,1,pd,1.0,8.19,1,0.0
0sj1lawlpszd1lz6vql6z3wg,4,3,71,2,2,md,1.0,4.636,1,0.0
0sj1lawlpszd1lz6vql6z3wg,5,3,13,3,1,pd,1.0,23.483,1,0.0
0sj1lawlpszd1lz6vql6z3wg,6,3,31,3,2,md,1.0,15.605,1,0.0
0sj1lawlpszd1lz6vql6z3wg,7,3,58,3,1,pd,1.0,6.466,1,0.0
0sj1lawlpszd1lz6vql6z3wg,8,3,17,4,2,md,1.0,21.209,1,0.0
0sj1lawlpszd1lz6vql6z3wg,9,3,53,4,1,pd,0.0,21.385,1,0.0
0sj1lawlpszd1lz6vql6z3wg,10,3,73,4,2,md,1.0,17.454,1,0.0
0sj1lawlpszd1lz6vql6z3wg,11,3,26,5,1,pd,1.0,20.914,1,0.0
0sj1lawlpszd1lz6vql6z3wg,12,3,59,5,2,md,0.0,10.949,1,0.0
0sj1lawlpszd1lz6vql6z3wg,13,3,64,6,2,md,1.0,20.286,1,0.0
0sj1lawlpszd1lz6vql6z3wg,14,3,76,5,1,pd,1.0,13.668,1,0.0
0sj1lawlpszd1lz6vql6z3wg,15,3,21,7,1,pd,0.0,19.034,1,0.0
0sj1lawlpszd1lz6vql6z3wg,16,3,35,8,2,md,0.0,19.427,1,0.0
0u9pna4ta2ooka59scvje5yw,1,3,47,2,2,md,0.0,26.982,1,0.0
0u9pna4ta2ooka59scvje5yw,2,3,22,2,1,pd,1.0,8.389,1,0.0
0u9pna4ta2ooka59scvje5yw,3,3,51,2,1,pd,1.0,29.566,1,0.0
0u9pna4ta2ooka59scvje5yw,4,3,70,2,2,md,1.0,12.443,1,0.0
0u9pna4ta2ooka59scvje5yw,5,3,37,3,2,md,0.0,29.169,1,0.0
0u9pna4ta2ooka59scvje5yw,6,3,15,3,1,pd,1.0,15.503,1,0.0
0u9pna4ta2ooka59scvje5yw,7,3,62,3,1,pd,1.0,7.591,1,0.0
0u9pna4ta2ooka59scvje5yw,8,3,12,4,2,md,1.0,23.044,1,0.0
0u9pna4ta2ooka59scvje5yw,9,3,73,4,2,md,0.0,28.996,1,0.0
0u9pna4ta2ooka59scvje5yw,10,3,42,4,1,pd,1.0,17.501,1,0.0
0u9pna4ta2ooka59scvje5yw,11,3,74,5,2,md,0.0,10.595,1,0.0
0u9pna4ta2ooka59scvje5yw,12,3,26,5,1,pd,0.0,20.114,1,0.0
0u9pna4ta2ooka59scvje5yw,13,3,55,6,2,md,1.0,28.106,1,0.0
0u9pna4ta2ooka59scvje5yw,14,3,44,6,1,pd,1.0,28.164,1,0.0
0u9pna4ta2ooka59scvje5yw,15,3,78,7,2,md,1.0,26.71,1,0.0
0u9pna4ta2ooka59scvje5yw,16,3,24,7,1,pd,1.0,15.078,1,0.0
14asg0heo2pqnmiywh8uy4ly,1,3,47,2,2,md,1.0,20.223,1,0.0
14asg0heo2pqnmiywh8uy4ly,2,3,22,2,1,pd,1.0,10.764,1,0.0
14asg0heo2pqnmiywh8uy4ly,3,3,51,2,1,pd,1.0,19.63,1,0.0
14asg0heo2pqnmiywh8uy4ly,4,3,70,2,2,md,1.0,18.761,1,0.0
14asg0heo2pqnmiywh8uy4ly,5,3,31,3,2,md,1.0,23.679,1,0.0
14asg0heo2pqnmiywh8uy4ly,6,3,13,3,1,pd,1.0,18.4,1,0.0
14asg0heo2pqnmiywh8uy4ly,7,3,16,4,2,md,1.0,14.815,1,0.0
14asg0heo2pqnmiywh8uy4ly,8,3,69,3,1,pd,1.0,17.7,1,0.0
14asg0heo2pqnmiywh8uy4ly,9,3,53,4,1,pd,0.0,15.478,1,0.0
14asg0heo2pqnmiywh8uy4ly,10,3,73,4,2,md,1.0,27.702,1,0.0
14asg0heo2pqnmiywh8uy4ly,11,3,80,4,1,pd,1.0,17.043,1,0.0
14asg0heo2pqnmiywh8uy4ly,12,3,59,5,2,md,0.0,22.548,1,0.0
14asg0heo2pqnmiywh8uy4ly,13,3,55,6,2,md,1.0,27.261,1,0.0
14asg0heo2pqnmiywh8uy4ly,14,3,46,6,1,pd,1.0,17.615,1,0.0
14asg0heo2pqnmiywh8uy4ly,15,3,21,7,1,pd,0.0,14.08,1,0.0
14asg0heo2pqnmiywh8uy4ly,16,3,66,8,2,md,1.0,15.251,1,0.0
1g706fp1g62ojzs5t47qqpbt,1,3,20,2,2,pd,1.0,16.756,1,0.0
1g706fp1g62ojzs5t47qqpbt,2,3,39,2,1,md,0.0,27.815,1,0.0
1g706fp1g62ojzs5t47qqpbt,3,3,51,2,2,pd,1.0,22.306,1,0.0
1g706fp1g62ojzs5t47qqpbt,4,3,71,2,1,md,1.0,12.518,1,0.0
1g706fp1g62ojzs5t47qqpbt,5,3,31,3,1,md,0.0,28.288,1,0.0
1g706fp1g62ojzs5t47qqpbt,6,3,13,3,2,pd,1.0,17.355,1,0.0
1g706fp1g62ojzs5t47qqpbt,7,3,56,3,2,pd,1.0,27.245,1,0.0
1g706fp1g62ojzs5t47qqpbt,8,3,77,3,1,md,1.0,26.635,1,0.0
1g706fp1g62ojzs5t47qqpbt,9,3,23,4,2,pd,1.0,21.974,1,0.0
1g706fp1g62ojzs5t47qqpbt,10,3,60,4,1,md,0.0,28.494,1,0.0
1g706fp1g62ojzs5t47qqpbt,11,3,59,5,1,md,0.0,16.231,1,0.0
1g706fp1g62ojzs5t47qqpbt,12,3,26,5,2,pd,1.0,26.649,1,0.0
1g706fp1g62ojzs5t47qqpbt,13,3,55,6,1,md,1.0,16.39,1,0.0
1g706fp1g62ojzs5t47qqpbt,14,3,46,6,2,pd,1.0,16.493,1,0.0
1g706fp1g62ojzs5t47qqpbt,15,3,24,7,2,pd,1.0,17.519,1,0.0
1g706fp1g62ojzs5t47qqpbt,16,3,78,7,1,md,0.0,19.833,1,0.0
1hq0a5sv7olx9j5ab2evp9yz,1,3,22,2,1,pd,1.0,15.867,1,0.0
1hq0a5sv7olx9j5ab2evp9yz,2,3,39,2,2,md,1.0,10.596,1,0.0
1hq0a5sv7olx9j5ab2evp9yz,3,3,51,2,1,pd,1.0,13.75,1,0.0
1hq0a5sv7olx9j5ab2evp9yz,4,3,65,2,2,md,1.0,8.908,1,0.0
1hq0a5sv7olx9j5ab2evp9yz,5,3,31,3,2,md,1.0,23.2,1,0.0
1hq0a5sv7olx9j5ab2evp9yz,6,3,13,3,1,pd,0.0,26.341,1,0.0
1hq0a5sv7olx9j5ab2evp9yz,7,3,17,4,2,md,0.0,23.662,1,0.0
1hq0a5sv7olx9j5ab2evp9yz,8,3,58,3,1,pd,1.0,13.523,1,0.0
1hq0a5sv7olx9j5ab2evp9yz,9,3,53,4,1,pd,1.0,14.509,1,0.0
1hq0a5sv7olx9j5ab2evp9yz,10,3,79,4,2,md,0.0,28.975,1,0.0
1hq0a5sv7olx9j5ab2evp9yz,11,3,26,5,1,pd,1.0,22.961,1,0.0
1hq0a5sv7olx9j5ab2evp9yz,12,3,59,5,2,md,0.0,13.362,1,0.0
1hq0a5sv7olx9j5ab2evp9yz,13,3,64,6,2,md,1.0,27.971,1,0.0
1hq0a5sv7olx9j5ab2evp9yz,14,3,36,6,1,pd,0.0,29.74,1,0.0
1hq0a5sv7olx9j5ab2evp9yz,15,3,24,7,1,pd,,,1,0.0
1hq0a5sv7olx9j5ab2evp9yz,16,3,35,8,2,md,0.0,18.081,1,0.0
1y7vnm5uywcpkpjvywthival,1,3,25,2,2,md,1.0,12.369,1,0.0
1y7vnm5uywcpkpjvywthival,2,3,6,2,1,pd,0.0,8.343,1,0.0
1y7vnm5uywcpkpjvywthival,3,3,71,2,2,md,1.0,7.911,1,0.0
1y7vnm5uywcpkpjvywthival,4,3,51,2,1,pd,0.0,8.332,1,0.0
1y7vnm5uywcpkpjvywthival,5,3,37,3,2,md,0.0,15.551,1,0.0
1y7vnm5uywcpkpjvywthival,6,3,13,3,1,pd,0.0,9.819,1,0.0
1y7vnm5uywcpkpjvywthival,7,3,17,4,2,md,0.0,10.189,1,0.0
1y7vnm5uywcpkpjvywthival,8,3,62,3,1,pd,1.0,8.343,1,0.0
1y7vnm5uywcpkpjvywthival,9,3,73,4,2,md,1.0,13.073,1,0.0
1y7vnm5uywcpkpjvywthival,10,3,53,4,1,pd,1.0,8.23,1,0.0
1y7vnm5uywcpkpjvywthival,11,3,59,5,2,md,0.0,6.679,1,0.0
1y7vnm5uywcpkpjvywthival,12,3,52,5,1,pd,1.0,7.421,1,0.0
1y7vnm5uywcpkpjvywthival,13,3,44,6,1,pd,0.0,8.649,1,0.0
1y7vnm5uywcpkpjvywthival,14,3,64,6,2,md,0.0,4.473,1,0.0
1y7vnm5uywcpkpjvywthival,15,3,35,8,2,md,0.0,1.509,1,0.0
1y7vnm5uywcpkpjvywthival,16,3,21,7,1,pd,1.0,1.664,1,0.0
2jyaj21vurwztq2io1bo4wp5,1,3,6,2,2,pd,1.0,4.584,1,0.0
2jyaj21vurwztq2io1bo4wp5,2,3,28,2,1,md,1.0,6.139,1,0.0
2jyaj21vurwztq2io1bo4wp5,3,3,51,2,2,pd,1.0,7.848,1,0.0
2jyaj21vurwztq2io1bo4wp5,4,3,10,3,1,md,1.0,6.618,1,0.0
2jyaj21vurwztq2io1bo4wp5,5,3,34,3,1,md,0.0,20.339,1,0.0
2jyaj21vurwztq2io1bo4wp5,6,3,18,3,2,pd,0.0,19.294,1,0.0
2jyaj21vurwztq2io1bo4wp5,7,3,77,3,1,md,1.0,14.462,1,0.0
2jyaj21vurwztq2io1bo4wp5,8,3,69,3,2,pd,1.0,11.272,1,0.0
2jyaj21vurwztq2io1bo4wp5,9,3,23,4,2,pd,1.0,7.486,1,0.0
2jyaj21vurwztq2io1bo4wp5,10,3,60,4,1,md,0.0,21.654,1,0.0
2jyaj21vurwztq2io1bo4wp5,11,3,63,5,1,md,0.0,15.652,1,0.0
2jyaj21vurwztq2io1bo4wp5,12,3,52,5,2,pd,1.0,15.601,1,0.0
2jyaj21vurwztq2io1bo4wp5,13,3,54,6,1,md,0.0,13.726,1,0.0
2jyaj21vurwztq2io1bo4wp5,14,3,44,6,2,pd,1.0,28.191,1,0.0
2jyaj21vurwztq2io1bo4wp5,15,3,66,8,1,md,1.0,14.417,1,0.0
2jyaj21vurwztq2io1bo4wp5,16,3,21,7,2,pd,0.0,9.731,1,0.0
2k38gxnthl0z3g7ni36g086k,1,3,47,2,2,md,0.0,28.154,1,0.0
2k38gxnthl0z3g7ni36g086k,2,3,22,2,1,pd,1.0,14.33,1,0.0
2k38gxnthl0z3g7ni36g086k,3,3,71,2,2,md,1.0,10.546,1,0.0
2k38gxnthl0z3g7ni36g086k,4,3,50,2,1,pd,1.0,6.53,1,0.0
2k38gxnthl0z3g7ni36g086k,5,3,15,3,1,pd,0.0,29.774,1,0.0
2k38gxnthl0z3g7ni36g086k,6,3,31,3,2,md,1.0,17.601,1,0.0
2k38gxnthl0z3g7ni36g086k,7,3,12,4,2,md,0.0,21.98,1,0.0
2k38gxnthl0z3g7ni36g086k,8,3,58,3,1,pd,1.0,14.471,1,0.0
2k38gxnthl0z3g7ni36g086k,9,3,42,4,1,pd,1.0,27.497,1,0.0
2k38gxnthl0z3g7ni36g086k,10,3,73,4,2,md,0.0,25.599,1,0.0
2k38gxnthl0z3g7ni36g086k,11,3,26,5,1,pd,1.0,16.443,1,0.0
2k38gxnthl0z3g7ni36g086k,12,3,63,5,2,md,0.0,17.842,1,0.0
2k38gxnthl0z3g7ni36g086k,13,3,55,6,2,md,1.0,10.212,1,0.0
2k38gxnthl0z3g7ni36g086k,14,3,46,6,1,pd,1.0,26.921,1,2.0
2k38gxnthl0z3g7ni36g086k,15,3,66,8,2,md,0.0,17.095,1,0.0
2k38gxnthl0z3g7ni36g086k,16,3,29,7,1,pd,1.0,19.297,1,0.0
2lwgshkagkjxlxrdwfrwqpas,1,3,47,2,2,md,1.0,8.674,1,0.0
2lwgshkagkjxlxrdwfrwqpas,2,3,19,2,1,pd,1.0,6.996,1,0.0
2lwgshkagkjxlxrdwfrwqpas,3,3,71,2,2,md,1.0,7.815,1,0.0
2lwgshkagkjxlxrdwfrwqpas,4,3,50,2,1,pd,1.0,7.491,1,0.0
2lwgshkagkjxlxrdwfrwqpas,5,3,13,3,1,pd,1.0,19.25,1,0.0
2lwgshkagkjxlxrdwfrwqpas,6,3,31,3,2,md,1.0,17.777,1,0.0
2lwgshkagkjxlxrdwfrwqpas,7,3,69,3,1,pd,1.0,4.509,1,0.0
2lwgshkagkjxlxrdwfrwqpas,8,3,16,4,2,md,0.0,14.554,1,0.0
2lwgshkagkjxlxrdwfrwqpas,9,3,72,4,2,md,0.0,8.257,1,0.0
2lwgshkagkjxlxrdwfrwqpas,10,3,23,4,1,pd,0.0,15.351,1,0.0
2lwgshkagkjxlxrdwfrwqpas,11,3,52,5,1,pd,0.0,10.727,1,0.0
2lwgshkagkjxlxrdwfrwqpas,12,3,63,5,2,md,0.0,13.475,1,0.0
2lwgshkagkjxlxrdwfrwqpas,13,3,46,6,1,pd,0.0,15.214,1,0.0
2lwgshkagkjxlxrdwfrwqpas,14,3,54,6,2,md,1.0,7.776,1,0.0
2lwgshkagkjxlxrdwfrwqpas,15,3,21,7,1,pd,1.0,11.282,1,0.0
2lwgshkagkjxlxrdwfrwqpas,16,3,78,7,2,md,0.0,7.856,1,0.0
2lxcej2tk2tol6ie9pg9ephv,1,3,6,2,1,pd,1.0,10.634,1,0.0
2lxcej2tk2tol6ie9pg9ephv,2,3,39,2,2,md,1.0,9.67,1,0.0
2lxcej2tk2tol6ie9pg9ephv,3,3,65,2,2,md,1.0,8.32,1,0.0
2lxcej2tk2tol6ie9pg9ephv,4,3,50,2,1,pd,0.0,5.864,1,0.0
2lxcej2tk2tol6ie9pg9ephv,5,3,18,3,1,pd,1.0,8.029,1,0.0
2lxcej2tk2tol6ie9pg9ephv,6,3,31,3,2,md,1.0,19.32,1,0.0
2lxcej2tk2tol6ie9pg9ephv,7,3,69,3,1,pd,1.0,9.394,1,0.0
2lxcej2tk2tol6ie9pg9ephv,8,3,12,4,2,md,1.0,11.6,1,0.0
2lxcej2tk2tol6ie9pg9ephv,9,3,73,4,2,md,1.0,18.825,1,0.0
2lxcej2tk2tol6ie9pg9ephv,10,3,42,4,1,pd,,,1,0.0
2lxcej2tk2tol6ie9pg9ephv,11,3,52,5,1,pd,1.0,18.202,1,0.0
2lxcej2tk2tol6ie9pg9ephv,12,3,63,5,2,md,0.0,25.208,1,0.0
2lxcej2tk2tol6ie9pg9ephv,13,3,64,6,2,md,1.0,17.945,1,0.0
2lxcej2tk2tol6ie9pg9ephv,14,3,76,5,1,pd,1.0,27.208,1,0.0
2lxcej2tk2tol6ie9pg9ephv,15,3,24,7,1,pd,0.0,11.34,1,0.0
2lxcej2tk2tol6ie9pg9ephv,16,3,66,8,2,md,0.0,12.056,1,0.0
2ryo3nqynuc45ekjibgor0yp,1,3,47,2,1,md,1.0,29.61,1,0.0
2ryo3nqynuc45ekjibgor0yp,2,3,20,2,2,pd,1.0,25.187,1,0.0
2ryo3nqynuc45ekjibgor0yp,3,3,10,3,1,md,0.0,12.692,1,0.0
2ryo3nqynuc45ekjibgor0yp,4,3,49,2,2,pd,1.0,15.64,1,0.0
2ryo3nqynuc45ekjibgor0yp,5,3,34,3,1,md,1.0,27.18,1,0.0
2ryo3nqynuc45ekjibgor0yp,6,3,15,3,2,pd,1.0,15.609,1,0.0
2ryo3nqynuc45ekjibgor0yp,7,3,62,3,2,pd,1.0,16.301,1,0.0
2ryo3nqynuc45ekjibgor0yp,8,3,77,3,1,md,0.0,28.512,1,0.0
2ryo3nqynuc45ekjibgor0yp,9,3,42,4,2,pd,1.0,15.417,1,0.0
2ryo3nqynuc45ekjibgor0yp,10,3,60,4,1,md,,,1,0.0
2ryo3nqynuc45ekjibgor0yp,11,3,67,5,1,md,1.0,20.793,1,0.0
2ryo3nqynuc45ekjibgor0yp,12,3,14,5,2,pd,0.0,24.87,1,0.0
2ryo3nqynuc45ekjibgor0yp,13,3,55,6,1,md,1.0,27.983,1,0.0
2ryo3nqynuc45ekjibgor0yp,14,3,44,6,2,pd,1.0,13.983,1,0.0
2ryo3nqynuc45ekjibgor0yp,15,3,29,7,2,pd,1.0,6.154,1,0.0
2ryo3nqynuc45ekjibgor0yp,16,3,66,8,1,md,0.0,10.979,1,0.0
2s9ape6golrvhw3wahi3m3r3,1,3,28,2,2,md,1.0,25.59,1,0.0
2s9ape6golrvhw3wahi3m3r3,2,3,6,2,1,pd,1.0,14.444,1,0.0
2s9ape6golrvhw3wahi3m3r3,3,3,49,2,1,pd,1.0,8.145,1,0.0
2s9ape6golrvhw3wahi3m3r3,4,3,70,2,2,md,1.0,8.101,1,0.0
2s9ape6golrvhw3wahi3m3r3,5,3,18,3,1,pd,1.0,12.304,1,0.0
2s9ape6golrvhw3wahi3m3r3,6,3,31,3,2,md,1.0,6.382,1,0.0
2s9ape6golrvhw3wahi3m3r3,7,3,17,4,2,md,1.0,13.552,1,0.0
2s9ape6golrvhw3wahi3m3r3,8,3,56,3,1,pd,1.0,12.949,1,0.0
2s9ape6golrvhw3wahi3m3r3,9,3,40,4,1,pd,1.0,16.675,1,0.0
2s9ape6golrvhw3wahi3m3r3,10,3,72,4,2,md,1.0,13.9,1,0.0
2s9ape6golrvhw3wahi3m3r3,11,3,80,4,1,pd,1.0,19.26,1,0.0
2s9ape6golrvhw3wahi3m3r3,12,3,63,5,2,md,0.0,15.447,1,0.0
2s9ape6golrvhw3wahi3m3r3,13,3,54,6,2,md,1.0,26.48,1,0.0
2s9ape6golrvhw3wahi3m3r3,14,3,76,5,1,pd,1.0,20.581,1,0.0
2s9ape6golrvhw3wahi3m3r3,15,3,66,8,2,md,0.0,16.826,1,0.0
2s9ape6golrvhw3wahi3m3r3,16,3,24,7,1,pd,0.0,9.799,1,0.0
2upl5md6ptyi3ax9pp22y7fj,1,3,19,2,1,pd,1.0,6.785,1,0.0
2upl5md6ptyi3ax9pp22y7fj,2,3,28,2,2,md,1.0,10.81,1,0.0
2upl5md6ptyi3ax9pp22y7fj,3,3,51,2,1,pd,1.0,15.611,1,0.0
2upl5md6ptyi3ax9pp22y7fj,4,3,10,3,2,md,0.0,6.973,1,0.0
2upl5md6ptyi3ax9pp22y7fj,5,3,27,3,2,md,1.0,9.775,1,0.0
2upl5md6ptyi3ax9pp22y7fj,6,3,11,3,1,pd,1.0,10.99,1,0.0
2upl5md6ptyi3ax9pp22y7fj,7,3,12,4,2,md,1.0,23.083,1,0.0
2upl5md6ptyi3ax9pp22y7fj,8,3,69,3,1,pd,1.0,8.976,1,0.0
2upl5md6ptyi3ax9pp22y7fj,9,3,60,4,2,md,0.0,16.03,1,0.0
2upl5md6ptyi3ax9pp22y7fj,10,3,40,4,1,pd,1.0,8.482,1,0.0
2upl5md6ptyi3ax9pp22y7fj,11,3,80,4,1,pd,1.0,10.225,1,0.0
2upl5md6ptyi3ax9pp22y7fj,12,3,59,5,2,md,1.0,15.422,1,0.0
2upl5md6ptyi3ax9pp22y7fj,13,3,64,6,2,md,1.0,20.394,1,0.0
2upl5md6ptyi3ax9pp22y7fj,14,3,44,6,1,pd,1.0,8.56,1,0.0
2upl5md6ptyi3ax9pp22y7fj,15,3,21,7,1,pd,0.0,13.543,1,0.0
2upl5md6ptyi3ax9pp22y7fj,16,3,66,8,2,md,1.0,10.283,1,0.0
2v9b3eic48aqgsgtr4i3rapv,1,3,47,2,2,md,0.0,14.71,1,0.0
2v9b3eic48aqgsgtr4i3rapv,2,3,6,2,1,pd,1.0,14.346,1,0.0
2v9b3eic48aqgsgtr4i3rapv,3,3,10,3,2,md,1.0,22.893,1,0.0
2v9b3eic48aqgsgtr4i3rapv,4,3,51,2,1,pd,1.0,23.778,1,0.0
2v9b3eic48aqgsgtr4i3rapv,5,3,31,3,2,md,1.0,19.576,1,0.0
2v9b3eic48aqgsgtr4i3rapv,6,3,13,3,1,pd,1.0,3.547,1,0.0
2v9b3eic48aqgsgtr4i3rapv,7,3,17,4,2,md,1.0,22.015,1,0.0
2v9b3eic48aqgsgtr4i3rapv,8,3,56,3,1,pd,1.0,13.834,1,0.0
2v9b3eic48aqgsgtr4i3rapv,9,3,53,4,1,pd,1.0,17.801,1,0.0
2v9b3eic48aqgsgtr4i3rapv,10,3,73,4,2,md,0.0,20.817,1,0.0
2v9b3eic48aqgsgtr4i3rapv,11,3,67,5,2,md,0.0,28.772,1,0.0
2v9b3eic48aqgsgtr4i3rapv,12,3,26,5,1,pd,0.0,8.286,1,0.0
2v9b3eic48aqgsgtr4i3rapv,13,3,76,5,1,pd,1.0,22.23,1,0.0
2v9b3eic48aqgsgtr4i3rapv,14,3,55,6,2,md,1.0,17.574,1,0.0
2v9b3eic48aqgsgtr4i3rapv,15,3,29,7,1,pd,1.0,20.193,1,0.0
2v9b3eic48aqgsgtr4i3rapv,16,3,45,7,2,md,0.0,22.406,1,0.0
2xovrvkaxpz9tip2r8wsuig6,1,3,25,2,1,md,1.0,12.201,1,0.0
2xovrvkaxpz9tip2r8wsuig6,2,3,22,2,2,pd,1.0,4.704,1,0.0
2xovrvkaxpz9tip2r8wsuig6,3,3,70,2,1,md,1.0,7.309,1,0.0
2xovrvkaxpz9tip2r8wsuig6,4,3,51,2,2,pd,1.0,6.657,1,0.0
2xovrvkaxpz9tip2r8wsuig6,5,3,27,3,1,md,0.0,16.143,1,0.0
2xovrvkaxpz9tip2r8wsuig6,6,3,11,3,2,pd,0.0,9.232,1,0.0
2xovrvkaxpz9tip2r8wsuig6,7,3,12,4,1,md,1.0,15.182,1,0.0
2xovrvkaxpz9tip2r8wsuig6,8,3,62,3,2,pd,1.0,12.29,1,0.0
2xovrvkaxpz9tip2r8wsuig6,9,3,73,4,1,md,0.0,9.347,1,0.0
2xovrvkaxpz9tip2r8wsuig6,10,3,40,4,2,pd,0.0,6.276,1,0.0
2xovrvkaxpz9tip2r8wsuig6,11,3,80,4,2,pd,0.0,8.329,1,0.0
2xovrvkaxpz9tip2r8wsuig6,12,3,59,5,1,md,1.0,9.466,1,0.0
2xovrvkaxpz9tip2r8wsuig6,13,3,55,6,1,md,0.0,4.667,1,0.0
2xovrvkaxpz9tip2r8wsuig6,14,3,44,6,2,pd,0.0,7.745,1,0.0
2xovrvkaxpz9tip2r8wsuig6,15,3,24,7,2,pd,0.0,4.816,1,0.0
2xovrvkaxpz9tip2r8wsuig6,16,3,66,8,1,md,0.0,5.322,1,0.0
2yzqza7zsurmv8eryo1mz7rs,1,3,25,2,2,md,1.0,13.559,1,0.0
2yzqza7zsurmv8eryo1mz7rs,2,3,22,2,1,pd,1.0,2.716,1,0.0
2yzqza7zsurmv8eryo1mz7rs,3,3,65,2,2,md,0.0,15.501,1,0.0
2yzqza7zsurmv8eryo1mz7rs,4,3,61,2,1,pd,1.0,10.47,1,0.0
2yzqza7zsurmv8eryo1mz7rs,5,3,15,3,1,pd,0.0,15.99,1,0.0
2yzqza7zsurmv8eryo1mz7rs,6,3,27,3,2,md,0.0,27.013,1,0.0
2yzqza7zsurmv8eryo1mz7rs,7,3,58,3,1,pd,1.0,7.389,1,0.0
2yzqza7zsurmv8eryo1mz7rs,8,3,12,4,2,md,0.0,26.937,1,0.0
2yzqza7zsurmv8eryo1mz7rs,9,3,79,4,2,md,0.0,23.272,1,0.0
2yzqza7zsurmv8eryo1mz7rs,10,3,53,4,1,pd,0.0,11.059,1,0.0
2yzqza7zsurmv8eryo1mz7rs,11,3,52,5,1,pd,0.0,11.458,1,0.0
2yzqza7zsurmv8eryo1mz7rs,12,3,59,5,2,md,0.0,7.04,1,0.0
2yzqza7zsurmv8eryo1mz7rs,13,3,54,6,2,md,0.0,8.446,1,0.0
2yzqza7zsurmv8eryo1mz7rs,14,3,46,6,1,pd,0.0,11.816,1,0.0
2yzqza7zsurmv8eryo1mz7rs,15,3,66,8,2,md,1.0,9.937,1,0.0
2yzqza7zsurmv8eryo1mz7rs,16,3,21,7,1,pd,0.0,7.914,1,0.0
33vgnwo4ptzhp430sqai90mc,1,3,22,2,1,pd,1.0,4.878,1,0.0
33vgnwo4ptzhp430sqai90mc,2,3,25,2,2,md,1.0,7.248,1,0.0
33vgnwo4ptzhp430sqai90mc,3,3,50,2,1,pd,1.0,6.173,1,0.0
33vgnwo4ptzhp430sqai90mc,4,3,65,2,2,md,1.0,6.847,1,0.0
33vgnwo4ptzhp430sqai90mc,5,3,18,3,1,pd,1.0,8.071,1,0.0
33vgnwo4ptzhp430sqai90mc,6,3,37,3,2,md,0.0,12.393,1,0.0
33vgnwo4ptzhp430sqai90mc,7,3,77,3,2,md,1.0,9.742,1,0.0
33vgnwo4ptzhp430sqai90mc,8,3,58,3,1,pd,1.0,11.723,1,0.0
33vgnwo4ptzhp430sqai90mc,9,3,53,4,1,pd,1.0,12.453,1,0.0
33vgnwo4ptzhp430sqai90mc,10,3,60,4,2,md,0.0,17.833,1,0.0
33vgnwo4ptzhp430sqai90mc,11,3,74,5,2,md,0.0,16.307,1,0.0
33vgnwo4ptzhp430sqai90mc,12,3,80,4,1,pd,1.0,8.362,1,0.0
33vgnwo4ptzhp430sqai90mc,13,3,54,6,2,md,1.0,19.525,1,0.0
33vgnwo4ptzhp430sqai90mc,14,3,76,5,1,pd,0.0,8.938,1,0.0
33vgnwo4ptzhp430sqai90mc,15,3,24,7,1,pd,0.0,9.487,1,0.0
33vgnwo4ptzhp430sqai90mc,16,3,66,8,2,md,1.0,14.088,1,0.0
3hrldrezqnbmcz7wsfqpk444,1,3,22,2,1,pd,1.0,12.354,1,0.0
3hrldrezqnbmcz7wsfqpk444,2,3,39,2,2,md,1.0,21.157,1,0.0
3hrldrezqnbmcz7wsfqpk444,3,3,71,2,2,md,1.0,20.276,1,0.0
3hrldrezqnbmcz7wsfqpk444,4,3,49,2,1,pd,1.0,10.646,1,0.0
3hrldrezqnbmcz7wsfqpk444,5,3,27,3,2,md,0.0,28.319,1,0.0
3hrldrezqnbmcz7wsfqpk444,6,3,13,3,1,pd,1.0,24.317,1,0.0
3hrldrezqnbmcz7wsfqpk444,7,3,62,3,1,pd,1.0,21.969,1,0.0
3hrldrezqnbmcz7wsfqpk444,8,3,77,3,2,md,0.0,29.838,1,0.0
3hrldrezqnbmcz7wsfqpk444,9,3,42,4,1,pd,,,1,0.0
3hrldrezqnbmcz7wsfqpk444,10,3,60,4,2,md,0.0,19.937,1,0.0
3hrldrezqnbmcz7wsfqpk444,11,3,67,5,2,md,0.0,25.885,1,0.0
3hrldrezqnbmcz7wsfqpk444,12,3,80,4,1,pd,1.0,17.296,1,0.0
3hrldrezqnbmcz7wsfqpk444,13,3,36,6,1,pd,1.0,29.741,1,0.0
3hrldrezqnbmcz7wsfqpk444,14,3,54,6,2,md,1.0,17.823,1,0.0
3hrldrezqnbmcz7wsfqpk444,15,3,21,7,1,pd,1.0,16.27,1,0.0
3hrldrezqnbmcz7wsfqpk444,16,3,45,7,2,md,1.0,24.791,1,0.0
3mlg5gieakg52hh4kb0xgrbx,1,3,20,2,1,pd,1.0,23.579,1,0.0
3mlg5gieakg52hh4kb0xgrbx,2,3,28,2,2,md,1.0,15.981,1,0.0
3mlg5gieakg52hh4kb0xgrbx,3,3,49,2,1,pd,1.0,18.882,1,0.0
3mlg5gieakg52hh4kb0xgrbx,4,3,71,2,2,md,0.0,8.248,1,0.0
3mlg5gieakg52hh4kb0xgrbx,5,3,37,3,2,md,0.0,28.926,1,0.0
3mlg5gieakg52hh4kb0xgrbx,6,3,13,3,1,pd,0.0,14.193,1,0.0
3mlg5gieakg52hh4kb0xgrbx,7,3,62,3,1,pd,1.0,15.824,1,0.0
3mlg5gieakg52hh4kb0xgrbx,8,3,12,4,2,md,0.0,15.468,1,0.0
3mlg5gieakg52hh4kb0xgrbx,9,3,72,4,2,md,0.0,28.005,1,0.0
3mlg5gieakg52hh4kb0xgrbx,10,3,53,4,1,pd,0.0,11.819,1,0.0
3mlg5gieakg52hh4kb0xgrbx,11,3,63,5,2,md,0.0,18.761,1,0.0
3mlg5gieakg52hh4kb0xgrbx,12,3,14,5,1,pd,0.0,27.267,1,0.0
3mlg5gieakg52hh4kb0xgrbx,13,3,64,6,2,md,1.0,20.746,1,0.0
3mlg5gieakg52hh4kb0xgrbx,14,3,46,6,1,pd,1.0,17.056,1,0.0
3mlg5gieakg52hh4kb0xgrbx,15,3,24,7,1,pd,0.0,11.262,1,0.0
3mlg5gieakg52hh4kb0xgrbx,16,3,78,7,2,md,1.0,12.723,1,0.0
3ryh9gpnd9mp6935pdj9x6u7,1,3,47,2,1,md,0.0,17.807,1,0.0
3ryh9gpnd9mp6935pdj9x6u7,2,3,6,2,2,pd,1.0,9.424,1,0.0
3ryh9gpnd9mp6935pdj9x6u7,3,3,51,2,2,pd,1.0,10.165,1,0.0
3ryh9gpnd9mp6935pdj9x6u7,4,3,70,2,1,md,1.0,9.394,1,0.0
3ryh9gpnd9mp6935pdj9x6u7,5,3,31,3,1,md,0.0,29.872,1,0.0
3ryh9gpnd9mp6935pdj9x6u7,6,3,18,3,2,pd,0.0,26.246,1,0.0
3ryh9gpnd9mp6935pdj9x6u7,7,3,62,3,2,pd,1.0,13.637,1,0.0
3ryh9gpnd9mp6935pdj9x6u7,8,3,77,3,1,md,1.0,12.431,1,0.0
3ryh9gpnd9mp6935pdj9x6u7,9,3,79,4,1,md,0.0,25.795,1,0.0
3ryh9gpnd9mp6935pdj9x6u7,10,3,23,4,2,pd,1.0,12.972,1,0.0
3ryh9gpnd9mp6935pdj9x6u7,11,3,52,5,2,pd,1.0,12.44,1,0.0
3ryh9gpnd9mp6935pdj9x6u7,12,3,67,5,1,md,1.0,24.201,1,0.0
3ryh9gpnd9mp6935pdj9x6u7,13,3,36,6,2,pd,1.0,21.387,1,0.0
3ryh9gpnd9mp6935pdj9x6u7,14,3,75,6,1,md,1.0,27.474,1,0.0
3ryh9gpnd9mp6935pdj9x6u7,15,3,21,7,2,pd,1.0,16.139,1,0.0
3ryh9gpnd9mp6935pdj9x6u7,16,3,66,8,1,md,1.0,25.711,1,0.0
3zxobbu2jzlvm8lhki7czl8t,1,3,19,2,2,pd,1.0,11.279,1,0.0
3zxobbu2jzlvm8lhki7czl8t,2,3,25,2,1,md,1.0,17.742,1,0.0
3zxobbu2jzlvm8lhki7czl8t,3,3,70,2,1,md,1.0,9.971,1,0.0
3zxobbu2jzlvm8lhki7czl8t,4,3,51,2,2,pd,1.0,12.59,1,0.0
3zxobbu2jzlvm8lhki7czl8t,5,3,27,3,1,md,1.0,17.746,1,0.0
3zxobbu2jzlvm8lhki7czl8t,6,3,15,3,2,pd,1.0,17.295,1,0.0
3zxobbu2jzlvm8lhki7czl8t,7,3,17,4,1,md,1.0,15.154,1,0.0
3zxobbu2jzlvm8lhki7czl8t,8,3,62,3,2,pd,1.0,17.566,1,0.0
3zxobbu2jzlvm8lhki7czl8t,9,3,23,4,2,pd,1.0,11.232,1,0.0
3zxobbu2jzlvm8lhki7czl8t,10,3,60,4,1,md,,,1,0.0
3zxobbu2jzlvm8lhki7czl8t,11,3,67,5,1,md,1.0,17.223,1,0.0
3zxobbu2jzlvm8lhki7czl8t,12,3,80,4,2,pd,1.0,18.208,1,0.0
3zxobbu2jzlvm8lhki7czl8t,13,3,36,6,2,pd,1.0,17.974,1,0.0
3zxobbu2jzlvm8lhki7czl8t,14,3,55,6,1,md,0.0,12.066,1,0.0
3zxobbu2jzlvm8lhki7czl8t,15,3,35,8,1,md,1.0,10.958,1,0.0
3zxobbu2jzlvm8lhki7czl8t,16,3,21,7,2,pd,1.0,14.311,1,0.0
47rjc265202ngfb9rcn5q489,1,3,6,2,2,pd,1.0,5.068,1,0.0
47rjc265202ngfb9rcn5q489,2,3,39,2,1,md,0.0,25.855,1,0.0
47rjc265202ngfb9rcn5q489,3,3,61,2,2,pd,0.0,14.962,1,0.0
47rjc265202ngfb9rcn5q489,4,3,10,3,1,md,0.0,9.021,1,0.0
47rjc265202ngfb9rcn5q489,5,3,13,3,2,pd,0.0,13.384,1,0.0
47rjc265202ngfb9rcn5q489,6,3,34,3,1,md,0.0,14.026,1,0.0
47rjc265202ngfb9rcn5q489,7,3,17,4,1,md,1.0,19.336,1,0.0
47rjc265202ngfb9rcn5q489,8,3,69,3,2,pd,0.0,1.747,1,0.0
47rjc265202ngfb9rcn5q489,9,3,60,4,1,md,0.0,12.569,1,0.0
47rjc265202ngfb9rcn5q489,10,3,40,4,2,pd,1.0,8.493,1,0.0
47rjc265202ngfb9rcn5q489,11,3,80,4,2,pd,0.0,11.526,1,0.0
47rjc265202ngfb9rcn5q489,12,3,63,5,1,md,0.0,8.258,1,0.0
47rjc265202ngfb9rcn5q489,13,3,44,6,2,pd,0.0,6.57,1,0.0
47rjc265202ngfb9rcn5q489,14,3,54,6,1,md,0.0,5.635,1,0.0
47rjc265202ngfb9rcn5q489,15,3,78,7,1,md,0.0,18.65,1,0.0
47rjc265202ngfb9rcn5q489,16,3,21,7,2,pd,0.0,5.987,1,0.0
4dmuir6ip4hx9eryfxcq2rrg,1,3,19,2,1,pd,0.0,5.489,1,0.0
4dmuir6ip4hx9eryfxcq2rrg,2,3,39,2,2,md,1.0,11.611,1,0.0
4dmuir6ip4hx9eryfxcq2rrg,3,3,65,2,2,md,1.0,7.302,1,0.0
4dmuir6ip4hx9eryfxcq2rrg,4,3,50,2,1,pd,1.0,24.818,1,0.0
4dmuir6ip4hx9eryfxcq2rrg,5,3,27,3,2,md,0.0,29.011,1,0.0
4dmuir6ip4hx9eryfxcq2rrg,6,3,13,3,1,pd,1.0,25.832,1,0.0
4dmuir6ip4hx9eryfxcq2rrg,7,3,12,4,2,md,0.0,15.031,1,0.0
4dmuir6ip4hx9eryfxcq2rrg,8,3,58,3,1,pd,1.0,8.999,1,0.0
4dmuir6ip4hx9eryfxcq2rrg,9,3,79,4,2,md,0.0,12.632,1,0.0
4dmuir6ip4hx9eryfxcq2rrg,10,3,42,4,1,pd,1.0,15.481,1,0.0
4dmuir6ip4hx9eryfxcq2rrg,11,3,26,5,1,pd,0.0,13.689,1,0.0
4dmuir6ip4hx9eryfxcq2rrg,12,3,67,5,2,md,1.0,15.827,1,0.0
4dmuir6ip4hx9eryfxcq2rrg,13,3,64,6,2,md,0.0,21.712,1,0.0
4dmuir6ip4hx9eryfxcq2rrg,14,3,44,6,1,pd,0.0,29.294,1,0.0
4dmuir6ip4hx9eryfxcq2rrg,15,3,66,8,2,md,1.0,16.178,1,0.0
4dmuir6ip4hx9eryfxcq2rrg,16,3,24,7,1,pd,0.0,18.079,1,0.0
4h5yju9ncyeiyah2g5oi6vgt,1,3,20,2,2,pd,0.0,8.605,1,0.0
4h5yju9ncyeiyah2g5oi6vgt,2,3,47,2,1,md,0.0,16.772,1,0.0
4h5yju9ncyeiyah2g5oi6vgt,3,3,51,2,2,pd,1.0,11.125,1,0.0
4h5yju9ncyeiyah2g5oi6vgt,4,3,70,2,1,md,1.0,16.477,1,0.0
4h5yju9ncyeiyah2g5oi6vgt,5,3,37,3,1,md,0.0,4.783,1,0.0
4h5yju9ncyeiyah2g5oi6vgt,6,3,18,3,2,pd,0.0,7.442,1,0.0
4h5yju9ncyeiyah2g5oi6vgt,7,3,17,4,1,md,0.0,8.656,1,0.0
4h5yju9ncyeiyah2g5oi6vgt,8,3,58,3,2,pd,0.0,12.314,1,0.0
4h5yju9ncyeiyah2g5oi6vgt,9,3,23,4,2,pd,1.0,14.847,1,0.0
4h5yju9ncyeiyah2g5oi6vgt,10,3,73,4,1,md,0.0,5.088,1,0.0
4h5yju9ncyeiyah2g5oi6vgt,11,3,14,5,2,pd,0.0,9.912,1,0.0
4h5yju9ncyeiyah2g5oi6vgt,12,3,59,5,1,md,0.0,2.352,1,0.0
4h5yju9ncyeiyah2g5oi6vgt,13,3,36,6,2,pd,0.0,6.79,1,0.0
4h5yju9ncyeiyah2g5oi6vgt,14,3,75,6,1,md,0.0,1.525,1,0.0
4h5yju9ncyeiyah2g5oi6vgt,15,3,29,7,2,pd,0.0,0.766,1,0.0
4h5yju9ncyeiyah2g5oi6vgt,16,3,45,7,1,md,0.0,0.635,1,0.0
4i8fdqxxcxtx42msnwvy3e5p,1,3,6,2,1,pd,1.0,8.655,1,0.0
4i8fdqxxcxtx42msnwvy3e5p,2,3,25,2,2,md,1.0,11.07,1,0.0
4i8fdqxxcxtx42msnwvy3e5p,3,3,65,2,2,md,1.0,10.813,1,0.0
4i8fdqxxcxtx42msnwvy3e5p,4,3,49,2,1,pd,1.0,11.784,1,0.0
4i8fdqxxcxtx42msnwvy3e5p,5,3,18,3,1,pd,1.0,15.211,1,0.0
4i8fdqxxcxtx42msnwvy3e5p,6,3,27,3,2,md,0.0,22.89,1,0.0
4i8fdqxxcxtx42msnwvy3e5p,7,3,58,3,1,pd,1.0,14.762,1,0.0
4i8fdqxxcxtx42msnwvy3e5p,8,3,77,3,2,md,1.0,27.033,1,0.0
4i8fdqxxcxtx42msnwvy3e5p,9,3,23,4,1,pd,1.0,11.483,1,0.0
4i8fdqxxcxtx42msnwvy3e5p,10,3,79,4,2,md,0.0,26.999,1,0.0
4i8fdqxxcxtx42msnwvy3e5p,11,3,26,5,1,pd,1.0,22.682,1,0.0
4i8fdqxxcxtx42msnwvy3e5p,12,3,67,5,2,md,1.0,18.96,1,0.0
4i8fdqxxcxtx42msnwvy3e5p,13,3,55,6,2,md,1.0,9.566,1,0.0
4i8fdqxxcxtx42msnwvy3e5p,14,3,76,5,1,pd,0.0,27.664,1,0.0
4i8fdqxxcxtx42msnwvy3e5p,15,3,30,7,1,pd,1.0,16.243,1,0.0
4i8fdqxxcxtx42msnwvy3e5p,16,3,78,7,2,md,0.0,26.292,1,0.0
4mhzsuh7xfod2do73mss6ig2,1,3,22,2,1,pd,1.0,3.884,1,0.0
4mhzsuh7xfod2do73mss6ig2,2,3,47,2,2,md,1.0,13.248,1,0.0
4mhzsuh7xfod2do73mss6ig2,3,3,10,3,2,md,1.0,9.499,1,0.0
4mhzsuh7xfod2do73mss6ig2,4,3,49,2,1,pd,1.0,4.35,1,0.0
4mhzsuh7xfod2do73mss6ig2,5,3,13,3,1,pd,1.0,9.357,1,0.0
4mhzsuh7xfod2do73mss6ig2,6,3,31,3,2,md,0.0,16.95,1,0.0
4mhzsuh7xfod2do73mss6ig2,7,3,58,3,1,pd,1.0,4.513,1,0.0
4mhzsuh7xfod2do73mss6ig2,8,3,16,4,2,md,0.0,8.105,1,0.0
4mhzsuh7xfod2do73mss6ig2,9,3,73,4,2,md,0.0,20.019,1,0.0
4mhzsuh7xfod2do73mss6ig2,10,3,23,4,1,pd,1.0,3.853,1,0.0
4mhzsuh7xfod2do73mss6ig2,11,3,59,5,2,md,1.0,6.553,1,0.0
4mhzsuh7xfod2do73mss6ig2,12,3,52,5,1,pd,1.0,5.815,1,0.0
4mhzsuh7xfod2do73mss6ig2,13,3,75,6,2,md,0.0,13.185,1,0.0
4mhzsuh7xfod2do73mss6ig2,14,3,46,6,1,pd,1.0,12.745,1,0.0
4mhzsuh7xfod2do73mss6ig2,15,3,21,7,1,pd,0.0,8.936,1,0.0
4mhzsuh7xfod2do73mss6ig2,16,3,78,7,2,md,1.0,12.116,1,0.0
51brojcur0ahwcou0zeiofr4,1,3,6,2,1,pd,0.0,7.576,1,0.0
51brojcur0ahwcou0zeiofr4,2,3,39,2,2,md,1.0,8.856,1,0.0
51brojcur0ahwcou0zeiofr4,3,3,50,2,1,pd,1.0,7.026,1,0.0
51brojcur0ahwcou0zeiofr4,4,3,70,2,2,md,1.0,9.279,1,0.0
51brojcur0ahwcou0zeiofr4,5,3,15,3,1,pd,0.0,11.876,1,0.0
51brojcur0ahwcou0zeiofr4,6,3,34,3,2,md,1.0,13.879,1,0.0
51brojcur0ahwcou0zeiofr4,7,3,56,3,1,pd,1.0,11.702,1,0.0
51brojcur0ahwcou0zeiofr4,8,3,77,3,2,md,1.0,7.24,1,0.0
51brojcur0ahwcou0zeiofr4,9,3,23,4,1,pd,1.0,7.407,1,0.0
51brojcur0ahwcou0zeiofr4,10,3,73,4,2,md,1.0,16.144,1,0.0
51brojcur0ahwcou0zeiofr4,11,3,52,5,1,pd,0.0,15.763,1,0.0
51brojcur0ahwcou0zeiofr4,12,3,63,5,2,md,0.0,16.135,1,0.0
51brojcur0ahwcou0zeiofr4,13,3,54,6,2,md,0.0,13.803,1,0.0
51brojcur0ahwcou0zeiofr4,14,3,36,6,1,pd,1.0,10.898,1,0.0
51brojcur0ahwcou0zeiofr4,15,3,45,7,2,md,0.0,9.943,1,0.0
51brojcur0ahwcou0zeiofr4,16,3,29,7,1,pd,1.0,8.872,1,0.0
525crgtd5xx14lsyudfeth8r,1,3,20,2,1,pd,1.0,13.494,1,0.0
525crgtd5xx14lsyudfeth8r,2,3,47,2,2,md,1.0,13.486,1,0.0
525crgtd5xx14lsyudfeth8r,3,3,10,3,2,md,1.0,15.76,1,0.0
525crgtd5xx14lsyudfeth8r,4,3,61,2,1,pd,1.0,13.206,1,0.0
525crgtd5xx14lsyudfeth8r,5,3,11,3,1,pd,1.0,12.497,1,0.0
525crgtd5xx14lsyudfeth8r,6,3,27,3,2,md,0.0,13.779,1,0.0
525crgtd5xx14lsyudfeth8r,7,3,62,3,1,pd,1.0,8.515,1,0.0
525crgtd5xx14lsyudfeth8r,8,3,17,4,2,md,0.0,15.43,1,0.0
525crgtd5xx14lsyudfeth8r,9,3,53,4,1,pd,1.0,12.502,1,0.0
525crgtd5xx14lsyudfeth8r,10,3,72,4,2,md,0.0,15.579,1,0.0
525crgtd5xx14lsyudfeth8r,11,3,67,5,2,md,1.0,13.485,1,0.0
525crgtd5xx14lsyudfeth8r,12,3,80,4,1,pd,0.0,15.968,1,0.0
525crgtd5xx14lsyudfeth8r,13,3,76,5,1,pd,0.0,13.606,1,0.0
525crgtd5xx14lsyudfeth8r,14,3,75,6,2,md,0.0,17.165,1,0.0
525crgtd5xx14lsyudfeth8r,15,3,45,7,2,md,0.0,5.756,1,0.0
525crgtd5xx14lsyudfeth8r,16,3,30,7,1,pd,1.0,3.533,1,0.0
56rfelahgx44yaqkd2iu7s0n,1,3,47,2,1,md,0.0,16.907,1,0.0
56rfelahgx44yaqkd2iu7s0n,2,3,6,2,2,pd,1.0,9.711,1,0.0
56rfelahgx44yaqkd2iu7s0n,3,3,10,3,1,md,1.0,13.991,1,0.0
56rfelahgx44yaqkd2iu7s0n,4,3,50,2,2,pd,0.0,25.537,1,0.0
56rfelahgx44yaqkd2iu7s0n,5,3,13,3,2,pd,1.0,16.465,1,0.0
56rfelahgx44yaqkd2iu7s0n,6,3,34,3,1,md,0.0,9.371,1,0.0
56rfelahgx44yaqkd2iu7s0n,7,3,62,3,2,pd,0.0,20.701,1,0.0
56rfelahgx44yaqkd2iu7s0n,8,3,16,4,1,md,0.0,11.406,1,0.0
56rfelahgx44yaqkd2iu7s0n,9,3,42,4,2,pd,0.0,20.952,1,0.0
56rfelahgx44yaqkd2iu7s0n,10,3,73,4,1,md,0.0,12.929,1,0.0
56rfelahgx44yaqkd2iu7s0n,11,3,26,5,2,pd,1.0,23.176,1,0.0
56rfelahgx44yaqkd2iu7s0n,12,3,67,5,1,md,0.0,18.622,1,0.0
56rfelahgx44yaqkd2iu7s0n,13,3,46,6,2,pd,1.0,22.562,1,0.0
56rfelahgx44yaqkd2iu7s0n,14,3,64,6,1,md,0.0,18.412,1,0.0
56rfelahgx44yaqkd2iu7s0n,15,3,35,8,1,md,0.0,10.902,1,0.0
56rfelahgx44yaqkd2iu7s0n,16,3,21,7,2,pd,0.0,15.047,1,0.0
5crlydz5xjnujl7cw511iew5,1,3,6,2,1,pd,1.0,7.611,1,0.0
5crlydz5xjnujl7cw511iew5,2,3,47,2,2,md,0.0,11.623,1,0.0
5crlydz5xjnujl7cw511iew5,3,3,61,2,1,pd,1.0,12.306,1,0.0
5crlydz5xjnujl7cw511iew5,4,3,10,3,2,md,1.0,20.591,1,0.0
5crlydz5xjnujl7cw511iew5,5,3,11,3,1,pd,0.0,26.597,1,0.0
5crlydz5xjnujl7cw511iew5,6,3,31,3,2,md,1.0,12.732,1,0.0
5crlydz5xjnujl7cw511iew5,7,3,77,3,2,md,1.0,11.371,1,0.0
5crlydz5xjnujl7cw511iew5,8,3,58,3,1,pd,1.0,11.029,1,0.0
5crlydz5xjnujl7cw511iew5,9,3,53,4,1,pd,0.0,18.788,1,0.0
5crlydz5xjnujl7cw511iew5,10,3,60,4,2,md,1.0,11.256,1,0.0
5crlydz5xjnujl7cw511iew5,11,3,80,4,1,pd,0.0,9.577,1,0.0
5crlydz5xjnujl7cw511iew5,12,3,67,5,2,md,0.0,10.008,1,0.0
5crlydz5xjnujl7cw511iew5,13,3,64,6,2,md,0.0,17.812,1,0.0
5crlydz5xjnujl7cw511iew5,14,3,46,6,1,pd,1.0,10.167,1,0.0
5crlydz5xjnujl7cw511iew5,15,3,35,8,2,md,0.0,10.368,1,0.0
5crlydz5xjnujl7cw511iew5,16,3,21,7,1,pd,0.0,15.957,1,0.0
5g41xp889l6rn0ju6xu3b53m,1,3,25,2,1,md,1.0,7.38,1,0.0
5g41xp889l6rn0ju6xu3b53m,2,3,6,2,2,pd,1.0,4.32,1,0.0
5g41xp889l6rn0ju6xu3b53m,3,3,70,2,1,md,1.0,5.43,1,0.0
5g41xp889l6rn0ju6xu3b53m,4,3,61,2,2,pd,1.0,10.359,1,0.0
5g41xp889l6rn0ju6xu3b53m,5,3,13,3,2,pd,0.0,15.175,1,0.0
5g41xp889l6rn0ju6xu3b53m,6,3,34,3,1,md,1.0,26.839,1,0.0
5g41xp889l6rn0ju6xu3b53m,7,3,62,3,2,pd,0.0,16.238,1,0.0
5g41xp889l6rn0ju6xu3b53m,8,3,12,4,1,md,0.0,8.583,1,0.0
5g41xp889l6rn0ju6xu3b53m,9,3,79,4,1,md,1.0,11.95,1,0.0
5g41xp889l6rn0ju6xu3b53m,10,3,23,4,2,pd,1.0,5.871,1,0.0
5g41xp889l6rn0ju6xu3b53m,11,3,14,5,2,pd,0.0,11.384,1,0.0
5g41xp889l6rn0ju6xu3b53m,12,3,74,5,1,md,0.0,6.964,1,0.0
5g41xp889l6rn0ju6xu3b53m,13,3,44,6,2,pd,0.0,6.557,1,0.0
5g41xp889l6rn0ju6xu3b53m,14,3,75,6,1,md,0.0,5.838,1,0.0
5g41xp889l6rn0ju6xu3b53m,15,3,30,7,2,pd,1.0,9.473,1,0.0
5g41xp889l6rn0ju6xu3b53m,16,3,78,7,1,md,0.0,9.239,1,0.0
5jy2qnd6t58agficsjd2vths,1,3,28,2,1,md,0.0,10.273,1,0.0
5jy2qnd6t58agficsjd2vths,2,3,6,2,2,pd,1.0,5.98,1,0.0
5jy2qnd6t58agficsjd2vths,3,3,10,3,1,md,0.0,19.086,1,0.0
5jy2qnd6t58agficsjd2vths,4,3,51,2,2,pd,1.0,8.628,1,0.0
5jy2qnd6t58agficsjd2vths,5,3,15,3,2,pd,0.0,14.282,1,0.0
5jy2qnd6t58agficsjd2vths,6,3,37,3,1,md,0.0,10.018,1,0.0
5jy2qnd6t58agficsjd2vths,7,3,12,4,1,md,0.0,9.429,1,0.0
5jy2qnd6t58agficsjd2vths,8,3,56,3,2,pd,1.0,11.12,1,0.0
5jy2qnd6t58agficsjd2vths,9,3,40,4,2,pd,0.0,7.202,1,0.0
5jy2qnd6t58agficsjd2vths,10,3,73,4,1,md,0.0,7.27,1,0.0
5jy2qnd6t58agficsjd2vths,11,3,14,5,2,pd,1.0,12.238,1,0.0
5jy2qnd6t58agficsjd2vths,12,3,67,5,1,md,0.0,7.399,1,0.0
5jy2qnd6t58agficsjd2vths,13,3,76,5,2,pd,0.0,8.152,1,0.0
5jy2qnd6t58agficsjd2vths,14,3,55,6,1,md,0.0,3.059,1,0.0
5jy2qnd6t58agficsjd2vths,15,3,78,7,1,md,1.0,8.854,1,0.0
5jy2qnd6t58agficsjd2vths,16,3,29,7,2,pd,0.0,8.247,1,0.0
5la01jwgjd5r0smzsld92t1m,1,3,6,2,2,pd,1.0,5.707,1,0.0
5la01jwgjd5r0smzsld92t1m,2,3,28,2,1,md,1.0,22.497,1,0.0
5la01jwgjd5r0smzsld92t1m,3,3,61,2,2,pd,1.0,15.949,1,0.0
5la01jwgjd5r0smzsld92t1m,4,3,65,2,1,md,1.0,10.042,1,0.0
5la01jwgjd5r0smzsld92t1m,5,3,11,3,2,pd,1.0,18.317,1,0.0
5la01jwgjd5r0smzsld92t1m,6,3,37,3,1,md,0.0,24.908,1,0.0
5la01jwgjd5r0smzsld92t1m,7,3,17,4,1,md,1.0,16.151,1,0.0
5la01jwgjd5r0smzsld92t1m,8,3,62,3,2,pd,1.0,7.6,1,0.0
5la01jwgjd5r0smzsld92t1m,9,3,23,4,2,pd,1.0,7.718,1,0.0
5la01jwgjd5r0smzsld92t1m,10,3,79,4,1,md,1.0,19.075,1,0.0
5la01jwgjd5r0smzsld92t1m,11,3,26,5,2,pd,0.0,28.141,1,0.0
5la01jwgjd5r0smzsld92t1m,12,3,74,5,1,md,1.0,16.22,1,0.0
5la01jwgjd5r0smzsld92t1m,13,3,64,6,1,md,1.0,29.386,1,0.0
5la01jwgjd5r0smzsld92t1m,14,3,76,5,2,pd,1.0,14.694,1,0.0
5la01jwgjd5r0smzsld92t1m,15,3,35,8,1,md,1.0,9.194,1,0.0
5la01jwgjd5r0smzsld92t1m,16,3,21,7,2,pd,1.0,10.138,1,0.0
5m8lau3ky2gtgpbmnr8kuv4g,1,3,22,2,2,pd,1.0,13.446,1,0.0
5m8lau3ky2gtgpbmnr8kuv4g,2,3,39,2,1,md,1.0,29.226,1,0.0
5m8lau3ky2gtgpbmnr8kuv4g,3,3,49,2,2,pd,1.0,19.2,1,0.0
5m8lau3ky2gtgpbmnr8kuv4g,4,3,71,2,1,md,1.0,26.255,1,0.0
5m8lau3ky2gtgpbmnr8kuv4g,5,3,34,3,1,md,0.0,29.668,1,0.0
5m8lau3ky2gtgpbmnr8kuv4g,6,3,11,3,2,pd,1.0,25.638,1,0.0
5m8lau3ky2gtgpbmnr8kuv4g,7,3,62,3,2,pd,1.0,14.698,1,0.0
5m8lau3ky2gtgpbmnr8kuv4g,8,3,12,4,1,md,1.0,28.045,1,0.0
5m8lau3ky2gtgpbmnr8kuv4g,9,3,53,4,2,pd,1.0,19.304,1,0.0
5m8lau3ky2gtgpbmnr8kuv4g,10,3,72,4,1,md,0.0,18.553,1,0.0
5m8lau3ky2gtgpbmnr8kuv4g,11,3,26,5,2,pd,1.0,13.948,1,0.0
5m8lau3ky2gtgpbmnr8kuv4g,12,3,67,5,1,md,1.0,16.233,1,0.0
5m8lau3ky2gtgpbmnr8kuv4g,13,3,54,6,1,md,0.0,25.517,1,0.0
5m8lau3ky2gtgpbmnr8kuv4g,14,3,76,5,2,pd,1.0,10.262,1,0.0
5m8lau3ky2gtgpbmnr8kuv4g,15,3,24,7,2,pd,1.0,24.037,1,0.0
5m8lau3ky2gtgpbmnr8kuv4g,16,3,78,7,1,md,,,1,0.0
67heohzr97c0kcq6lwqjqc10,1,3,25,2,1,md,1.0,15.802,1,0.0
67heohzr97c0kcq6lwqjqc10,2,3,19,2,2,pd,1.0,10.207,1,0.0
67heohzr97c0kcq6lwqjqc10,3,3,51,2,2,pd,1.0,21.081,1,0.0
67heohzr97c0kcq6lwqjqc10,4,3,10,3,1,md,1.0,26.537,1,0.0
67heohzr97c0kcq6lwqjqc10,5,3,11,3,2,pd,1.0,24.468,1,0.0
67heohzr97c0kcq6lwqjqc10,6,3,27,3,1,md,1.0,23.298,1,0.0
67heohzr97c0kcq6lwqjqc10,7,3,17,4,1,md,1.0,10.745,1,0.0
67heohzr97c0kcq6lwqjqc10,8,3,56,3,2,pd,0.0,28.304,1,0.0
67heohzr97c0kcq6lwqjqc10,9,3,73,4,1,md,1.0,28.188,1,0.0
67heohzr97c0kcq6lwqjqc10,10,3,23,4,2,pd,1.0,8.883,1,0.0
67heohzr97c0kcq6lwqjqc10,11,3,14,5,2,pd,0.0,28.35,1,0.0
67heohzr97c0kcq6lwqjqc10,12,3,63,5,1,md,1.0,17.203,1,0.0
67heohzr97c0kcq6lwqjqc10,13,3,64,6,1,md,1.0,25.173,1,0.0
67heohzr97c0kcq6lwqjqc10,14,3,46,6,2,pd,1.0,12.594,1,0.0
67heohzr97c0kcq6lwqjqc10,15,3,45,7,1,md,1.0,17.39,1,0.0
67heohzr97c0kcq6lwqjqc10,16,3,30,7,2,pd,1.0,19.026,1,0.0
68td3tbgc9pgeihse2uscazd,1,3,25,2,2,md,0.0,5.492,1,0.0
68td3tbgc9pgeihse2uscazd,2,3,22,2,1,pd,1.0,19.419,1,0.0
68td3tbgc9pgeihse2uscazd,3,3,65,2,2,md,1.0,25.795,1,0.0
68td3tbgc9pgeihse2uscazd,4,3,51,2,1,pd,1.0,22.443,1,0.0
68td3tbgc9pgeihse2uscazd,5,3,27,3,2,md,1.0,23.475,1,0.0
68td3tbgc9pgeihse2uscazd,6,3,11,3,1,pd,1.0,25.522,1,0.0
68td3tbgc9pgeihse2uscazd,7,3,58,3,1,pd,1.0,11.075,1,0.0
68td3tbgc9pgeihse2uscazd,8,3,17,4,2,md,1.0,25.493,1,0.0
68td3tbgc9pgeihse2uscazd,9,3,72,4,2,md,1.0,22.716,1,0.0
68td3tbgc9pgeihse2uscazd,10,3,40,4,1,pd,1.0,18.612,1,0.0
68td3tbgc9pgeihse2uscazd,11,3,80,4,1,pd,1.0,13.29,1,0.0
68td3tbgc9pgeihse2uscazd,12,3,59,5,2,md,1.0,25.556,1,0.0
68td3tbgc9pgeihse2uscazd,13,3,55,6,2,md,1.0,18.741,1,0.0
68td3tbgc9pgeihse2uscazd,14,3,46,6,1,pd,1.0,19.428,1,0.0
68td3tbgc9pgeihse2uscazd,15,3,35,8,2,md,0.0,28.268,1,0.0
68td3tbgc9pgeihse2uscazd,16,3,29,7,1,pd,1.0,15.757,1,0.0
6a80r7h6mc233wfkku689f8n,1,3,47,2,2,md,0.0,8.667,1,0.0
6a80r7h6mc233wfkku689f8n,2,3,19,2,1,pd,1.0,9.903,1,0.0
6a80r7h6mc233wfkku689f8n,3,3,61,2,1,pd,1.0,14.072,1,0.0
6a80r7h6mc233wfkku689f8n,4,3,65,2,2,md,1.0,8.175,1,0.0
6a80r7h6mc233wfkku689f8n,5,3,18,3,1,pd,0.0,16.376,1,0.0
6a80r7h6mc233wfkku689f8n,6,3,37,3,2,md,0.0,9.874,1,0.0
6a80r7h6mc233wfkku689f8n,7,3,62,3,1,pd,1.0,7.215,1,0.0
6a80r7h6mc233wfkku689f8n,8,3,17,4,2,md,0.0,19.25,1,0.0
6a80r7h6mc233wfkku689f8n,9,3,42,4,1,pd,0.0,12.813,1,0.0
6a80r7h6mc233wfkku689f8n,10,3,60,4,2,md,1.0,7.729,1,0.0
6a80r7h6mc233wfkku689f8n,11,3,80,4,1,pd,1.0,6.402,1,0.0
6a80r7h6mc233wfkku689f8n,12,3,67,5,2,md,1.0,12.365,1,0.0
6a80r7h6mc233wfkku689f8n,13,3,36,6,1,pd,0.0,6.524,1,0.0
6a80r7h6mc233wfkku689f8n,14,3,54,6,2,md,0.0,3.651,1,0.0
6a80r7h6mc233wfkku689f8n,15,3,78,7,2,md,0.0,10.633,1,0.0
6a80r7h6mc233wfkku689f8n,16,3,24,7,1,pd,0.0,3.921,1,0.0
6dgt2qu2enlze2oxudlmz2tv,1,3,22,2,2,pd,1.0,12.997,1,0.0
6dgt2qu2enlze2oxudlmz2tv,2,3,47,2,1,md,1.0,20.507,1,0.0
6dgt2qu2enlze2oxudlmz2tv,3,3,65,2,1,md,1.0,11.164,1,0.0
6dgt2qu2enlze2oxudlmz2tv,4,3,50,2,2,pd,1.0,9.633,1,0.0
6dgt2qu2enlze2oxudlmz2tv,5,3,34,3,1,md,0.0,27.036,1,0.0
6dgt2qu2enlze2oxudlmz2tv,6,3,13,3,2,pd,1.0,27.391,1,0.0
6dgt2qu2enlze2oxudlmz2tv,7,3,17,4,1,md,1.0,23.37,1,0.0
6dgt2qu2enlze2oxudlmz2tv,8,3,58,3,2,pd,1.0,14.405,1,0.0
6dgt2qu2enlze2oxudlmz2tv,9,3,72,4,1,md,1.0,27.853,1,0.0
6dgt2qu2enlze2oxudlmz2tv,10,3,40,4,2,pd,0.0,28.616,1,0.0
6dgt2qu2enlze2oxudlmz2tv,11,3,74,5,1,md,1.0,29.735,1,0.0
6dgt2qu2enlze2oxudlmz2tv,12,3,52,5,2,pd,1.0,17.47,1,0.0
6dgt2qu2enlze2oxudlmz2tv,13,3,75,6,1,md,0.0,28.902,1,0.0
6dgt2qu2enlze2oxudlmz2tv,14,3,76,5,2,pd,1.0,18.674,1,0.0
6dgt2qu2enlze2oxudlmz2tv,15,3,29,7,2,pd,1.0,16.733,1,0.0
6dgt2qu2enlze2oxudlmz2tv,16,3,45,7,1,md,1.0,12.701,1,0.0
6sqzntxosrpt76sm28lb0w81,1,3,22,2,1,pd,1.0,11.348,1,0.0
6sqzntxosrpt76sm28lb0w81,2,3,25,2,2,md,1.0,17.544,1,0.0
6sqzntxosrpt76sm28lb0w81,3,3,61,2,1,pd,1.0,26.371,1,0.0
6sqzntxosrpt76sm28lb0w81,4,3,71,2,2,md,1.0,17.197,1,0.0
6sqzntxosrpt76sm28lb0w81,5,3,37,3,2,md,1.0,27.782,1,0.0
6sqzntxosrpt76sm28lb0w81,6,3,13,3,1,pd,1.0,25.286,1,0.0
6sqzntxosrpt76sm28lb0w81,7,3,62,3,1,pd,1.0,8.719,1,0.0
6sqzntxosrpt76sm28lb0w81,8,3,16,4,2,md,1.0,20.643,1,0.0
6sqzntxosrpt76sm28lb0w81,9,3,42,4,1,pd,1.0,22.53,1,0.0
6sqzntxosrpt76sm28lb0w81,10,3,79,4,2,md,1.0,23.778,1,0.0
6sqzntxosrpt76sm28lb0w81,11,3,67,5,2,md,1.0,22.855,1,0.0
6sqzntxosrpt76sm28lb0w81,12,3,52,5,1,pd,1.0,20.886,1,0.0
6sqzntxosrpt76sm28lb0w81,13,3,54,6,2,md,0.0,12.74,1,0.0
6sqzntxosrpt76sm28lb0w81,14,3,76,5,1,pd,1.0,10.226,1,0.0
6sqzntxosrpt76sm28lb0w81,15,3,29,7,1,pd,1.0,18.734,1,0.0
6sqzntxosrpt76sm28lb0w81,16,3,35,8,2,md,1.0,19.529,1,0.0
71a0cmlv8tcccrsg49rz5ty6,1,3,39,2,1,md,0.0,15.951,0,0.0
71a0cmlv8tcccrsg49rz5ty6,2,3,19,2,2,pd,0.0,17.894,0,0.0
71a0cmlv8tcccrsg49rz5ty6,3,3,71,2,1,md,1.0,8.23,0,0.0
71a0cmlv8tcccrsg49rz5ty6,4,3,50,2,2,pd,0.0,18.981,0,0.0
71a0cmlv8tcccrsg49rz5ty6,5,3,18,3,2,pd,0.0,9.95,0,0.0
71a0cmlv8tcccrsg49rz5ty6,6,3,31,3,1,md,0.0,18.888,0,0.0
71a0cmlv8tcccrsg49rz5ty6,7,3,77,3,1,md,0.0,4.85,0,0.0
71a0cmlv8tcccrsg49rz5ty6,8,3,58,3,2,pd,0.0,13.98,0,0.0
71a0cmlv8tcccrsg49rz5ty6,9,3,40,4,2,pd,0.0,6.008,0,0.0
71a0cmlv8tcccrsg49rz5ty6,10,3,73,4,1,md,0.0,3.442,0,0.0
71a0cmlv8tcccrsg49rz5ty6,11,3,59,5,1,md,0.0,5.651,0,0.0
71a0cmlv8tcccrsg49rz5ty6,12,3,14,5,2,pd,1.0,4.463,0,0.0
71a0cmlv8tcccrsg49rz5ty6,13,3,76,5,2,pd,1.0,13.033,0,0.0
71a0cmlv8tcccrsg49rz5ty6,14,3,64,6,1,md,0.0,22.49,0,0.0
71a0cmlv8tcccrsg49rz5ty6,15,3,21,7,2,pd,0.0,0.884,0,0.0
71a0cmlv8tcccrsg49rz5ty6,16,3,35,8,1,md,1.0,8.31,0,0.0
77ns1fox63i44jwup2r16uud,1,3,20,2,1,pd,1.0,8.242,1,0.0
77ns1fox63i44jwup2r16uud,2,3,28,2,2,md,1.0,13.579,1,0.0
77ns1fox63i44jwup2r16uud,3,3,49,2,1,pd,1.0,7.988,1,0.0
77ns1fox63i44jwup2r16uud,4,3,10,3,2,md,1.0,7.509,1,0.0
77ns1fox63i44jwup2r16uud,5,3,15,3,1,pd,0.0,29.321,1,0.0
77ns1fox63i44jwup2r16uud,6,3,34,3,2,md,1.0,25.819,1,0.0
77ns1fox63i44jwup2r16uud,7,3,69,3,1,pd,1.0,18.254,1,0.0
77ns1fox63i44jwup2r16uud,8,3,17,4,2,md,1.0,12.612,1,0.0
77ns1fox63i44jwup2r16uud,9,3,60,4,2,md,1.0,27.477,1,0.0
77ns1fox63i44jwup2r16uud,10,3,23,4,1,pd,1.0,8.9,1,0.0
77ns1fox63i44jwup2r16uud,11,3,26,5,1,pd,1.0,28.191,1,0.0
77ns1fox63i44jwup2r16uud,12,3,63,5,2,md,1.0,13.45,1,0.0
77ns1fox63i44jwup2r16uud,13,3,44,6,1,pd,1.0,16.302,1,0.0
77ns1fox63i44jwup2r16uud,14,3,64,6,2,md,1.0,27.087,1,2.0
77ns1fox63i44jwup2r16uud,15,3,45,7,2,md,1.0,9.298,1,0.0
77ns1fox63i44jwup2r16uud,16,3,30,7,1,pd,1.0,7.508,1,0.0
7e1qtuicoel8euz710kf6m0t,1,3,19,2,2,pd,1.0,4.869,1,0.0
7e1qtuicoel8euz710kf6m0t,2,3,25,2,1,md,1.0,6.773,1,0.0
7e1qtuicoel8euz710kf6m0t,3,3,10,3,1,md,1.0,11.225,1,0.0
7e1qtuicoel8euz710kf6m0t,4,3,49,2,2,pd,1.0,4.775,1,0.0
7e1qtuicoel8euz710kf6m0t,5,3,27,3,1,md,1.0,10.402,1,0.0
7e1qtuicoel8euz710kf6m0t,6,3,11,3,2,pd,1.0,14.736,1,0.0
7e1qtuicoel8euz710kf6m0t,7,3,12,4,1,md,0.0,9.27,1,0.0
7e1qtuicoel8euz710kf6m0t,8,3,62,3,2,pd,1.0,3.778,1,0.0
7e1qtuicoel8euz710kf6m0t,9,3,79,4,1,md,0.0,7.206,1,0.0
7e1qtuicoel8euz710kf6m0t,10,3,42,4,2,pd,1.0,7.169,1,0.0
7e1qtuicoel8euz710kf6m0t,11,3,26,5,2,pd,0.0,7.898,1,0.0
7e1qtuicoel8euz710kf6m0t,12,3,74,5,1,md,0.0,3.136,1,0.0
7e1qtuicoel8euz710kf6m0t,13,3,36,6,2,pd,0.0,3.376,1,0.0
7e1qtuicoel8euz710kf6m0t,14,3,64,6,1,md,0.0,1.888,1,0.0
7e1qtuicoel8euz710kf6m0t,15,3,66,8,1,md,0.0,2.523,1,0.0
7e1qtuicoel8euz710kf6m0t,16,3,21,7,2,pd,1.0,4.023,1,0.0
7escbsueprx85mqubp6ejsc1,1,3,39,2,2,md,1.0,29.681,1,0.0
7escbsueprx85mqubp6ejsc1,2,3,22,2,1,pd,1.0,14.831,1,0.0
7escbsueprx85mqubp6ejsc1,3,3,50,2,1,pd,1.0,13.685,1,0.0
7escbsueprx85mqubp6ejsc1,4,3,10,3,2,md,1.0,16.475,1,0.0
7escbsueprx85mqubp6ejsc1,5,3,13,3,1,pd,0.0,22.94,1,0.0
7escbsueprx85mqubp6ejsc1,6,3,34,3,2,md,1.0,22.654,1,0.0
7escbsueprx85mqubp6ejsc1,7,3,56,3,1,pd,1.0,27.834,1,0.0
7escbsueprx85mqubp6ejsc1,8,3,17,4,2,md,1.0,26.975,1,0.0
7escbsueprx85mqubp6ejsc1,9,3,72,4,2,md,1.0,28.334,1,0.0
7escbsueprx85mqubp6ejsc1,10,3,53,4,1,pd,1.0,26.54,1,0.0
7escbsueprx85mqubp6ejsc1,11,3,74,5,2,md,1.0,27.874,1,0.0
7escbsueprx85mqubp6ejsc1,12,3,14,5,1,pd,0.0,28.821,1,0.0
7escbsueprx85mqubp6ejsc1,13,3,75,6,2,md,1.0,28.94,1,0.0
7escbsueprx85mqubp6ejsc1,14,3,44,6,1,pd,1.0,27.868,1,0.0
7escbsueprx85mqubp6ejsc1,15,3,30,7,1,pd,1.0,27.798,1,0.0
7escbsueprx85mqubp6ejsc1,16,3,78,7,2,md,0.0,28.576,1,0.0
7n3smquj1y0u5ggz6o4feidf,1,3,39,2,2,md,0.0,3.438,1,0.0
7n3smquj1y0u5ggz6o4feidf,2,3,19,2,1,pd,1.0,6.551,1,0.0
7n3smquj1y0u5ggz6o4feidf,3,3,10,3,2,md,1.0,7.656,1,0.0
7n3smquj1y0u5ggz6o4feidf,4,3,61,2,1,pd,1.0,9.532,1,0.0
7n3smquj1y0u5ggz6o4feidf,5,3,31,3,2,md,0.0,12.915,1,0.0
7n3smquj1y0u5ggz6o4feidf,6,3,15,3,1,pd,1.0,7.878,1,0.0
7n3smquj1y0u5ggz6o4feidf,7,3,69,3,1,pd,1.0,7.828,1,0.0
7n3smquj1y0u5ggz6o4feidf,8,3,16,4,2,md,0.0,4.772,1,0.0
7n3smquj1y0u5ggz6o4feidf,9,3,23,4,1,pd,0.0,3.847,1,0.0
7n3smquj1y0u5ggz6o4feidf,10,3,73,4,2,md,0.0,3.314,1,0.0
7n3smquj1y0u5ggz6o4feidf,11,3,67,5,2,md,0.0,2.115,1,0.0
7n3smquj1y0u5ggz6o4feidf,12,3,52,5,1,pd,1.0,8.29,1,0.0
7n3smquj1y0u5ggz6o4feidf,13,3,44,6,1,pd,0.0,3.932,1,0.0
7n3smquj1y0u5ggz6o4feidf,14,3,64,6,2,md,1.0,2.972,1,0.0
7n3smquj1y0u5ggz6o4feidf,15,3,21,7,1,pd,0.0,1.107,1,0.0
7n3smquj1y0u5ggz6o4feidf,16,3,66,8,2,md,0.0,2.553,1,0.0
7o693dgge46kfallr2wivb9t,1,3,6,2,1,pd,1.0,12.97,1,0.0
7o693dgge46kfallr2wivb9t,2,3,28,2,2,md,1.0,19.916,1,0.0
7o693dgge46kfallr2wivb9t,3,3,70,2,2,md,1.0,9.123,1,0.0
7o693dgge46kfallr2wivb9t,4,3,61,2,1,pd,1.0,22.301,1,0.0
7o693dgge46kfallr2wivb9t,5,3,15,3,1,pd,1.0,12.229,1,0.0
7o693dgge46kfallr2wivb9t,6,3,34,3,2,md,,,1,0.0
7o693dgge46kfallr2wivb9t,7,3,77,3,2,md,1.0,13.45,1,0.0
7o693dgge46kfallr2wivb9t,8,3,62,3,1,pd,1.0,8.695,1,0.0
7o693dgge46kfallr2wivb9t,9,3,79,4,2,md,,,1,0.0
7o693dgge46kfallr2wivb9t,10,3,23,4,1,pd,1.0,7.018,1,0.0
7o693dgge46kfallr2wivb9t,11,3,74,5,2,md,1.0,17.923,1,0.0
7o693dgge46kfallr2wivb9t,12,3,80,4,1,pd,1.0,6.083,1,0.0
7o693dgge46kfallr2wivb9t,13,3,44,6,1,pd,1.0,10.062,1,0.0
7o693dgge46kfallr2wivb9t,14,3,55,6,2,md,0.0,13.903,1,0.0
7o693dgge46kfallr2wivb9t,15,3,45,7,2,md,1.0,13.338,1,0.0
7o693dgge46kfallr2wivb9t,16,3,21,7,1,pd,1.0,9.286,1,0.0
7x6ngqb8r29sszek04wz6876,1,3,28,2,1,md,0.0,13.052,0,0.0
7x6ngqb8r29sszek04wz6876,2,3,20,2,2,pd,1.0,7.796,0,0.0
7x6ngqb8r29sszek04wz6876,3,3,70,2,1,md,0.0,10.442,0,0.0
7x6ngqb8r29sszek04wz6876,4,3,50,2,2,pd,0.0,5.216,0,0.0
7x6ngqb8r29sszek04wz6876,5,3,34,3,1,md,0.0,10.138,0,0.0
7x6ngqb8r29sszek04wz6876,6,3,15,3,2,pd,1.0,5.336,0,0.0
7x6ngqb8r29sszek04wz6876,7,3,56,3,2,pd,0.0,9.375,0,0.0
7x6ngqb8r29sszek04wz6876,8,3,16,4,1,md,0.0,9.475,0,0.0
7x6ngqb8r29sszek04wz6876,9,3,40,4,2,pd,0.0,6.385,0,0.0
7x6ngqb8r29sszek04wz6876,10,3,72,4,1,md,0.0,5.204,0,0.0
7x6ngqb8r29sszek04wz6876,11,3,52,5,2,pd,0.0,7.894,0,0.0
7x6ngqb8r29sszek04wz6876,12,3,74,5,1,md,1.0,4.959,0,0.0
7x6ngqb8r29sszek04wz6876,13,3,36,6,2,pd,0.0,9.493,0,0.0
7x6ngqb8r29sszek04wz6876,14,3,64,6,1,md,0.0,5.516,0,0.0
7x6ngqb8r29sszek04wz6876,15,3,24,7,2,pd,0.0,3.594,0,0.0
7x6ngqb8r29sszek04wz6876,16,3,35,8,1,md,0.0,3.443,0,0.0
7xfgwhsicmn01xvjvttcoxae,1,3,6,2,2,pd,0.0,5.525,1,0.0
7xfgwhsicmn01xvjvttcoxae,2,3,28,2,1,md,1.0,26.456,1,0.0
7xfgwhsicmn01xvjvttcoxae,3,3,70,2,1,md,1.0,6.728,1,0.0
7xfgwhsicmn01xvjvttcoxae,4,3,49,2,2,pd,1.0,10.242,1,0.0
7xfgwhsicmn01xvjvttcoxae,5,3,18,3,2,pd,1.0,15.201,1,0.0
7xfgwhsicmn01xvjvttcoxae,6,3,31,3,1,md,1.0,25.362,1,0.0
7xfgwhsicmn01xvjvttcoxae,7,3,62,3,2,pd,1.0,9.769,1,0.0
7xfgwhsicmn01xvjvttcoxae,8,3,16,4,1,md,1.0,26.273,1,0.0
7xfgwhsicmn01xvjvttcoxae,9,3,53,4,2,pd,1.0,10.962,1,0.0
7xfgwhsicmn01xvjvttcoxae,10,3,73,4,1,md,1.0,28.104,1,0.0
7xfgwhsicmn01xvjvttcoxae,11,3,67,5,1,md,1.0,11.138,1,0.0
7xfgwhsicmn01xvjvttcoxae,12,3,80,4,2,pd,1.0,12.667,1,0.0
7xfgwhsicmn01xvjvttcoxae,13,3,46,6,2,pd,1.0,8.187,1,0.0
7xfgwhsicmn01xvjvttcoxae,14,3,55,6,1,md,0.0,23.153,1,0.0
7xfgwhsicmn01xvjvttcoxae,15,3,24,7,2,pd,0.0,6.873,1,0.0
7xfgwhsicmn01xvjvttcoxae,16,3,66,8,1,md,0.0,27.418,1,0.0
7zx5y8m5887yrnnoqc2xfk5a,1,3,20,2,2,pd,0.0,16.57,1,0.0
7zx5y8m5887yrnnoqc2xfk5a,2,3,28,2,1,md,0.0,16.624,1,0.0
7zx5y8m5887yrnnoqc2xfk5a,3,3,50,2,2,pd,0.0,28.57,1,0.0
7zx5y8m5887yrnnoqc2xfk5a,4,3,65,2,1,md,1.0,11.351,1,0.0
7zx5y8m5887yrnnoqc2xfk5a,5,3,27,3,1,md,1.0,15.388,1,0.0
7zx5y8m5887yrnnoqc2xfk5a,6,3,11,3,2,pd,0.0,26.938,1,0.0
7zx5y8m5887yrnnoqc2xfk5a,7,3,12,4,1,md,0.0,12.62,1,0.0
7zx5y8m5887yrnnoqc2xfk5a,8,3,56,3,2,pd,0.0,15.348,1,0.0
7zx5y8m5887yrnnoqc2xfk5a,9,3,53,4,2,pd,0.0,14.34,1,0.0
7zx5y8m5887yrnnoqc2xfk5a,10,3,73,4,1,md,0.0,7.633,1,0.0
7zx5y8m5887yrnnoqc2xfk5a,11,3,67,5,1,md,1.0,8.832,1,0.0
7zx5y8m5887yrnnoqc2xfk5a,12,3,52,5,2,pd,0.0,8.424,1,0.0
7zx5y8m5887yrnnoqc2xfk5a,13,3,54,6,1,md,0.0,4.676,1,0.0
7zx5y8m5887yrnnoqc2xfk5a,14,3,36,6,2,pd,0.0,25.123,1,0.0
7zx5y8m5887yrnnoqc2xfk5a,15,3,30,7,2,pd,1.0,4.797,1,0.0
7zx5y8m5887yrnnoqc2xfk5a,16,3,78,7,1,md,0.0,16.273,1,0.0
81lfve8j4tgfyj20fo1gx0nj,1,3,19,2,1,pd,1.0,7.818,1,0.0
81lfve8j4tgfyj20fo1gx0nj,2,3,28,2,2,md,1.0,16.976,1,0.0
81lfve8j4tgfyj20fo1gx0nj,3,3,61,2,1,pd,1.0,8.514,1,0.0
81lfve8j4tgfyj20fo1gx0nj,4,3,71,2,2,md,1.0,7.428,1,0.0
81lfve8j4tgfyj20fo1gx0nj,5,3,15,3,1,pd,1.0,10.434,1,0.0
81lfve8j4tgfyj20fo1gx0nj,6,3,27,3,2,md,1.0,10.793,1,0.0
81lfve8j4tgfyj20fo1gx0nj,7,3,17,4,2,md,0.0,19.948,1,0.0
81lfve8j4tgfyj20fo1gx0nj,8,3,62,3,1,pd,1.0,9.864,1,0.0
81lfve8j4tgfyj20fo1gx0nj,9,3,73,4,2,md,1.0,26.327,1,0.0
81lfve8j4tgfyj20fo1gx0nj,10,3,40,4,1,pd,1.0,11.058,1,0.0
81lfve8j4tgfyj20fo1gx0nj,11,3,52,5,1,pd,1.0,9.13,1,0.0
81lfve8j4tgfyj20fo1gx0nj,12,3,74,5,2,md,1.0,14.698,1,0.0
81lfve8j4tgfyj20fo1gx0nj,13,3,44,6,1,pd,0.0,18.597,1,0.0
81lfve8j4tgfyj20fo1gx0nj,14,3,75,6,2,md,0.0,21.714,1,0.0
81lfve8j4tgfyj20fo1gx0nj,15,3,35,8,2,md,1.0,17.441,1,0.0
81lfve8j4tgfyj20fo1gx0nj,16,3,29,7,1,pd,1.0,16.67,1,0.0
873jao078mf4v86xccmcv7vj,1,3,25,2,2,md,1.0,10.791,1,0.0
873jao078mf4v86xccmcv7vj,2,3,19,2,1,pd,1.0,7.373,1,0.0
873jao078mf4v86xccmcv7vj,3,3,10,3,2,md,1.0,12.455,1,0.0
873jao078mf4v86xccmcv7vj,4,3,49,2,1,pd,0.0,7.125,1,0.0
873jao078mf4v86xccmcv7vj,5,3,11,3,1,pd,1.0,14.834,1,0.0
873jao078mf4v86xccmcv7vj,6,3,34,3,2,md,1.0,19.102,1,0.0
873jao078mf4v86xccmcv7vj,7,3,12,4,2,md,1.0,29.725,1,0.0
873jao078mf4v86xccmcv7vj,8,3,69,3,1,pd,1.0,11.784,1,0.0
873jao078mf4v86xccmcv7vj,9,3,23,4,1,pd,1.0,7.27,1,0.0
873jao078mf4v86xccmcv7vj,10,3,73,4,2,md,1.0,19.639,1,0.0
873jao078mf4v86xccmcv7vj,11,3,67,5,2,md,1.0,17.715,1,0.0
873jao078mf4v86xccmcv7vj,12,3,14,5,1,pd,1.0,29.764,1,0.0
873jao078mf4v86xccmcv7vj,13,3,46,6,1,pd,1.0,27.302,1,0.0
873jao078mf4v86xccmcv7vj,14,3,55,6,2,md,1.0,13.863,1,0.0
873jao078mf4v86xccmcv7vj,15,3,24,7,1,pd,1.0,23.114,1,0.0
873jao078mf4v86xccmcv7vj,16,3,78,7,2,md,1.0,8.564,1,0.0
9k53ht6h0096rwmabzdwat9q,1,3,6,2,2,pd,1.0,11.858,1,0.0
9k53ht6h0096rwmabzdwat9q,2,3,25,2,1,md,1.0,11.446,1,0.0
9k53ht6h0096rwmabzdwat9q,3,3,70,2,1,md,1.0,19.609,1,0.0
9k53ht6h0096rwmabzdwat9q,4,3,50,2,2,pd,1.0,19.492,1,0.0
9k53ht6h0096rwmabzdwat9q,5,3,31,3,1,md,0.0,24.653,1,0.0
9k53ht6h0096rwmabzdwat9q,6,3,11,3,2,pd,1.0,25.459,1,0.0
9k53ht6h0096rwmabzdwat9q,7,3,62,3,2,pd,1.0,8.88,1,0.0
9k53ht6h0096rwmabzdwat9q,8,3,16,4,1,md,1.0,17.941,1,0.0
9k53ht6h0096rwmabzdwat9q,9,3,73,4,1,md,1.0,25.156,1,0.0
9k53ht6h0096rwmabzdwat9q,10,3,23,4,2,pd,1.0,22.873,1,0.0
9k53ht6h0096rwmabzdwat9q,11,3,74,5,1,md,0.0,25.628,1,0.0
9k53ht6h0096rwmabzdwat9q,12,3,14,5,2,pd,1.0,21.615,1,0.0
9k53ht6h0096rwmabzdwat9q,13,3,55,6,1,md,1.0,15.597,1,0.0
9k53ht6h0096rwmabzdwat9q,14,3,44,6,2,pd,1.0,24.143,1,0.0
9k53ht6h0096rwmabzdwat9q,15,3,24,7,2,pd,1.0,11.807,1,0.0
9k53ht6h0096rwmabzdwat9q,16,3,35,8,1,md,1.0,10.59,1,0.0
9kdpimklx03e225ptr8p71hl,1,3,19,2,1,pd,1.0,16.875,1,0.0
9kdpimklx03e225ptr8p71hl,2,3,47,2,2,md,0.0,28.406,1,0.0
9kdpimklx03e225ptr8p71hl,3,3,70,2,2,md,1.0,14.838,1,0.0
9kdpimklx03e225ptr8p71hl,4,3,50,2,1,pd,1.0,13.464,1,0.0
9kdpimklx03e225ptr8p71hl,5,3,34,3,2,md,0.0,25.64,1,0.0
9kdpimklx03e225ptr8p71hl,6,3,11,3,1,pd,1.0,16.73,1,0.0
9kdpimklx03e225ptr8p71hl,7,3,56,3,1,pd,1.0,14.862,1,0.0
9kdpimklx03e225ptr8p71hl,8,3,77,3,2,md,1.0,16.998,1,0.0
9kdpimklx03e225ptr8p71hl,9,3,60,4,2,md,,,1,0.0
9kdpimklx03e225ptr8p71hl,10,3,40,4,1,pd,0.0,23.836,1,0.0
9kdpimklx03e225ptr8p71hl,11,3,67,5,2,md,1.0,17.821,1,0.0
9kdpimklx03e225ptr8p71hl,12,3,14,5,1,pd,1.0,23.961,1,0.0
9kdpimklx03e225ptr8p71hl,13,3,46,6,1,pd,1.0,26.97,1,0.0
9kdpimklx03e225ptr8p71hl,14,3,54,6,2,md,1.0,16.233,1,0.0
9kdpimklx03e225ptr8p71hl,15,3,29,7,1,pd,1.0,13.326,1,0.0
9kdpimklx03e225ptr8p71hl,16,3,35,8,2,md,1.0,29.564,1,0.0
9s88tid5d5r16f6vib0lf7ts,1,3,19,2,2,pd,1.0,6.256,1,0.0
9s88tid5d5r16f6vib0lf7ts,2,3,28,2,1,md,0.0,28.029,1,0.0
9s88tid5d5r16f6vib0lf7ts,3,3,61,2,2,pd,1.0,7.834,1,0.0
9s88tid5d5r16f6vib0lf7ts,4,3,71,2,1,md,1.0,4.937,1,0.0
9s88tid5d5r16f6vib0lf7ts,5,3,37,3,1,md,1.0,15.583,1,0.0
9s88tid5d5r16f6vib0lf7ts,6,3,11,3,2,pd,0.0,17.619,1,0.0
9s88tid5d5r16f6vib0lf7ts,7,3,77,3,1,md,0.0,19.883,1,0.0
9s88tid5d5r16f6vib0lf7ts,8,3,62,3,2,pd,1.0,14.935,1,0.0
9s88tid5d5r16f6vib0lf7ts,9,3,60,4,1,md,0.0,22.448,1,0.0
9s88tid5d5r16f6vib0lf7ts,10,3,40,4,2,pd,0.0,12.838,1,0.0
9s88tid5d5r16f6vib0lf7ts,11,3,26,5,2,pd,0.0,9.144,1,0.0
9s88tid5d5r16f6vib0lf7ts,12,3,67,5,1,md,1.0,18.738,1,0.0
9s88tid5d5r16f6vib0lf7ts,13,3,76,5,2,pd,1.0,7.413,1,0.0
9s88tid5d5r16f6vib0lf7ts,14,3,55,6,1,md,0.0,9.546,1,0.0
9s88tid5d5r16f6vib0lf7ts,15,3,35,8,1,md,0.0,11.003,1,0.0
9s88tid5d5r16f6vib0lf7ts,16,3,24,7,2,pd,1.0,6.011,1,0.0
9xa74pq6zv5iuhqmqrrbbohr,1,3,19,2,2,pd,1.0,10.859,1,0.0
9xa74pq6zv5iuhqmqrrbbohr,2,3,25,2,1,md,0.0,14.683,1,0.0
9xa74pq6zv5iuhqmqrrbbohr,3,3,49,2,2,pd,1.0,18.237,1,0.0
9xa74pq6zv5iuhqmqrrbbohr,4,3,65,2,1,md,1.0,10.205,1,0.0
9xa74pq6zv5iuhqmqrrbbohr,5,3,34,3,1,md,0.0,27.044,1,0.0
9xa74pq6zv5iuhqmqrrbbohr,6,3,15,3,2,pd,1.0,13.477,1,0.0
9xa74pq6zv5iuhqmqrrbbohr,7,3,69,3,2,pd,1.0,9.035,1,0.0
9xa74pq6zv5iuhqmqrrbbohr,8,3,77,3,1,md,1.0,10.069,1,0.0
9xa74pq6zv5iuhqmqrrbbohr,9,3,73,4,1,md,1.0,24.854,1,0.0
9xa74pq6zv5iuhqmqrrbbohr,10,3,42,4,2,pd,1.0,26.343,1,0.0
9xa74pq6zv5iuhqmqrrbbohr,11,3,26,5,2,pd,0.0,17.571,1,0.0
9xa74pq6zv5iuhqmqrrbbohr,12,3,59,5,1,md,0.0,21.082,1,0.0
9xa74pq6zv5iuhqmqrrbbohr,13,3,55,6,1,md,1.0,19.955,1,0.0
9xa74pq6zv5iuhqmqrrbbohr,14,3,76,5,2,pd,1.0,24.721,1,0.0
9xa74pq6zv5iuhqmqrrbbohr,15,3,21,7,2,pd,1.0,19.021,1,0.0
9xa74pq6zv5iuhqmqrrbbohr,16,3,35,8,1,md,1.0,17.206,1,0.0
abvx0zr98mor3p6u1ephdtu2,1,3,20,2,2,pd,1.0,17.13,1,0.0
abvx0zr98mor3p6u1ephdtu2,2,3,39,2,1,md,1.0,29.106,1,0.0
abvx0zr98mor3p6u1ephdtu2,3,3,71,2,1,md,1.0,16.914,1,0.0
abvx0zr98mor3p6u1ephdtu2,4,3,50,2,2,pd,1.0,10.322,1,0.0
abvx0zr98mor3p6u1ephdtu2,5,3,18,3,2,pd,1.0,12.083,1,0.0
abvx0zr98mor3p6u1ephdtu2,6,3,37,3,1,md,1.0,20.937,1,0.0
abvx0zr98mor3p6u1ephdtu2,7,3,58,3,2,pd,1.0,13.484,1,0.0
abvx0zr98mor3p6u1ephdtu2,8,3,77,3,1,md,0.0,28.846,1,0.0
abvx0zr98mor3p6u1ephdtu2,9,3,40,4,2,pd,0.0,18.043,1,0.0
abvx0zr98mor3p6u1ephdtu2,10,3,72,4,1,md,1.0,22.947,1,0.0
abvx0zr98mor3p6u1ephdtu2,11,3,63,5,1,md,1.0,25.825,1,0.0
abvx0zr98mor3p6u1ephdtu2,12,3,52,5,2,pd,1.0,15.354,1,0.0
abvx0zr98mor3p6u1ephdtu2,13,3,44,6,2,pd,1.0,8.259,1,0.0
abvx0zr98mor3p6u1ephdtu2,14,3,54,6,1,md,1.0,17.603,1,0.0
abvx0zr98mor3p6u1ephdtu2,15,3,35,8,1,md,0.0,17.928,1,0.0
abvx0zr98mor3p6u1ephdtu2,16,3,24,7,2,pd,1.0,9.933,1,0.0
acqwehlaccazo1mzzwbp5nsp,1,3,28,2,1,md,1.0,28.561,1,0.0
acqwehlaccazo1mzzwbp5nsp,2,3,20,2,2,pd,1.0,11.241,1,0.0
acqwehlaccazo1mzzwbp5nsp,3,3,10,3,1,md,1.0,14.285,1,0.0
acqwehlaccazo1mzzwbp5nsp,4,3,50,2,2,pd,1.0,14.874,1,0.0
acqwehlaccazo1mzzwbp5nsp,5,3,34,3,1,md,1.0,24.314,1,0.0
acqwehlaccazo1mzzwbp5nsp,6,3,11,3,2,pd,1.0,15.576,1,0.0
acqwehlaccazo1mzzwbp5nsp,7,3,56,3,2,pd,1.0,24.623,1,0.0
acqwehlaccazo1mzzwbp5nsp,8,3,16,4,1,md,0.0,21.751,1,0.0
acqwehlaccazo1mzzwbp5nsp,9,3,79,4,1,md,0.0,27.988,1,0.0
acqwehlaccazo1mzzwbp5nsp,10,3,23,4,2,pd,1.0,7.318,1,0.0
acqwehlaccazo1mzzwbp5nsp,11,3,52,5,2,pd,0.0,16.613,1,0.0
acqwehlaccazo1mzzwbp5nsp,12,3,74,5,1,md,1.0,24.065,1,0.0
acqwehlaccazo1mzzwbp5nsp,13,3,75,6,1,md,0.0,23.266,1,0.0
acqwehlaccazo1mzzwbp5nsp,14,3,36,6,2,pd,1.0,16.995,1,0.0
acqwehlaccazo1mzzwbp5nsp,15,3,78,7,1,md,0.0,28.079,1,0.0
acqwehlaccazo1mzzwbp5nsp,16,3,30,7,2,pd,1.0,11.418,1,0.0
amuv7s75gam5t23pab21eh4h,1,3,28,2,2,md,0.0,6.905,1,0.0
amuv7s75gam5t23pab21eh4h,2,3,20,2,1,pd,1.0,8.826,1,0.0
amuv7s75gam5t23pab21eh4h,3,3,65,2,2,md,0.0,10.137,1,0.0
amuv7s75gam5t23pab21eh4h,4,3,50,2,1,pd,1.0,16.272,1,0.0
amuv7s75gam5t23pab21eh4h,5,3,31,3,2,md,0.0,16.007,1,0.0
amuv7s75gam5t23pab21eh4h,6,3,18,3,1,pd,1.0,12.281,1,0.0
amuv7s75gam5t23pab21eh4h,7,3,69,3,1,pd,1.0,17.944,1,0.0
amuv7s75gam5t23pab21eh4h,8,3,12,4,2,md,0.0,13.399,1,0.0
amuv7s75gam5t23pab21eh4h,9,3,40,4,1,pd,1.0,13.896,1,0.0
amuv7s75gam5t23pab21eh4h,10,3,60,4,2,md,1.0,10.2,1,0.0
amuv7s75gam5t23pab21eh4h,11,3,63,5,2,md,0.0,12.874,1,0.0
amuv7s75gam5t23pab21eh4h,12,3,26,5,1,pd,0.0,16.815,1,0.0
amuv7s75gam5t23pab21eh4h,13,3,75,6,2,md,0.0,12.058,1,0.0
amuv7s75gam5t23pab21eh4h,14,3,76,5,1,pd,0.0,7.057,1,0.0
amuv7s75gam5t23pab21eh4h,15,3,30,7,1,pd,1.0,4.253,1,0.0
amuv7s75gam5t23pab21eh4h,16,3,45,7,2,md,0.0,10.804,1,0.0
atbnkyroienosrs34i83sn65,1,3,22,2,2,pd,0.0,3.385,1,0.0
atbnkyroienosrs34i83sn65,2,3,39,2,1,md,0.0,14.593,1,0.0
atbnkyroienosrs34i83sn65,3,3,50,2,2,pd,1.0,8.292,1,0.0
atbnkyroienosrs34i83sn65,4,3,10,3,1,md,1.0,19.545,1,0.0
atbnkyroienosrs34i83sn65,5,3,34,3,1,md,0.0,13.29,1,0.0
atbnkyroienosrs34i83sn65,6,3,18,3,2,pd,0.0,27.522,1,0.0
atbnkyroienosrs34i83sn65,7,3,69,3,2,pd,1.0,14.553,1,0.0
atbnkyroienosrs34i83sn65,8,3,17,4,1,md,0.0,28.374,1,0.0
atbnkyroienosrs34i83sn65,9,3,53,4,2,pd,1.0,28.354,1,0.0
atbnkyroienosrs34i83sn65,10,3,72,4,1,md,0.0,26.41,1,0.0
atbnkyroienosrs34i83sn65,11,3,52,5,2,pd,1.0,14.29,1,0.0
atbnkyroienosrs34i83sn65,12,3,67,5,1,md,1.0,7.887,1,0.0
atbnkyroienosrs34i83sn65,13,3,44,6,2,pd,1.0,16.736,1,0.0
atbnkyroienosrs34i83sn65,14,3,54,6,1,md,0.0,13.353,1,0.0
atbnkyroienosrs34i83sn65,15,3,35,8,1,md,0.0,10.419,1,0.0
atbnkyroienosrs34i83sn65,16,3,29,7,2,pd,1.0,13.514,1,0.0
aybj3bf5m8erk4pbq7lzgqqi,1,3,39,2,1,md,1.0,17.749,1,0.0
aybj3bf5m8erk4pbq7lzgqqi,2,3,20,2,2,pd,1.0,15.794,1,0.0
aybj3bf5m8erk4pbq7lzgqqi,3,3,70,2,1,md,1.0,4.816,1,0.0
aybj3bf5m8erk4pbq7lzgqqi,4,3,51,2,2,pd,0.0,7.465,1,0.0
aybj3bf5m8erk4pbq7lzgqqi,5,3,34,3,1,md,0.0,5.833,1,0.0
aybj3bf5m8erk4pbq7lzgqqi,6,3,18,3,2,pd,0.0,9.738,1,0.0
aybj3bf5m8erk4pbq7lzgqqi,7,3,62,3,2,pd,1.0,9.125,1,0.0
aybj3bf5m8erk4pbq7lzgqqi,8,3,12,4,1,md,0.0,6.843,1,0.0
aybj3bf5m8erk4pbq7lzgqqi,9,3,42,4,2,pd,0.0,10.16,1,0.0
aybj3bf5m8erk4pbq7lzgqqi,10,3,60,4,1,md,0.0,3.499,1,0.0
aybj3bf5m8erk4pbq7lzgqqi,11,3,63,5,1,md,0.0,5.307,1,0.0
aybj3bf5m8erk4pbq7lzgqqi,12,3,52,5,2,pd,0.0,2.005,1,0.0
aybj3bf5m8erk4pbq7lzgqqi,13,3,36,6,2,pd,0.0,4.008,1,0.0
aybj3bf5m8erk4pbq7lzgqqi,14,3,64,6,1,md,0.0,3.836,1,0.0
aybj3bf5m8erk4pbq7lzgqqi,15,3,78,7,1,md,0.0,2.18,1,0.0
aybj3bf5m8erk4pbq7lzgqqi,16,3,30,7,2,pd,0.0,2.422,1,0.0
b02ynma46gkvi2oekullmd05,1,3,20,2,1,pd,1.0,10.864,1,0.0
b02ynma46gkvi2oekullmd05,2,3,28,2,2,md,1.0,14.46,1,0.0
b02ynma46gkvi2oekullmd05,3,3,50,2,1,pd,1.0,10.995,1,0.0
b02ynma46gkvi2oekullmd05,4,3,65,2,2,md,1.0,15.213,1,0.0
b02ynma46gkvi2oekullmd05,5,3,34,3,2,md,1.0,14.15,1,0.0
b02ynma46gkvi2oekullmd05,6,3,13,3,1,pd,1.0,25.698,1,0.0
b02ynma46gkvi2oekullmd05,7,3,69,3,1,pd,1.0,10.33,1,0.0
b02ynma46gkvi2oekullmd05,8,3,16,4,2,md,1.0,26.37,1,0.0
b02ynma46gkvi2oekullmd05,9,3,42,4,1,pd,1.0,25.571,1,0.0
b02ynma46gkvi2oekullmd05,10,3,72,4,2,md,0.0,18.876,1,0.0
b02ynma46gkvi2oekullmd05,11,3,14,5,1,pd,1.0,22.612,1,0.0
b02ynma46gkvi2oekullmd05,12,3,59,5,2,md,1.0,24.898,1,0.0
b02ynma46gkvi2oekullmd05,13,3,64,6,2,md,0.0,27.163,1,0.0
b02ynma46gkvi2oekullmd05,14,3,76,5,1,pd,1.0,12.902,1,0.0
b02ynma46gkvi2oekullmd05,15,3,35,8,2,md,1.0,27.569,1,0.0
b02ynma46gkvi2oekullmd05,16,3,24,7,1,pd,0.0,27.083,1,0.0
bb80jdftgq7kmwo1trya5270,1,3,19,2,1,pd,1.0,12.792,1,0.0
bb80jdftgq7kmwo1trya5270,2,3,47,2,2,md,0.0,13.233,1,0.0
bb80jdftgq7kmwo1trya5270,3,3,49,2,1,pd,1.0,10.114,1,0.0
bb80jdftgq7kmwo1trya5270,4,3,71,2,2,md,1.0,9.257,1,0.0
bb80jdftgq7kmwo1trya5270,5,3,11,3,1,pd,0.0,23.163,1,0.0
bb80jdftgq7kmwo1trya5270,6,3,31,3,2,md,1.0,14.696,1,0.0
bb80jdftgq7kmwo1trya5270,7,3,17,4,2,md,1.0,22.995,1,0.0
bb80jdftgq7kmwo1trya5270,8,3,69,3,1,pd,1.0,7.163,1,0.0
bb80jdftgq7kmwo1trya5270,9,3,23,4,1,pd,1.0,6.571,1,0.0
bb80jdftgq7kmwo1trya5270,10,3,73,4,2,md,0.0,29.675,1,0.0
bb80jdftgq7kmwo1trya5270,11,3,59,5,2,md,0.0,23.056,1,0.0
bb80jdftgq7kmwo1trya5270,12,3,26,5,1,pd,0.0,15.73,1,0.0
bb80jdftgq7kmwo1trya5270,13,3,75,6,2,md,0.0,17.443,1,0.0
bb80jdftgq7kmwo1trya5270,14,3,44,6,1,pd,0.0,29.276,1,0.0
bb80jdftgq7kmwo1trya5270,15,3,21,7,1,pd,1.0,11.023,1,0.0
bb80jdftgq7kmwo1trya5270,16,3,45,7,2,md,1.0,9.148,1,0.0
bff9yq6yewxz00mevh91oumy,1,3,20,2,1,pd,1.0,25.131,1,0.0
bff9yq6yewxz00mevh91oumy,2,3,28,2,2,md,1.0,28.776,1,0.0
bff9yq6yewxz00mevh91oumy,3,3,61,2,1,pd,1.0,16.354,1,0.0
bff9yq6yewxz00mevh91oumy,4,3,71,2,2,md,1.0,12.906,1,0.0
bff9yq6yewxz00mevh91oumy,5,3,37,3,2,md,1.0,27.699,1,0.0
bff9yq6yewxz00mevh91oumy,6,3,13,3,1,pd,0.0,20.308,1,0.0
bff9yq6yewxz00mevh91oumy,7,3,12,4,2,md,0.0,27.627,1,0.0
bff9yq6yewxz00mevh91oumy,8,3,56,3,1,pd,1.0,19.787,1,0.0
bff9yq6yewxz00mevh91oumy,9,3,60,4,2,md,0.0,26.73,1,0.0
bff9yq6yewxz00mevh91oumy,10,3,53,4,1,pd,0.0,20.866,1,0.0
bff9yq6yewxz00mevh91oumy,11,3,52,5,1,pd,0.0,25.226,1,0.0
bff9yq6yewxz00mevh91oumy,12,3,63,5,2,md,1.0,15.346,1,0.0
bff9yq6yewxz00mevh91oumy,13,3,55,6,2,md,0.0,26.075,1,0.0
bff9yq6yewxz00mevh91oumy,14,3,36,6,1,pd,1.0,17.946,1,0.0
bff9yq6yewxz00mevh91oumy,15,3,35,8,2,md,1.0,10.307,1,0.0
bff9yq6yewxz00mevh91oumy,16,3,30,7,1,pd,1.0,15.369,1,0.0
bt6bmnj5ivm0ethe5egicg86,1,3,22,2,1,pd,1.0,3.212,1,0.0
bt6bmnj5ivm0ethe5egicg86,2,3,28,2,2,md,0.0,4.419,1,0.0
bt6bmnj5ivm0ethe5egicg86,3,3,49,2,1,pd,1.0,7.584,1,0.0
bt6bmnj5ivm0ethe5egicg86,4,3,65,2,2,md,1.0,7.567,1,0.0
bt6bmnj5ivm0ethe5egicg86,5,3,31,3,2,md,0.0,5.888,1,0.0
bt6bmnj5ivm0ethe5egicg86,6,3,11,3,1,pd,0.0,10.678,1,0.0
bt6bmnj5ivm0ethe5egicg86,7,3,56,3,1,pd,0.0,8.956,1,0.0
bt6bmnj5ivm0ethe5egicg86,8,3,12,4,2,md,0.0,14.924,1,0.0
bt6bmnj5ivm0ethe5egicg86,9,3,42,4,1,pd,0.0,15.553,1,0.0
bt6bmnj5ivm0ethe5egicg86,10,3,60,4,2,md,1.0,20.788,1,0.0
bt6bmnj5ivm0ethe5egicg86,11,3,74,5,2,md,1.0,13.449,1,0.0
bt6bmnj5ivm0ethe5egicg86,12,3,80,4,1,pd,1.0,14.012,1,0.0
bt6bmnj5ivm0ethe5egicg86,13,3,75,6,2,md,1.0,19.291,1,0.0
bt6bmnj5ivm0ethe5egicg86,14,3,76,5,1,pd,1.0,7.575,1,0.0
bt6bmnj5ivm0ethe5egicg86,15,3,66,8,2,md,0.0,17.758,1,0.0
bt6bmnj5ivm0ethe5egicg86,16,3,21,7,1,pd,1.0,11.578,1,0.0
c0z9cvpak4g45tssgg7e7f6b,1,3,20,2,2,pd,1.0,11.715,1,0.0
c0z9cvpak4g45tssgg7e7f6b,2,3,47,2,1,md,0.0,23.51,1,0.0
c0z9cvpak4g45tssgg7e7f6b,3,3,49,2,2,pd,1.0,16.279,1,0.0
c0z9cvpak4g45tssgg7e7f6b,4,3,70,2,1,md,1.0,10.664,1,0.0
c0z9cvpak4g45tssgg7e7f6b,5,3,37,3,1,md,0.0,23.04,1,0.0
c0z9cvpak4g45tssgg7e7f6b,6,3,18,3,2,pd,1.0,20.673,1,0.0
c0z9cvpak4g45tssgg7e7f6b,7,3,16,4,1,md,1.0,22.397,1,0.0
c0z9cvpak4g45tssgg7e7f6b,8,3,58,3,2,pd,1.0,15.487,1,0.0
c0z9cvpak4g45tssgg7e7f6b,9,3,79,4,1,md,,,1,0.0
c0z9cvpak4g45tssgg7e7f6b,10,3,40,4,2,pd,0.0,17.462,1,0.0
c0z9cvpak4g45tssgg7e7f6b,11,3,59,5,1,md,0.0,18.036,1,0.0
c0z9cvpak4g45tssgg7e7f6b,12,3,14,5,2,pd,1.0,12.034,1,0.0
c0z9cvpak4g45tssgg7e7f6b,13,3,75,6,1,md,0.0,16.033,1,0.0
c0z9cvpak4g45tssgg7e7f6b,14,3,76,5,2,pd,1.0,10.362,1,0.0
c0z9cvpak4g45tssgg7e7f6b,15,3,24,7,2,pd,1.0,16.472,1,0.0
c0z9cvpak4g45tssgg7e7f6b,16,3,45,7,1,md,1.0,11.709,1,0.0
c1wpouj7vjiq0ry1jkuh00fp,1,3,22,2,2,pd,1.0,6.129,1,0.0
c1wpouj7vjiq0ry1jkuh00fp,2,3,47,2,1,md,1.0,9.39,1,0.0
c1wpouj7vjiq0ry1jkuh00fp,3,3,10,3,1,md,1.0,17.628,1,0.0
c1wpouj7vjiq0ry1jkuh00fp,4,3,50,2,2,pd,1.0,20.138,1,0.0
c1wpouj7vjiq0ry1jkuh00fp,5,3,37,3,1,md,1.0,28.631,1,0.0
c1wpouj7vjiq0ry1jkuh00fp,6,3,11,3,2,pd,1.0,17.151,1,0.0
c1wpouj7vjiq0ry1jkuh00fp,7,3,62,3,2,pd,1.0,10.589,1,0.0
c1wpouj7vjiq0ry1jkuh00fp,8,3,77,3,1,md,1.0,13.832,1,0.0
c1wpouj7vjiq0ry1jkuh00fp,9,3,53,4,2,pd,0.0,21.739,1,0.0
c1wpouj7vjiq0ry1jkuh00fp,10,3,60,4,1,md,0.0,24.54,1,0.0
c1wpouj7vjiq0ry1jkuh00fp,11,3,74,5,1,md,0.0,29.318,1,0.0
c1wpouj7vjiq0ry1jkuh00fp,12,3,80,4,2,pd,0.0,9.308,1,0.0
c1wpouj7vjiq0ry1jkuh00fp,13,3,64,6,1,md,1.0,28.903,1,0.0
c1wpouj7vjiq0ry1jkuh00fp,14,3,76,5,2,pd,1.0,9.057,1,0.0
c1wpouj7vjiq0ry1jkuh00fp,15,3,30,7,2,pd,1.0,16.146,1,0.0
c1wpouj7vjiq0ry1jkuh00fp,16,3,35,8,1,md,0.0,12.021,1,0.0
c4m0py2ssiawmnlcbb1mjmm0,1,3,19,2,1,pd,1.0,8.954,1,0.0
c4m0py2ssiawmnlcbb1mjmm0,2,3,25,2,2,md,1.0,8.964,1,0.0
c4m0py2ssiawmnlcbb1mjmm0,3,3,71,2,2,md,1.0,6.864,1,0.0
c4m0py2ssiawmnlcbb1mjmm0,4,3,51,2,1,pd,1.0,13.306,1,0.0
c4m0py2ssiawmnlcbb1mjmm0,5,3,15,3,1,pd,1.0,29.104,1,0.0
c4m0py2ssiawmnlcbb1mjmm0,6,3,37,3,2,md,1.0,28.674,1,0.0
c4m0py2ssiawmnlcbb1mjmm0,7,3,12,4,2,md,1.0,14.529,1,0.0
c4m0py2ssiawmnlcbb1mjmm0,8,3,62,3,1,pd,1.0,9.424,1,0.0
c4m0py2ssiawmnlcbb1mjmm0,9,3,23,4,1,pd,1.0,7.637,1,0.0
c4m0py2ssiawmnlcbb1mjmm0,10,3,60,4,2,md,0.0,22.202,1,0.0
c4m0py2ssiawmnlcbb1mjmm0,11,3,63,5,2,md,0.0,17.864,1,0.0
c4m0py2ssiawmnlcbb1mjmm0,12,3,52,5,1,pd,0.0,24.583,1,0.0
c4m0py2ssiawmnlcbb1mjmm0,13,3,64,6,2,md,0.0,28.329,1,0.0
c4m0py2ssiawmnlcbb1mjmm0,14,3,46,6,1,pd,0.0,28.818,1,3.0
c4m0py2ssiawmnlcbb1mjmm0,15,3,21,7,1,pd,1.0,27.426,1,10.0
c4m0py2ssiawmnlcbb1mjmm0,16,3,45,7,2,md,0.0,27.669,1,4.0
c786aq5xp32tkx5zyug00sw6,1,3,20,2,1,pd,1.0,10.556,1,0.0
c786aq5xp32tkx5zyug00sw6,2,3,47,2,2,md,1.0,24.677,1,0.0
c786aq5xp32tkx5zyug00sw6,3,3,61,2,1,pd,1.0,13.256,1,0.0
c786aq5xp32tkx5zyug00sw6,4,3,10,3,2,md,1.0,11.214,1,0.0
c786aq5xp32tkx5zyug00sw6,5,3,27,3,2,md,1.0,26.253,1,0.0
c786aq5xp32tkx5zyug00sw6,6,3,18,3,1,pd,1.0,11.53,1,0.0
c786aq5xp32tkx5zyug00sw6,7,3,12,4,2,md,0.0,20.708,1,0.0
c786aq5xp32tkx5zyug00sw6,8,3,56,3,1,pd,1.0,14.964,1,0.0
c786aq5xp32tkx5zyug00sw6,9,3,72,4,2,md,1.0,18.793,1,0.0
c786aq5xp32tkx5zyug00sw6,10,3,53,4,1,pd,1.0,17.025,1,0.0
c786aq5xp32tkx5zyug00sw6,11,3,63,5,2,md,1.0,15.186,1,0.0
c786aq5xp32tkx5zyug00sw6,12,3,14,5,1,pd,1.0,10.458,1,0.0
c786aq5xp32tkx5zyug00sw6,13,3,76,5,1,pd,1.0,15.209,1,0.0
c786aq5xp32tkx5zyug00sw6,14,3,75,6,2,md,1.0,17.861,1,0.0
c786aq5xp32tkx5zyug00sw6,15,3,45,7,2,md,1.0,17.525,1,0.0
c786aq5xp32tkx5zyug00sw6,16,3,29,7,1,pd,1.0,8.534,1,0.0
d1iqojx3bun3xqewwawraga3,1,3,22,2,1,pd,0.0,8.62,1,0.0
d1iqojx3bun3xqewwawraga3,2,3,28,2,2,md,1.0,12.932,1,0.0
d1iqojx3bun3xqewwawraga3,3,3,51,2,1,pd,1.0,14.826,1,0.0
d1iqojx3bun3xqewwawraga3,4,3,65,2,2,md,1.0,7.067,1,0.0
d1iqojx3bun3xqewwawraga3,5,3,31,3,2,md,1.0,23.078,1,0.0
d1iqojx3bun3xqewwawraga3,6,3,15,3,1,pd,1.0,9.939,1,0.0
d1iqojx3bun3xqewwawraga3,7,3,12,4,2,md,0.0,5.778,1,0.0
d1iqojx3bun3xqewwawraga3,8,3,62,3,1,pd,1.0,7.76,1,0.0
d1iqojx3bun3xqewwawraga3,9,3,40,4,1,pd,1.0,12.127,1,0.0
d1iqojx3bun3xqewwawraga3,10,3,73,4,2,md,1.0,8.87,1,0.0
d1iqojx3bun3xqewwawraga3,11,3,59,5,2,md,0.0,6.41,1,0.0
d1iqojx3bun3xqewwawraga3,12,3,14,5,1,pd,1.0,12.859,1,0.0
d1iqojx3bun3xqewwawraga3,13,3,76,5,1,pd,1.0,13.098,1,0.0
d1iqojx3bun3xqewwawraga3,14,3,75,6,2,md,1.0,10.219,1,0.0
d1iqojx3bun3xqewwawraga3,15,3,78,7,2,md,0.0,13.517,1,0.0
d1iqojx3bun3xqewwawraga3,16,3,30,7,1,pd,1.0,7.536,1,0.0
dh38d9j34jm2cdl5d6ydkkh3,1,3,39,2,1,md,1.0,13.653,1,0.0
dh38d9j34jm2cdl5d6ydkkh3,2,3,6,2,2,pd,1.0,12.554,1,0.0
dh38d9j34jm2cdl5d6ydkkh3,3,3,51,2,2,pd,1.0,13.906,1,0.0
dh38d9j34jm2cdl5d6ydkkh3,4,3,65,2,1,md,1.0,14.104,1,0.0
dh38d9j34jm2cdl5d6ydkkh3,5,3,18,3,2,pd,0.0,14.62,1,0.0
dh38d9j34jm2cdl5d6ydkkh3,6,3,27,3,1,md,1.0,18.491,1,0.0
dh38d9j34jm2cdl5d6ydkkh3,7,3,58,3,2,pd,1.0,10.46,1,0.0
dh38d9j34jm2cdl5d6ydkkh3,8,3,12,4,1,md,0.0,20.105,1,0.0
dh38d9j34jm2cdl5d6ydkkh3,9,3,40,4,2,pd,1.0,18.054,1,0.0
dh38d9j34jm2cdl5d6ydkkh3,10,3,60,4,1,md,1.0,24.054,1,0.0
dh38d9j34jm2cdl5d6ydkkh3,11,3,26,5,2,pd,0.0,25.539,1,0.0
dh38d9j34jm2cdl5d6ydkkh3,12,3,74,5,1,md,0.0,11.009,1,0.0
dh38d9j34jm2cdl5d6ydkkh3,13,3,44,6,2,pd,1.0,19.451,1,0.0
dh38d9j34jm2cdl5d6ydkkh3,14,3,55,6,1,md,0.0,10.306,1,0.0
dh38d9j34jm2cdl5d6ydkkh3,15,3,35,8,1,md,0.0,18.492,1,0.0
dh38d9j34jm2cdl5d6ydkkh3,16,3,29,7,2,pd,1.0,10.072,1,0.0
dkf95cnxz66jj22l7hqilqit,1,3,20,2,2,pd,0.0,4.491,1,0.0
dkf95cnxz66jj22l7hqilqit,2,3,39,2,1,md,0.0,14.258,1,0.0
dkf95cnxz66jj22l7hqilqit,3,3,71,2,1,md,1.0,7.42,1,0.0
dkf95cnxz66jj22l7hqilqit,4,3,61,2,2,pd,0.0,19.052,1,0.0
dkf95cnxz66jj22l7hqilqit,5,3,37,3,1,md,0.0,17.139,1,0.0
dkf95cnxz66jj22l7hqilqit,6,3,13,3,2,pd,0.0,14.66,1,0.0
dkf95cnxz66jj22l7hqilqit,7,3,56,3,2,pd,1.0,11.419,1,0.0
dkf95cnxz66jj22l7hqilqit,8,3,16,4,1,md,0.0,13.305,1,0.0
dkf95cnxz66jj22l7hqilqit,9,3,23,4,2,pd,1.0,10.996,1,0.0
dkf95cnxz66jj22l7hqilqit,10,3,72,4,1,md,0.0,14.923,1,0.0
dkf95cnxz66jj22l7hqilqit,11,3,59,5,1,md,1.0,14.124,1,0.0
dkf95cnxz66jj22l7hqilqit,12,3,52,5,2,pd,1.0,13.507,1,0.0
dkf95cnxz66jj22l7hqilqit,13,3,55,6,1,md,0.0,26.244,1,0.0
dkf95cnxz66jj22l7hqilqit,14,3,44,6,2,pd,0.0,19.204,1,0.0
dkf95cnxz66jj22l7hqilqit,15,3,45,7,1,md,1.0,12.148,1,0.0
dkf95cnxz66jj22l7hqilqit,16,3,24,7,2,pd,1.0,20.227,1,0.0
e6skreil0qv5xi9lz3jdbuzn,1,3,22,2,2,pd,1.0,19.742,1,0.0
e6skreil0qv5xi9lz3jdbuzn,2,3,25,2,1,md,1.0,18.113,1,0.0
e6skreil0qv5xi9lz3jdbuzn,3,3,71,2,1,md,1.0,13.831,1,0.0
e6skreil0qv5xi9lz3jdbuzn,4,3,49,2,2,pd,1.0,14.586,1,0.0
e6skreil0qv5xi9lz3jdbuzn,5,3,37,3,1,md,0.0,27.581,1,0.0
e6skreil0qv5xi9lz3jdbuzn,6,3,18,3,2,pd,1.0,22.569,1,0.0
e6skreil0qv5xi9lz3jdbuzn,7,3,58,3,2,pd,1.0,15.215,1,0.0
e6skreil0qv5xi9lz3jdbuzn,8,3,12,4,1,md,1.0,28.85,1,0.0
e6skreil0qv5xi9lz3jdbuzn,9,3,60,4,1,md,1.0,2.936,1,0.0
e6skreil0qv5xi9lz3jdbuzn,10,3,40,4,2,pd,0.0,19.324,1,0.0
e6skreil0qv5xi9lz3jdbuzn,11,3,26,5,2,pd,0.0,20.438,1,0.0
e6skreil0qv5xi9lz3jdbuzn,12,3,59,5,1,md,0.0,16.307,1,0.0
e6skreil0qv5xi9lz3jdbuzn,13,3,76,5,2,pd,0.0,11.937,1,0.0
e6skreil0qv5xi9lz3jdbuzn,14,3,55,6,1,md,0.0,13.776,1,0.0
e6skreil0qv5xi9lz3jdbuzn,15,3,45,7,1,md,1.0,27.09,1,0.0
e6skreil0qv5xi9lz3jdbuzn,16,3,21,7,2,pd,1.0,10.776,1,0.0
ebywst0owenzq5k92fv1qts1,1,3,25,2,2,md,1.0,6.55,1,0.0
ebywst0owenzq5k92fv1qts1,2,3,6,2,1,pd,1.0,6.828,1,0.0
ebywst0owenzq5k92fv1qts1,3,3,10,3,2,md,1.0,13.147,1,0.0
ebywst0owenzq5k92fv1qts1,4,3,51,2,1,pd,1.0,9.538,1,0.0
ebywst0owenzq5k92fv1qts1,5,3,27,3,2,md,0.0,9.596,1,0.0
ebywst0owenzq5k92fv1qts1,6,3,11,3,1,pd,1.0,10.868,1,0.0
ebywst0owenzq5k92fv1qts1,7,3,16,4,2,md,1.0,9.692,1,0.0
ebywst0owenzq5k92fv1qts1,8,3,58,3,1,pd,1.0,19.439,1,0.0
ebywst0owenzq5k92fv1qts1,9,3,60,4,2,md,0.0,16.532,1,0.0
ebywst0owenzq5k92fv1qts1,10,3,40,4,1,pd,1.0,11.077,1,0.0
ebywst0owenzq5k92fv1qts1,11,3,74,5,2,md,0.0,6.55,1,0.0
ebywst0owenzq5k92fv1qts1,12,3,14,5,1,pd,1.0,8.702,1,0.0
ebywst0owenzq5k92fv1qts1,13,3,54,6,2,md,1.0,10.453,1,0.0
ebywst0owenzq5k92fv1qts1,14,3,76,5,1,pd,1.0,8.504,1,0.0
ebywst0owenzq5k92fv1qts1,15,3,24,7,1,pd,0.0,6.848,1,0.0
ebywst0owenzq5k92fv1qts1,16,3,45,7,2,md,0.0,16.604,1,0.0
ede69j5wvuy3hozsnxp8ud3y,1,3,6,2,1,pd,0.0,4.343,1,0.0
ede69j5wvuy3hozsnxp8ud3y,2,3,28,2,2,md,1.0,13.261,1,0.0
ede69j5wvuy3hozsnxp8ud3y,3,3,71,2,2,md,1.0,6.874,1,0.0
ede69j5wvuy3hozsnxp8ud3y,4,3,50,2,1,pd,1.0,5.926,1,0.0
ede69j5wvuy3hozsnxp8ud3y,5,3,18,3,1,pd,1.0,10.673,1,0.0
ede69j5wvuy3hozsnxp8ud3y,6,3,34,3,2,md,0.0,11.995,1,0.0
ede69j5wvuy3hozsnxp8ud3y,7,3,17,4,2,md,0.0,28.361,1,0.0
ede69j5wvuy3hozsnxp8ud3y,8,3,56,3,1,pd,1.0,9.03,1,0.0
ede69j5wvuy3hozsnxp8ud3y,9,3,53,4,1,pd,1.0,21.861,1,0.0
ede69j5wvuy3hozsnxp8ud3y,10,3,60,4,2,md,0.0,17.672,1,0.0
ede69j5wvuy3hozsnxp8ud3y,11,3,80,4,1,pd,1.0,15.94,1,0.0
ede69j5wvuy3hozsnxp8ud3y,12,3,74,5,2,md,,,1,0.0
ede69j5wvuy3hozsnxp8ud3y,13,3,75,6,2,md,1.0,13.801,1,0.0
ede69j5wvuy3hozsnxp8ud3y,14,3,36,6,1,pd,0.0,15.701,1,0.0
ede69j5wvuy3hozsnxp8ud3y,15,3,66,8,2,md,0.0,18.687,1,0.0
ede69j5wvuy3hozsnxp8ud3y,16,3,30,7,1,pd,1.0,10.263,1,0.0
efowokuys8arg7n86rv64faf,1,3,47,2,2,md,0.0,21.293,1,0.0
efowokuys8arg7n86rv64faf,2,3,22,2,1,pd,1.0,20.85,1,0.0
efowokuys8arg7n86rv64faf,3,3,51,2,1,pd,1.0,14.148,1,0.0
efowokuys8arg7n86rv64faf,4,3,10,3,2,md,1.0,24.796,1,0.0
efowokuys8arg7n86rv64faf,5,3,34,3,2,md,0.0,27.821,1,0.0
efowokuys8arg7n86rv64faf,6,3,18,3,1,pd,1.0,26.358,1,0.0
efowokuys8arg7n86rv64faf,7,3,56,3,1,pd,1.0,24.876,1,0.0
efowokuys8arg7n86rv64faf,8,3,17,4,2,md,1.0,27.367,1,0.0
efowokuys8arg7n86rv64faf,9,3,23,4,1,pd,1.0,8.936,1,0.0
efowokuys8arg7n86rv64faf,10,3,79,4,2,md,1.0,29.806,1,0.0
efowokuys8arg7n86rv64faf,11,3,80,4,1,pd,1.0,11.243,1,0.0
efowokuys8arg7n86rv64faf,12,3,63,5,2,md,0.0,28.238,1,0.0
efowokuys8arg7n86rv64faf,13,3,64,6,2,md,0.0,26.871,1,0.0
efowokuys8arg7n86rv64faf,14,3,46,6,1,pd,0.0,15.291,1,0.0
efowokuys8arg7n86rv64faf,15,3,21,7,1,pd,0.0,25.03,1,0.0
efowokuys8arg7n86rv64faf,16,3,66,8,2,md,0.0,28.142,1,0.0
eoz3hva9mqbhlx1td76x3hfb,1,3,25,2,1,md,1.0,9.877,1,0.0
eoz3hva9mqbhlx1td76x3hfb,2,3,19,2,2,pd,1.0,5.918,1,0.0
eoz3hva9mqbhlx1td76x3hfb,3,3,65,2,1,md,1.0,10.113,1,0.0
eoz3hva9mqbhlx1td76x3hfb,4,3,49,2,2,pd,1.0,5.398,1,0.0
eoz3hva9mqbhlx1td76x3hfb,5,3,11,3,2,pd,1.0,19.495,1,0.0
eoz3hva9mqbhlx1td76x3hfb,6,3,37,3,1,md,1.0,18.521,1,0.0
eoz3hva9mqbhlx1td76x3hfb,7,3,69,3,2,pd,1.0,7.292,1,0.0
eoz3hva9mqbhlx1td76x3hfb,8,3,77,3,1,md,1.0,16.828,1,0.0
eoz3hva9mqbhlx1td76x3hfb,9,3,40,4,2,pd,1.0,12.399,1,0.0
eoz3hva9mqbhlx1td76x3hfb,10,3,73,4,1,md,1.0,13.462,1,0.0
eoz3hva9mqbhlx1td76x3hfb,11,3,14,5,2,pd,1.0,13.717,1,0.0
eoz3hva9mqbhlx1td76x3hfb,12,3,63,5,1,md,0.0,25.544,1,0.0
eoz3hva9mqbhlx1td76x3hfb,13,3,46,6,2,pd,1.0,12.626,1,0.0
eoz3hva9mqbhlx1td76x3hfb,14,3,75,6,1,md,0.0,15.638,1,0.0
eoz3hva9mqbhlx1td76x3hfb,15,3,24,7,2,pd,1.0,21.86,1,0.0
eoz3hva9mqbhlx1td76x3hfb,16,3,45,7,1,md,1.0,13.988,1,0.0
fc1ey3zt9gnf40jb1eeecmri,1,3,6,2,2,pd,1.0,9.044,1,0.0
fc1ey3zt9gnf40jb1eeecmri,2,3,28,2,1,md,1.0,10.864,1,0.0
fc1ey3zt9gnf40jb1eeecmri,3,3,71,2,1,md,1.0,8.865,1,0.0
fc1ey3zt9gnf40jb1eeecmri,4,3,50,2,2,pd,1.0,10.013,1,0.0
fc1ey3zt9gnf40jb1eeecmri,5,3,34,3,1,md,0.0,19.437,1,0.0
fc1ey3zt9gnf40jb1eeecmri,6,3,13,3,2,pd,1.0,11.517,1,0.0
fc1ey3zt9gnf40jb1eeecmri,7,3,12,4,1,md,1.0,14.859,1,0.0
fc1ey3zt9gnf40jb1eeecmri,8,3,56,3,2,pd,1.0,13.6,1,0.0
fc1ey3zt9gnf40jb1eeecmri,9,3,23,4,2,pd,1.0,5.223,1,0.0
fc1ey3zt9gnf40jb1eeecmri,10,3,60,4,1,md,0.0,11.986,1,0.0
fc1ey3zt9gnf40jb1eeecmri,11,3,52,5,2,pd,1.0,9.518,1,0.0
fc1ey3zt9gnf40jb1eeecmri,12,3,67,5,1,md,1.0,8.235,1,0.0
fc1ey3zt9gnf40jb1eeecmri,13,3,44,6,2,pd,0.0,20.63,1,0.0
fc1ey3zt9gnf40jb1eeecmri,14,3,55,6,1,md,0.0,14.002,1,0.0
fc1ey3zt9gnf40jb1eeecmri,15,3,45,7,1,md,1.0,13.705,1,0.0
fc1ey3zt9gnf40jb1eeecmri,16,3,24,7,2,pd,1.0,9.037,1,0.0
fc4owb5j1x5mwpits1i0ifux,1,3,25,2,2,md,1.0,10.018,1,0.0
fc4owb5j1x5mwpits1i0ifux,2,3,6,2,1,pd,1.0,9.258,1,0.0
fc4owb5j1x5mwpits1i0ifux,3,3,61,2,1,pd,1.0,11.516,1,0.0
fc4owb5j1x5mwpits1i0ifux,4,3,70,2,2,md,1.0,6.327,1,0.0
fc4owb5j1x5mwpits1i0ifux,5,3,27,3,2,md,1.0,15.122,1,0.0
fc4owb5j1x5mwpits1i0ifux,6,3,15,3,1,pd,1.0,27.091,1,0.0
fc4owb5j1x5mwpits1i0ifux,7,3,77,3,2,md,1.0,8.136,1,0.0
fc4owb5j1x5mwpits1i0ifux,8,3,56,3,1,pd,1.0,6.269,1,0.0
fc4owb5j1x5mwpits1i0ifux,9,3,79,4,2,md,0.0,29.35,1,0.0
fc4owb5j1x5mwpits1i0ifux,10,3,40,4,1,pd,0.0,8.079,1,0.0
fc4owb5j1x5mwpits1i0ifux,11,3,26,5,1,pd,1.0,12.5,1,0.0
fc4owb5j1x5mwpits1i0ifux,12,3,59,5,2,md,0.0,23.678,1,0.0
fc4owb5j1x5mwpits1i0ifux,13,3,76,5,1,pd,1.0,25.583,1,0.0
fc4owb5j1x5mwpits1i0ifux,14,3,64,6,2,md,1.0,15.688,1,0.0
fc4owb5j1x5mwpits1i0ifux,15,3,78,7,2,md,1.0,23.946,1,0.0
fc4owb5j1x5mwpits1i0ifux,16,3,24,7,1,pd,1.0,12.515,1,0.0
fh64ksnjqrfaqmkutsll5m1k,1,3,28,2,2,md,0.0,5.416,1,0.0
fh64ksnjqrfaqmkutsll5m1k,2,3,6,2,1,pd,1.0,15.405,1,0.0
fh64ksnjqrfaqmkutsll5m1k,3,3,49,2,1,pd,1.0,9.814,1,0.0
fh64ksnjqrfaqmkutsll5m1k,4,3,10,3,2,md,1.0,12.758,1,0.0
fh64ksnjqrfaqmkutsll5m1k,5,3,18,3,1,pd,1.0,9.751,1,0.0
fh64ksnjqrfaqmkutsll5m1k,6,3,34,3,2,md,1.0,17.463,1,0.0
fh64ksnjqrfaqmkutsll5m1k,7,3,16,4,2,md,1.0,21.045,1,0.0
fh64ksnjqrfaqmkutsll5m1k,8,3,62,3,1,pd,1.0,14.059,1,0.0
fh64ksnjqrfaqmkutsll5m1k,9,3,72,4,2,md,1.0,23.682,1,0.0
fh64ksnjqrfaqmkutsll5m1k,10,3,23,4,1,pd,1.0,11.287,1,0.0
fh64ksnjqrfaqmkutsll5m1k,11,3,67,5,2,md,1.0,23.355,1,0.0
fh64ksnjqrfaqmkutsll5m1k,12,3,52,5,1,pd,1.0,19.674,1,0.0
fh64ksnjqrfaqmkutsll5m1k,13,3,76,5,1,pd,1.0,14.16,1,0.0
fh64ksnjqrfaqmkutsll5m1k,14,3,55,6,2,md,1.0,25.556,1,0.0
fh64ksnjqrfaqmkutsll5m1k,15,3,66,8,2,md,1.0,10.706,1,0.0
fh64ksnjqrfaqmkutsll5m1k,16,3,30,7,1,pd,1.0,12.224,1,0.0
fmpczllz4lb14nqdzrav7np3,1,3,19,2,2,pd,1.0,8.889,1,0.0
fmpczllz4lb14nqdzrav7np3,2,3,28,2,1,md,1.0,11.098,1,0.0
fmpczllz4lb14nqdzrav7np3,3,3,50,2,2,pd,1.0,12.139,1,0.0
fmpczllz4lb14nqdzrav7np3,4,3,70,2,1,md,1.0,13.031,1,0.0
fmpczllz4lb14nqdzrav7np3,5,3,37,3,1,md,1.0,20.136,1,0.0
fmpczllz4lb14nqdzrav7np3,6,3,13,3,2,pd,1.0,9.585,1,0.0
fmpczllz4lb14nqdzrav7np3,7,3,16,4,1,md,0.0,12.427,1,0.0
fmpczllz4lb14nqdzrav7np3,8,3,69,3,2,pd,1.0,7.546,1,0.0
fmpczllz4lb14nqdzrav7np3,9,3,40,4,2,pd,1.0,21.475,1,0.0
fmpczllz4lb14nqdzrav7np3,10,3,73,4,1,md,1.0,12.562,1,0.0
fmpczllz4lb14nqdzrav7np3,11,3,80,4,2,pd,1.0,19.437,1,0.0
fmpczllz4lb14nqdzrav7np3,12,3,59,5,1,md,0.0,15.692,1,0.0
fmpczllz4lb14nqdzrav7np3,13,3,64,6,1,md,0.0,22.985,1,0.0
fmpczllz4lb14nqdzrav7np3,14,3,76,5,2,pd,1.0,6.565,1,0.0
fmpczllz4lb14nqdzrav7np3,15,3,66,8,1,md,0.0,13.402,1,0.0
fmpczllz4lb14nqdzrav7np3,16,3,30,7,2,pd,1.0,7.045,1,0.0
fve9j6js22pubgc94k5hbt45,1,3,39,2,2,md,1.0,13.724,1,0.0
fve9j6js22pubgc94k5hbt45,2,3,22,2,1,pd,1.0,13.677,1,0.0
fve9j6js22pubgc94k5hbt45,3,3,65,2,2,md,1.0,17.577,1,0.0
fve9j6js22pubgc94k5hbt45,4,3,49,2,1,pd,1.0,11.899,1,0.0
fve9j6js22pubgc94k5hbt45,5,3,34,3,2,md,1.0,19.473,1,0.0
fve9j6js22pubgc94k5hbt45,6,3,18,3,1,pd,1.0,13.926,1,0.0
fve9j6js22pubgc94k5hbt45,7,3,58,3,1,pd,1.0,12.053,1,0.0
fve9j6js22pubgc94k5hbt45,8,3,12,4,2,md,1.0,18.858,1,0.0
fve9j6js22pubgc94k5hbt45,9,3,79,4,2,md,0.0,27.081,1,0.0
fve9j6js22pubgc94k5hbt45,10,3,53,4,1,pd,1.0,26.983,1,0.0
fve9j6js22pubgc94k5hbt45,11,3,74,5,2,md,1.0,20.227,1,0.0
fve9j6js22pubgc94k5hbt45,12,3,26,5,1,pd,1.0,27.666,1,0.0
fve9j6js22pubgc94k5hbt45,13,3,36,6,1,pd,1.0,11.451,1,0.0
fve9j6js22pubgc94k5hbt45,14,3,55,6,2,md,1.0,27.28,1,0.0
fve9j6js22pubgc94k5hbt45,15,3,78,7,2,md,1.0,17.274,1,0.0
fve9j6js22pubgc94k5hbt45,16,3,24,7,1,pd,1.0,19.245,1,0.0
fxgjr077y3vdn9a9ll5tgb0o,1,3,22,2,1,pd,1.0,7.606,1,0.0
fxgjr077y3vdn9a9ll5tgb0o,2,3,25,2,2,md,1.0,11.787,1,0.0
fxgjr077y3vdn9a9ll5tgb0o,3,3,10,3,2,md,1.0,8.634,1,0.0
fxgjr077y3vdn9a9ll5tgb0o,4,3,49,2,1,pd,1.0,8.822,1,0.0
fxgjr077y3vdn9a9ll5tgb0o,5,3,37,3,2,md,0.0,26.776,1,0.0
fxgjr077y3vdn9a9ll5tgb0o,6,3,11,3,1,pd,1.0,18.046,1,0.0
fxgjr077y3vdn9a9ll5tgb0o,7,3,12,4,2,md,0.0,12.989,1,0.0
fxgjr077y3vdn9a9ll5tgb0o,8,3,69,3,1,pd,1.0,8.055,1,0.0
fxgjr077y3vdn9a9ll5tgb0o,9,3,42,4,1,pd,0.0,24.146,1,0.0
fxgjr077y3vdn9a9ll5tgb0o,10,3,73,4,2,md,1.0,23.852,1,0.0
fxgjr077y3vdn9a9ll5tgb0o,11,3,74,5,2,md,0.0,23.882,1,0.0
fxgjr077y3vdn9a9ll5tgb0o,12,3,80,4,1,pd,1.0,9.05,1,0.0
fxgjr077y3vdn9a9ll5tgb0o,13,3,46,6,1,pd,1.0,19.22,1,0.0
fxgjr077y3vdn9a9ll5tgb0o,14,3,54,6,2,md,0.0,29.622,1,0.0
fxgjr077y3vdn9a9ll5tgb0o,15,3,30,7,1,pd,1.0,16.37,1,0.0
fxgjr077y3vdn9a9ll5tgb0o,16,3,78,7,2,md,0.0,28.548,1,0.0
g25wj0lnxn5lnaeqqd7n7r3l,1,3,25,2,2,md,1.0,25.004,1,0.0
g25wj0lnxn5lnaeqqd7n7r3l,2,3,20,2,1,pd,1.0,19.781,1,0.0
g25wj0lnxn5lnaeqqd7n7r3l,3,3,71,2,2,md,1.0,20.095,1,0.0
g25wj0lnxn5lnaeqqd7n7r3l,4,3,61,2,1,pd,1.0,24.883,1,0.0
g25wj0lnxn5lnaeqqd7n7r3l,5,3,18,3,1,pd,1.0,28.393,1,0.0
g25wj0lnxn5lnaeqqd7n7r3l,6,3,27,3,2,md,1.0,28.547,1,0.0
g25wj0lnxn5lnaeqqd7n7r3l,7,3,12,4,2,md,0.0,25.555,1,0.0
g25wj0lnxn5lnaeqqd7n7r3l,8,3,56,3,1,pd,1.0,9.471,1,0.0
g25wj0lnxn5lnaeqqd7n7r3l,9,3,60,4,2,md,,,1,0.0
g25wj0lnxn5lnaeqqd7n7r3l,10,3,42,4,1,pd,0.0,16.507,1,0.0
g25wj0lnxn5lnaeqqd7n7r3l,11,3,59,5,2,md,0.0,24.737,1,0.0
g25wj0lnxn5lnaeqqd7n7r3l,12,3,80,4,1,pd,0.0,16.239,1,0.0
g25wj0lnxn5lnaeqqd7n7r3l,13,3,46,6,1,pd,1.0,20.879,1,0.0
g25wj0lnxn5lnaeqqd7n7r3l,14,3,55,6,2,md,0.0,21.24,1,0.0
g25wj0lnxn5lnaeqqd7n7r3l,15,3,21,7,1,pd,1.0,12.714,1,0.0
g25wj0lnxn5lnaeqqd7n7r3l,16,3,35,8,2,md,1.0,24.935,1,0.0
g8h72zta2vegwiej6psdia0w,1,3,25,2,1,md,1.0,14.852,1,0.0
g8h72zta2vegwiej6psdia0w,2,3,19,2,2,pd,1.0,8.952,1,0.0
g8h72zta2vegwiej6psdia0w,3,3,65,2,1,md,1.0,12.149,1,0.0
g8h72zta2vegwiej6psdia0w,4,3,61,2,2,pd,1.0,11.54,1,0.0
g8h72zta2vegwiej6psdia0w,5,3,37,3,1,md,0.0,19.297,1,0.0
g8h72zta2vegwiej6psdia0w,6,3,11,3,2,pd,1.0,20.07,1,0.0
g8h72zta2vegwiej6psdia0w,7,3,12,4,1,md,0.0,8.73,1,0.0
g8h72zta2vegwiej6psdia0w,8,3,56,3,2,pd,1.0,19.761,1,0.0
g8h72zta2vegwiej6psdia0w,9,3,73,4,1,md,0.0,28.71,1,0.0
g8h72zta2vegwiej6psdia0w,10,3,23,4,2,pd,1.0,9.02,1,0.0
g8h72zta2vegwiej6psdia0w,11,3,67,5,1,md,1.0,19.486,1,0.0
g8h72zta2vegwiej6psdia0w,12,3,52,5,2,pd,1.0,12.439,1,0.0
g8h72zta2vegwiej6psdia0w,13,3,44,6,2,pd,0.0,28.653,1,0.0
g8h72zta2vegwiej6psdia0w,14,3,75,6,1,md,1.0,13.311,1,0.0
g8h72zta2vegwiej6psdia0w,15,3,30,7,2,pd,1.0,15.826,1,0.0
g8h72zta2vegwiej6psdia0w,16,3,35,8,1,md,0.0,14.906,1,0.0
g9dv3o9qvr5au55mpi8l04kn,1,3,22,2,1,pd,1.0,16.272,1,0.0
g9dv3o9qvr5au55mpi8l04kn,2,3,39,2,2,md,1.0,28.533,1,0.0
g9dv3o9qvr5au55mpi8l04kn,3,3,65,2,2,md,1.0,23.136,1,0.0
g9dv3o9qvr5au55mpi8l04kn,4,3,50,2,1,pd,1.0,23.616,1,0.0
g9dv3o9qvr5au55mpi8l04kn,5,3,27,3,2,md,0.0,28.959,1,0.0
g9dv3o9qvr5au55mpi8l04kn,6,3,11,3,1,pd,1.0,12.141,1,0.0
g9dv3o9qvr5au55mpi8l04kn,7,3,16,4,2,md,0.0,18.056,1,0.0
g9dv3o9qvr5au55mpi8l04kn,8,3,56,3,1,pd,1.0,18.404,1,0.0
g9dv3o9qvr5au55mpi8l04kn,9,3,72,4,2,md,0.0,25.48,1,0.0
g9dv3o9qvr5au55mpi8l04kn,10,3,53,4,1,pd,1.0,20.49,1,0.0
g9dv3o9qvr5au55mpi8l04kn,11,3,63,5,2,md,1.0,24.444,1,0.0
g9dv3o9qvr5au55mpi8l04kn,12,3,26,5,1,pd,1.0,25.879,1,0.0
g9dv3o9qvr5au55mpi8l04kn,13,3,75,6,2,md,1.0,21.41,1,0.0
g9dv3o9qvr5au55mpi8l04kn,14,3,44,6,1,pd,1.0,19.994,1,0.0
g9dv3o9qvr5au55mpi8l04kn,15,3,21,7,1,pd,1.0,26.465,1,0.0
g9dv3o9qvr5au55mpi8l04kn,16,3,66,8,2,md,1.0,19.203,1,0.0
gcrsxezjypxo1hjjgdwu3v8w,1,3,25,2,1,md,1.0,13.271,1,0.0
gcrsxezjypxo1hjjgdwu3v8w,2,3,19,2,2,pd,1.0,9.057,1,0.0
gcrsxezjypxo1hjjgdwu3v8w,3,3,70,2,1,md,1.0,8.546,1,0.0
gcrsxezjypxo1hjjgdwu3v8w,4,3,61,2,2,pd,1.0,12.787,1,0.0
gcrsxezjypxo1hjjgdwu3v8w,5,3,18,3,2,pd,1.0,12.055,1,0.0
gcrsxezjypxo1hjjgdwu3v8w,6,3,27,3,1,md,0.0,17.462,1,0.0
gcrsxezjypxo1hjjgdwu3v8w,7,3,12,4,1,md,1.0,19.702,1,0.0
gcrsxezjypxo1hjjgdwu3v8w,8,3,62,3,2,pd,1.0,9.288,1,0.0
gcrsxezjypxo1hjjgdwu3v8w,9,3,73,4,1,md,1.0,19.036,1,0.0
gcrsxezjypxo1hjjgdwu3v8w,10,3,42,4,2,pd,1.0,23.141,1,0.0
gcrsxezjypxo1hjjgdwu3v8w,11,3,14,5,2,pd,1.0,24.168,1,0.0
gcrsxezjypxo1hjjgdwu3v8w,12,3,59,5,1,md,0.0,20.948,1,0.0
gcrsxezjypxo1hjjgdwu3v8w,13,3,64,6,1,md,1.0,23.861,1,0.0
gcrsxezjypxo1hjjgdwu3v8w,14,3,46,6,2,pd,1.0,20.341,1,0.0
gcrsxezjypxo1hjjgdwu3v8w,15,3,29,7,2,pd,1.0,18.299,1,0.0
gcrsxezjypxo1hjjgdwu3v8w,16,3,78,7,1,md,1.0,24.556,1,0.0
gume9hgou9sjzjclxmhregyb,1,3,25,2,2,md,1.0,9.759,1,0.0
gume9hgou9sjzjclxmhregyb,2,3,22,2,1,pd,1.0,10.984,1,0.0
gume9hgou9sjzjclxmhregyb,3,3,71,2,2,md,1.0,9.033,1,0.0
gume9hgou9sjzjclxmhregyb,4,3,49,2,1,pd,1.0,6.497,1,0.0
gume9hgou9sjzjclxmhregyb,5,3,11,3,1,pd,1.0,14.008,1,0.0
gume9hgou9sjzjclxmhregyb,6,3,27,3,2,md,0.0,28.281,1,0.0
gume9hgou9sjzjclxmhregyb,7,3,62,3,1,pd,1.0,8.371,1,0.0
gume9hgou9sjzjclxmhregyb,8,3,12,4,2,md,1.0,23.485,1,0.0
gume9hgou9sjzjclxmhregyb,9,3,40,4,1,pd,1.0,25.75,1,0.0
gume9hgou9sjzjclxmhregyb,10,3,72,4,2,md,0.0,25.857,1,0.0
gume9hgou9sjzjclxmhregyb,11,3,67,5,2,md,1.0,17.469,1,0.0
gume9hgou9sjzjclxmhregyb,12,3,52,5,1,pd,1.0,11.965,1,0.0
gume9hgou9sjzjclxmhregyb,13,3,75,6,2,md,1.0,26.392,1,0.0
gume9hgou9sjzjclxmhregyb,14,3,76,5,1,pd,1.0,23.978,1,0.0
gume9hgou9sjzjclxmhregyb,15,3,45,7,2,md,0.0,21.248,1,0.0
gume9hgou9sjzjclxmhregyb,16,3,29,7,1,pd,1.0,29.884,1,0.0
h1b8fzr5yvivjatgmpky09as,1,3,22,2,1,pd,1.0,8.353,1,0.0
h1b8fzr5yvivjatgmpky09as,2,3,39,2,2,md,1.0,23.982,1,0.0
h1b8fzr5yvivjatgmpky09as,3,3,51,2,1,pd,1.0,21.226,1,0.0
h1b8fzr5yvivjatgmpky09as,4,3,70,2,2,md,1.0,8.827,1,0.0
h1b8fzr5yvivjatgmpky09as,5,3,11,3,1,pd,1.0,26.602,1,0.0
h1b8fzr5yvivjatgmpky09as,6,3,34,3,2,md,1.0,29.371,1,0.0
h1b8fzr5yvivjatgmpky09as,7,3,12,4,2,md,0.0,29.493,1,0.0
h1b8fzr5yvivjatgmpky09as,8,3,62,3,1,pd,1.0,23.073,1,0.0
h1b8fzr5yvivjatgmpky09as,9,3,79,4,2,md,0.0,29.4,1,0.0
h1b8fzr5yvivjatgmpky09as,10,3,42,4,1,pd,1.0,29.257,1,0.0
h1b8fzr5yvivjatgmpky09as,11,3,59,5,2,md,,,1,0.0
h1b8fzr5yvivjatgmpky09as,12,3,14,5,1,pd,0.0,29.436,1,0.0
h1b8fzr5yvivjatgmpky09as,13,3,64,6,2,md,1.0,26.647,1,0.0
h1b8fzr5yvivjatgmpky09as,14,3,44,6,1,pd,0.0,29.018,1,0.0
h1b8fzr5yvivjatgmpky09as,15,3,35,8,2,md,1.0,26.986,1,0.0
h1b8fzr5yvivjatgmpky09as,16,3,21,7,1,pd,0.0,19.324,1,0.0
hjwh9ijhdurnaa2d9qjpllib,1,3,28,2,2,md,1.0,19.096,1,0.0
hjwh9ijhdurnaa2d9qjpllib,2,3,22,2,1,pd,1.0,9.378,1,0.0
hjwh9ijhdurnaa2d9qjpllib,3,3,70,2,2,md,1.0,5.61,1,0.0
hjwh9ijhdurnaa2d9qjpllib,4,3,50,2,1,pd,1.0,8.177,1,0.0
hjwh9ijhdurnaa2d9qjpllib,5,3,15,3,1,pd,1.0,25.168,1,0.0
hjwh9ijhdurnaa2d9qjpllib,6,3,31,3,2,md,1.0,20.823,1,0.0
hjwh9ijhdurnaa2d9qjpllib,7,3,17,4,2,md,1.0,17.796,1,0.0
hjwh9ijhdurnaa2d9qjpllib,8,3,62,3,1,pd,1.0,9.474,1,0.0
hjwh9ijhdurnaa2d9qjpllib,9,3,73,4,2,md,0.0,26.055,1,0.0
hjwh9ijhdurnaa2d9qjpllib,10,3,23,4,1,pd,1.0,6.167,1,0.0
hjwh9ijhdurnaa2d9qjpllib,11,3,67,5,2,md,1.0,7.199,1,0.0
hjwh9ijhdurnaa2d9qjpllib,12,3,26,5,1,pd,0.0,15.73,1,0.0
hjwh9ijhdurnaa2d9qjpllib,13,3,54,6,2,md,0.0,14.252,1,0.0
hjwh9ijhdurnaa2d9qjpllib,14,3,76,5,1,pd,1.0,7.746,1,0.0
hjwh9ijhdurnaa2d9qjpllib,15,3,35,8,2,md,1.0,23.52,1,0.0
hjwh9ijhdurnaa2d9qjpllib,16,3,21,7,1,pd,0.0,7.521,1,0.0
hkc5g4tfvvxksxl8fpes0b8x,1,3,19,2,2,pd,0.0,7.661,1,0.0
hkc5g4tfvvxksxl8fpes0b8x,2,3,25,2,1,md,1.0,11.109,1,0.0
hkc5g4tfvvxksxl8fpes0b8x,3,3,70,2,1,md,1.0,12.699,1,0.0
hkc5g4tfvvxksxl8fpes0b8x,4,3,49,2,2,pd,1.0,10.306,1,0.0
hkc5g4tfvvxksxl8fpes0b8x,5,3,15,3,2,pd,1.0,19.59,1,0.0
hkc5g4tfvvxksxl8fpes0b8x,6,3,31,3,1,md,1.0,25.724,1,0.0
hkc5g4tfvvxksxl8fpes0b8x,7,3,62,3,2,pd,1.0,13.125,1,0.0
hkc5g4tfvvxksxl8fpes0b8x,8,3,16,4,1,md,1.0,19.713,1,0.0
hkc5g4tfvvxksxl8fpes0b8x,9,3,79,4,1,md,1.0,13.656,1,0.0
hkc5g4tfvvxksxl8fpes0b8x,10,3,23,4,2,pd,1.0,8.461,1,0.0
hkc5g4tfvvxksxl8fpes0b8x,11,3,74,5,1,md,0.0,20.112,1,0.0
hkc5g4tfvvxksxl8fpes0b8x,12,3,52,5,2,pd,1.0,10.952,1,0.0
hkc5g4tfvvxksxl8fpes0b8x,13,3,44,6,2,pd,1.0,17.75,1,0.0
hkc5g4tfvvxksxl8fpes0b8x,14,3,55,6,1,md,1.0,16.218,1,0.0
hkc5g4tfvvxksxl8fpes0b8x,15,3,66,8,1,md,1.0,16.745,1,0.0
hkc5g4tfvvxksxl8fpes0b8x,16,3,29,7,2,pd,1.0,12.611,1,0.0
i2i239ol3f0ie67ekfoadw2e,1,3,19,2,1,pd,1.0,2.587,1,0.0
i2i239ol3f0ie67ekfoadw2e,2,3,39,2,2,md,0.0,11.681,1,0.0
i2i239ol3f0ie67ekfoadw2e,3,3,71,2,2,md,1.0,4.717,1,0.0
i2i239ol3f0ie67ekfoadw2e,4,3,51,2,1,pd,1.0,9.882,1,0.0
i2i239ol3f0ie67ekfoadw2e,5,3,27,3,2,md,1.0,8.575,1,0.0
i2i239ol3f0ie67ekfoadw2e,6,3,18,3,1,pd,1.0,8.217,1,0.0
i2i239ol3f0ie67ekfoadw2e,7,3,62,3,1,pd,1.0,4.877,1,0.0
i2i239ol3f0ie67ekfoadw2e,8,3,17,4,2,md,1.0,5.59,1,0.0
i2i239ol3f0ie67ekfoadw2e,9,3,73,4,2,md,1.0,19.902,1,0.0
i2i239ol3f0ie67ekfoadw2e,10,3,23,4,1,pd,1.0,6.989,1,0.0
i2i239ol3f0ie67ekfoadw2e,11,3,52,5,1,pd,1.0,12.184,1,0.0
i2i239ol3f0ie67ekfoadw2e,12,3,59,5,2,md,0.0,17.493,1,0.0
i2i239ol3f0ie67ekfoadw2e,13,3,55,6,2,md,0.0,18.051,1,0.0
i2i239ol3f0ie67ekfoadw2e,14,3,36,6,1,pd,1.0,23.206,1,0.0
i2i239ol3f0ie67ekfoadw2e,15,3,21,7,1,pd,0.0,12.401,1,0.0
i2i239ol3f0ie67ekfoadw2e,16,3,35,8,2,md,0.0,18.606,1,0.0
iqiu17nsh7x9nps1kegka46e,1,3,20,2,1,pd,1.0,16.423,1,0.0
iqiu17nsh7x9nps1kegka46e,2,3,28,2,2,md,0.0,27.912,1,0.0
iqiu17nsh7x9nps1kegka46e,3,3,70,2,2,md,1.0,13.465,1,0.0
iqiu17nsh7x9nps1kegka46e,4,3,61,2,1,pd,1.0,22.141,1,0.0
iqiu17nsh7x9nps1kegka46e,5,3,34,3,2,md,0.0,16.897,1,0.0
iqiu17nsh7x9nps1kegka46e,6,3,15,3,1,pd,1.0,20.19,1,0.0
iqiu17nsh7x9nps1kegka46e,7,3,17,4,2,md,0.0,18.204,1,0.0
iqiu17nsh7x9nps1kegka46e,8,3,58,3,1,pd,1.0,20.094,1,0.0
iqiu17nsh7x9nps1kegka46e,9,3,23,4,1,pd,1.0,12.73,1,0.0
iqiu17nsh7x9nps1kegka46e,10,3,72,4,2,md,0.0,27.433,1,0.0
iqiu17nsh7x9nps1kegka46e,11,3,14,5,1,pd,1.0,25.206,1,0.0
iqiu17nsh7x9nps1kegka46e,12,3,67,5,2,md,0.0,23.736,1,0.0
iqiu17nsh7x9nps1kegka46e,13,3,75,6,2,md,0.0,15.533,1,0.0
iqiu17nsh7x9nps1kegka46e,14,3,44,6,1,pd,0.0,14.348,1,0.0
iqiu17nsh7x9nps1kegka46e,15,3,78,7,2,md,0.0,16.723,1,0.0
iqiu17nsh7x9nps1kegka46e,16,3,21,7,1,pd,1.0,9.587,1,0.0
irnft15fp2p3fhf7d5f3agze,1,3,19,2,2,pd,1.0,19.46,1,0.0
irnft15fp2p3fhf7d5f3agze,2,3,39,2,1,md,1.0,24.798,1,0.0
irnft15fp2p3fhf7d5f3agze,3,3,51,2,2,pd,0.0,27.128,1,0.0
irnft15fp2p3fhf7d5f3agze,4,3,10,3,1,md,0.0,27.953,1,0.0
irnft15fp2p3fhf7d5f3agze,5,3,27,3,1,md,0.0,27.204,1,0.0
irnft15fp2p3fhf7d5f3agze,6,3,18,3,2,pd,0.0,28.589,1,0.0
irnft15fp2p3fhf7d5f3agze,7,3,58,3,2,pd,1.0,17.929,1,0.0
irnft15fp2p3fhf7d5f3agze,8,3,16,4,1,md,0.0,25.574,1,0.0
irnft15fp2p3fhf7d5f3agze,9,3,60,4,1,md,0.0,28.163,1,0.0
irnft15fp2p3fhf7d5f3agze,10,3,53,4,2,pd,1.0,22.764,1,0.0
irnft15fp2p3fhf7d5f3agze,11,3,59,5,1,md,1.0,28.881,1,0.0
irnft15fp2p3fhf7d5f3agze,12,3,52,5,2,pd,1.0,16.99,1,0.0
irnft15fp2p3fhf7d5f3agze,13,3,76,5,2,pd,1.0,10.706,1,0.0
irnft15fp2p3fhf7d5f3agze,14,3,75,6,1,md,1.0,28.728,1,0.0
irnft15fp2p3fhf7d5f3agze,15,3,35,8,1,md,0.0,29.322,1,0.0
irnft15fp2p3fhf7d5f3agze,16,3,30,7,2,pd,0.0,12.871,1,0.0
j4c43dpxgguttyuloto79cgb,1,3,39,2,1,md,1.0,18.836,1,0.0
j4c43dpxgguttyuloto79cgb,2,3,20,2,2,pd,1.0,16.375,1,0.0
j4c43dpxgguttyuloto79cgb,3,3,61,2,2,pd,0.0,13.251,1,0.0
j4c43dpxgguttyuloto79cgb,4,3,10,3,1,md,1.0,12.163,1,0.0
j4c43dpxgguttyuloto79cgb,5,3,34,3,1,md,0.0,19.709,1,0.0
j4c43dpxgguttyuloto79cgb,6,3,15,3,2,pd,0.0,12.196,1,0.0
j4c43dpxgguttyuloto79cgb,7,3,69,3,2,pd,0.0,10.539,1,0.0
j4c43dpxgguttyuloto79cgb,8,3,77,3,1,md,1.0,6.94,1,0.0
j4c43dpxgguttyuloto79cgb,9,3,40,4,2,pd,1.0,6.693,1,0.0
j4c43dpxgguttyuloto79cgb,10,3,72,4,1,md,0.0,9.048,1,0.0
j4c43dpxgguttyuloto79cgb,11,3,67,5,1,md,0.0,4.628,1,0.0
j4c43dpxgguttyuloto79cgb,12,3,80,4,2,pd,0.0,6.798,1,0.0
j4c43dpxgguttyuloto79cgb,13,3,64,6,1,md,0.0,8.767,1,0.0
j4c43dpxgguttyuloto79cgb,14,3,46,6,2,pd,1.0,10.654,1,0.0
j4c43dpxgguttyuloto79cgb,15,3,45,7,1,md,1.0,5.485,1,0.0
j4c43dpxgguttyuloto79cgb,16,3,21,7,2,pd,1.0,3.89,1,0.0
j84q70ouh8xjdfihaqi7ift3,1,3,19,2,1,pd,1.0,9.386,1,0.0
j84q70ouh8xjdfihaqi7ift3,2,3,39,2,2,md,1.0,16.758,1,0.0
j84q70ouh8xjdfihaqi7ift3,3,3,65,2,2,md,1.0,9.149,1,0.0
j84q70ouh8xjdfihaqi7ift3,4,3,61,2,1,pd,1.0,13.328,1,0.0
j84q70ouh8xjdfihaqi7ift3,5,3,15,3,1,pd,1.0,22.351,1,0.0
j84q70ouh8xjdfihaqi7ift3,6,3,27,3,2,md,1.0,13.723,1,0.0
j84q70ouh8xjdfihaqi7ift3,7,3,77,3,2,md,1.0,9.405,1,0.0
j84q70ouh8xjdfihaqi7ift3,8,3,62,3,1,pd,1.0,10.789,1,0.0
j84q70ouh8xjdfihaqi7ift3,9,3,23,4,1,pd,1.0,6.992,1,0.0
j84q70ouh8xjdfihaqi7ift3,10,3,73,4,2,md,0.0,17.982,1,0.0
j84q70ouh8xjdfihaqi7ift3,11,3,59,5,2,md,1.0,23.335,1,0.0
j84q70ouh8xjdfihaqi7ift3,12,3,26,5,1,pd,0.0,6.989,1,0.0
j84q70ouh8xjdfihaqi7ift3,13,3,64,6,2,md,1.0,13.17,1,0.0
j84q70ouh8xjdfihaqi7ift3,14,3,46,6,1,pd,0.0,10.431,1,0.0
j84q70ouh8xjdfihaqi7ift3,15,3,35,8,2,md,0.0,6.934,1,0.0
j84q70ouh8xjdfihaqi7ift3,16,3,21,7,1,pd,0.0,9.938,1,0.0
jcuzfqtc6ix8gnt72cpgz18k,1,3,28,2,1,md,0.0,7.445,1,0.0
jcuzfqtc6ix8gnt72cpgz18k,2,3,6,2,2,pd,1.0,21.213,1,0.0
jcuzfqtc6ix8gnt72cpgz18k,3,3,71,2,1,md,1.0,8.098,1,0.0
jcuzfqtc6ix8gnt72cpgz18k,4,3,51,2,2,pd,1.0,11.026,1,0.0
jcuzfqtc6ix8gnt72cpgz18k,5,3,34,3,1,md,0.0,21.249,1,0.0
jcuzfqtc6ix8gnt72cpgz18k,6,3,13,3,2,pd,1.0,29.053,1,0.0
jcuzfqtc6ix8gnt72cpgz18k,7,3,56,3,2,pd,0.0,22.351,1,0.0
jcuzfqtc6ix8gnt72cpgz18k,8,3,77,3,1,md,1.0,14.82,1,0.0
jcuzfqtc6ix8gnt72cpgz18k,9,3,73,4,1,md,1.0,22.195,1,0.0
jcuzfqtc6ix8gnt72cpgz18k,10,3,42,4,2,pd,1.0,15.036,1,0.0
jcuzfqtc6ix8gnt72cpgz18k,11,3,59,5,1,md,0.0,28.93,1,0.0
jcuzfqtc6ix8gnt72cpgz18k,12,3,14,5,2,pd,0.0,19.32,1,0.0
jcuzfqtc6ix8gnt72cpgz18k,13,3,44,6,2,pd,0.0,27.158,1,0.0
jcuzfqtc6ix8gnt72cpgz18k,14,3,64,6,1,md,1.0,21.711,1,0.0
jcuzfqtc6ix8gnt72cpgz18k,15,3,78,7,1,md,0.0,21.728,1,0.0
jcuzfqtc6ix8gnt72cpgz18k,16,3,24,7,2,pd,1.0,12.117,1,0.0
jw5oo0yhin4qimzacl6lb8h0,1,3,39,2,2,md,1.0,20.092,1,0.0
jw5oo0yhin4qimzacl6lb8h0,2,3,19,2,1,pd,1.0,10.646,1,0.0
jw5oo0yhin4qimzacl6lb8h0,3,3,51,2,1,pd,1.0,12.563,1,0.0
jw5oo0yhin4qimzacl6lb8h0,4,3,71,2,2,md,1.0,11.392,1,0.0
jw5oo0yhin4qimzacl6lb8h0,5,3,37,3,2,md,1.0,28.822,1,0.0
jw5oo0yhin4qimzacl6lb8h0,6,3,11,3,1,pd,1.0,26.871,1,0.0
jw5oo0yhin4qimzacl6lb8h0,7,3,69,3,1,pd,1.0,10.233,1,0.0
jw5oo0yhin4qimzacl6lb8h0,8,3,16,4,2,md,1.0,22.992,1,0.0
jw5oo0yhin4qimzacl6lb8h0,9,3,72,4,2,md,0.0,27.943,1,0.0
jw5oo0yhin4qimzacl6lb8h0,10,3,42,4,1,pd,1.0,23.788,1,0.0
jw5oo0yhin4qimzacl6lb8h0,11,3,59,5,2,md,0.0,28.897,1,0.0
jw5oo0yhin4qimzacl6lb8h0,12,3,14,5,1,pd,1.0,15.897,1,0.0
jw5oo0yhin4qimzacl6lb8h0,13,3,64,6,2,md,1.0,29.242,1,0.0
jw5oo0yhin4qimzacl6lb8h0,14,3,36,6,1,pd,1.0,19.027,1,0.0
jw5oo0yhin4qimzacl6lb8h0,15,3,45,7,2,md,1.0,18.463,1,0.0
jw5oo0yhin4qimzacl6lb8h0,16,3,30,7,1,pd,1.0,12.894,1,0.0
k63nm6xu53y22d5z40fjszis,1,3,39,2,1,md,1.0,28.676,1,0.0
k63nm6xu53y22d5z40fjszis,2,3,22,2,2,pd,1.0,28.703,1,0.0
k63nm6xu53y22d5z40fjszis,3,3,70,2,1,md,1.0,24.596,1,0.0
k63nm6xu53y22d5z40fjszis,4,3,49,2,2,pd,1.0,26.468,1,0.0
k63nm6xu53y22d5z40fjszis,5,3,34,3,1,md,0.0,29.154,1,0.0
k63nm6xu53y22d5z40fjszis,6,3,18,3,2,pd,1.0,29.716,1,0.0
k63nm6xu53y22d5z40fjszis,7,3,56,3,2,pd,1.0,29.502,1,0.0
k63nm6xu53y22d5z40fjszis,8,3,17,4,1,md,1.0,28.933,1,0.0
k63nm6xu53y22d5z40fjszis,9,3,40,4,2,pd,1.0,16.779,1,0.0
k63nm6xu53y22d5z40fjszis,10,3,73,4,1,md,1.0,25.358,1,0.0
k63nm6xu53y22d5z40fjszis,11,3,14,5,2,pd,1.0,16.265,1,0.0
k63nm6xu53y22d5z40fjszis,12,3,74,5,1,md,1.0,17.42,1,0.0
k63nm6xu53y22d5z40fjszis,13,3,64,6,1,md,0.0,29.086,1,0.0
k63nm6xu53y22d5z40fjszis,14,3,76,5,2,pd,1.0,28.72,1,0.0
k63nm6xu53y22d5z40fjszis,15,3,45,7,1,md,0.0,29.067,1,0.0
k63nm6xu53y22d5z40fjszis,16,3,29,7,2,pd,1.0,11.372,1,0.0
k9nrrbxe40yo6i2w7iaim9gn,1,3,20,2,1,md,1.0,22.667,1,0.0
k9nrrbxe40yo6i2w7iaim9gn,2,3,25,2,2,pd,1.0,13.111,1,0.0
k9nrrbxe40yo6i2w7iaim9gn,3,3,70,2,2,pd,1.0,20.179,1,0.0
k9nrrbxe40yo6i2w7iaim9gn,4,3,51,2,1,md,1.0,25.614,1,0.0
k9nrrbxe40yo6i2w7iaim9gn,5,3,27,3,2,pd,1.0,20.93,1,0.0
k9nrrbxe40yo6i2w7iaim9gn,6,3,11,3,1,md,,,1,0.0
k9nrrbxe40yo6i2w7iaim9gn,7,3,58,3,1,md,1.0,21.896,1,0.0
k9nrrbxe40yo6i2w7iaim9gn,8,3,17,4,2,pd,1.0,6.713,1,0.0
k9nrrbxe40yo6i2w7iaim9gn,9,3,60,4,2,pd,1.0,21.34,1,0.0
k9nrrbxe40yo6i2w7iaim9gn,10,3,53,4,1,md,0.0,11.123,1,0.0
k9nrrbxe40yo6i2w7iaim9gn,11,3,67,5,2,pd,1.0,17.186,1,0.0
k9nrrbxe40yo6i2w7iaim9gn,12,3,52,5,1,md,0.0,9.038,1,0.0
k9nrrbxe40yo6i2w7iaim9gn,13,3,64,6,2,pd,1.0,18.004,1,0.0
k9nrrbxe40yo6i2w7iaim9gn,14,3,76,5,1,md,1.0,5.31,1,0.0
k9nrrbxe40yo6i2w7iaim9gn,15,3,21,7,1,md,1.0,18.83,1,0.0
k9nrrbxe40yo6i2w7iaim9gn,16,3,35,8,2,pd,0.0,28.984,1,0.0
kjug4mgepjzfvvg01oodd05x,1,3,25,2,1,md,1.0,15.458,1,0.0
kjug4mgepjzfvvg01oodd05x,2,3,19,2,2,pd,1.0,19.896,1,0.0
kjug4mgepjzfvvg01oodd05x,3,3,70,2,1,md,0.0,21.842,1,0.0
kjug4mgepjzfvvg01oodd05x,4,3,50,2,2,pd,1.0,27.499,1,0.0
kjug4mgepjzfvvg01oodd05x,5,3,15,3,2,pd,1.0,14.498,1,0.0
kjug4mgepjzfvvg01oodd05x,6,3,31,3,1,md,1.0,24.977,1,0.0
kjug4mgepjzfvvg01oodd05x,7,3,69,3,2,pd,1.0,13.802,1,0.0
kjug4mgepjzfvvg01oodd05x,8,3,17,4,1,md,0.0,25.223,1,0.0
kjug4mgepjzfvvg01oodd05x,9,3,73,4,1,md,0.0,21.571,1,0.0
kjug4mgepjzfvvg01oodd05x,10,3,53,4,2,pd,1.0,20.537,1,0.0
kjug4mgepjzfvvg01oodd05x,11,3,67,5,1,md,1.0,11.506,1,0.0
kjug4mgepjzfvvg01oodd05x,12,3,14,5,2,pd,0.0,22.034,1,0.0
kjug4mgepjzfvvg01oodd05x,13,3,44,6,2,pd,0.0,24.466,1,0.0
kjug4mgepjzfvvg01oodd05x,14,3,54,6,1,md,1.0,18.53,1,0.0
kjug4mgepjzfvvg01oodd05x,15,3,66,8,1,md,1.0,17.226,1,0.0
kjug4mgepjzfvvg01oodd05x,16,3,21,7,2,pd,0.0,25.746,1,0.0
l17esoy8522slwizblysi54z,1,3,19,2,2,pd,1.0,17.23,1,0.0
l17esoy8522slwizblysi54z,2,3,47,2,1,md,0.0,29.366,1,0.0
l17esoy8522slwizblysi54z,3,3,65,2,1,md,1.0,9.603,1,0.0
l17esoy8522slwizblysi54z,4,3,51,2,2,pd,1.0,18.862,1,0.0
l17esoy8522slwizblysi54z,5,3,34,3,1,md,0.0,29.101,1,0.0
l17esoy8522slwizblysi54z,6,3,15,3,2,pd,1.0,22.143,1,0.0
l17esoy8522slwizblysi54z,7,3,62,3,2,pd,1.0,11.399,1,0.0
l17esoy8522slwizblysi54z,8,3,17,4,1,md,1.0,19.583,1,0.0
l17esoy8522slwizblysi54z,9,3,60,4,1,md,,,1,0.0
l17esoy8522slwizblysi54z,10,3,40,4,2,pd,0.0,28.608,1,0.0
l17esoy8522slwizblysi54z,11,3,80,4,2,pd,1.0,17.054,1,0.0
l17esoy8522slwizblysi54z,12,3,74,5,1,md,1.0,27.278,1,0.0
l17esoy8522slwizblysi54z,13,3,36,6,2,pd,1.0,23.309,1,0.0
l17esoy8522slwizblysi54z,14,3,75,6,1,md,,,1,0.0
l17esoy8522slwizblysi54z,15,3,24,7,2,pd,1.0,8.808,1,0.0
l17esoy8522slwizblysi54z,16,3,35,8,1,md,1.0,14.077,1,0.0
l3fjxmpgvhqd62lh4ygdosn4,1,3,22,2,1,pd,1.0,5.417,1,0.0
l3fjxmpgvhqd62lh4ygdosn4,2,3,25,2,2,md,1.0,4.413,1,0.0
l3fjxmpgvhqd62lh4ygdosn4,3,3,10,3,2,md,0.0,4.891,1,0.0
l3fjxmpgvhqd62lh4ygdosn4,4,3,50,2,1,pd,1.0,4.784,1,0.0
l3fjxmpgvhqd62lh4ygdosn4,5,3,18,3,1,pd,1.0,5.802,1,0.0
l3fjxmpgvhqd62lh4ygdosn4,6,3,31,3,2,md,0.0,5.504,1,0.0
l3fjxmpgvhqd62lh4ygdosn4,7,3,16,4,2,md,0.0,7.311,1,0.0
l3fjxmpgvhqd62lh4ygdosn4,8,3,62,3,1,pd,1.0,7.571,1,0.0
l3fjxmpgvhqd62lh4ygdosn4,9,3,53,4,1,pd,0.0,6.24,1,0.0
l3fjxmpgvhqd62lh4ygdosn4,10,3,79,4,2,md,0.0,8.988,1,0.0
l3fjxmpgvhqd62lh4ygdosn4,11,3,26,5,1,pd,0.0,8.16,1,0.0
l3fjxmpgvhqd62lh4ygdosn4,12,3,74,5,2,md,0.0,9.532,1,0.0
l3fjxmpgvhqd62lh4ygdosn4,13,3,64,6,2,md,0.0,6.095,1,0.0
l3fjxmpgvhqd62lh4ygdosn4,14,3,76,5,1,pd,0.0,5.171,1,0.0
l3fjxmpgvhqd62lh4ygdosn4,15,3,35,8,2,md,0.0,6.378,1,0.0
l3fjxmpgvhqd62lh4ygdosn4,16,3,30,7,1,pd,1.0,6.51,1,0.0
ldpc5n99w6gkzs6bp0s9ir3e,1,3,39,2,2,md,0.0,28.822,1,0.0
ldpc5n99w6gkzs6bp0s9ir3e,2,3,6,2,1,pd,1.0,17.362,1,0.0
ldpc5n99w6gkzs6bp0s9ir3e,3,3,10,3,2,md,1.0,23.608,1,0.0
ldpc5n99w6gkzs6bp0s9ir3e,4,3,61,2,1,pd,1.0,12.472,1,0.0
ldpc5n99w6gkzs6bp0s9ir3e,5,3,27,3,2,md,0.0,27.656,1,0.0
ldpc5n99w6gkzs6bp0s9ir3e,6,3,13,3,1,pd,0.0,18.851,1,0.0
ldpc5n99w6gkzs6bp0s9ir3e,7,3,69,3,1,pd,1.0,20.602,1,0.0
ldpc5n99w6gkzs6bp0s9ir3e,8,3,77,3,2,md,1.0,11.236,1,0.0
ldpc5n99w6gkzs6bp0s9ir3e,9,3,72,4,2,md,0.0,25.171,1,0.0
ldpc5n99w6gkzs6bp0s9ir3e,10,3,53,4,1,pd,1.0,20.286,1,0.0
ldpc5n99w6gkzs6bp0s9ir3e,11,3,14,5,1,pd,0.0,28.06,1,0.0
ldpc5n99w6gkzs6bp0s9ir3e,12,3,74,5,2,md,1.0,17.724,1,0.0
ldpc5n99w6gkzs6bp0s9ir3e,13,3,44,6,1,pd,0.0,27.145,1,0.0
ldpc5n99w6gkzs6bp0s9ir3e,14,3,64,6,2,md,0.0,26.714,1,0.0
ldpc5n99w6gkzs6bp0s9ir3e,15,3,21,7,1,pd,1.0,18.803,1,0.0
ldpc5n99w6gkzs6bp0s9ir3e,16,3,45,7,2,md,0.0,15.014,1,0.0
lhal8ik1dey46k0wqix8sosa,1,3,22,2,2,pd,1.0,8.176,1,0.0
lhal8ik1dey46k0wqix8sosa,2,3,25,2,1,md,1.0,7.683,1,0.0
lhal8ik1dey46k0wqix8sosa,3,3,65,2,1,md,1.0,5.272,1,0.0
lhal8ik1dey46k0wqix8sosa,4,3,51,2,2,pd,1.0,10.359,1,0.0
lhal8ik1dey46k0wqix8sosa,5,3,34,3,1,md,1.0,27.095,1,0.0
lhal8ik1dey46k0wqix8sosa,6,3,11,3,2,pd,1.0,27.807,1,0.0
lhal8ik1dey46k0wqix8sosa,7,3,16,4,1,md,1.0,10.067,1,0.0
lhal8ik1dey46k0wqix8sosa,8,3,56,3,2,pd,1.0,16.402,1,0.0
lhal8ik1dey46k0wqix8sosa,9,3,23,4,2,pd,1.0,6.563,1,0.0
lhal8ik1dey46k0wqix8sosa,10,3,60,4,1,md,1.0,27.928,1,0.0
lhal8ik1dey46k0wqix8sosa,11,3,67,5,1,md,1.0,12.048,1,0.0
lhal8ik1dey46k0wqix8sosa,12,3,26,5,2,pd,0.0,24.83,1,0.0
lhal8ik1dey46k0wqix8sosa,13,3,55,6,1,md,1.0,14.485,1,0.0
lhal8ik1dey46k0wqix8sosa,14,3,44,6,2,pd,0.0,26.084,1,0.0
lhal8ik1dey46k0wqix8sosa,15,3,29,7,2,pd,1.0,8.574,1,0.0
lhal8ik1dey46k0wqix8sosa,16,3,66,8,1,md,1.0,19.823,1,0.0
lne6b2sc369e77qndf805b3r,1,3,47,2,2,md,0.0,5.618,1,0.0
lne6b2sc369e77qndf805b3r,2,3,19,2,1,pd,1.0,10.269,1,0.0
lne6b2sc369e77qndf805b3r,3,3,65,2,2,md,1.0,14.168,1,0.0
lne6b2sc369e77qndf805b3r,4,3,61,2,1,pd,0.0,9.665,1,0.0
lne6b2sc369e77qndf805b3r,5,3,27,3,2,md,0.0,20.446,1,0.0
lne6b2sc369e77qndf805b3r,6,3,18,3,1,pd,1.0,21.121,1,0.0
lne6b2sc369e77qndf805b3r,7,3,56,3,1,pd,1.0,25.518,1,0.0
lne6b2sc369e77qndf805b3r,8,3,77,3,2,md,0.0,26.945,1,0.0
lne6b2sc369e77qndf805b3r,9,3,40,4,1,pd,0.0,12.474,1,0.0
