subject,trial,item_set,item,dimension,test_form,shape_set,distractor,choice,accuracy,rt,minimum_resolution,browser_interactions
01b653iwjusnxf359qk7596t,1,3,22,2,1,3,pd,0.0,1.0,6.088,1,0.0
01b653iwjusnxf359qk7596t,2,3,28,2,2,2,md,0.0,1.0,12.884,1,0.0
01b653iwjusnxf359qk7596t,3,3,70,2,2,2,md,0.0,1.0,7.699,1,0.0
01b653iwjusnxf359qk7596t,4,3,51,2,1,2,pd,0.0,1.0,9.247,1,0.0
01b653iwjusnxf359qk7596t,5,3,11,3,1,1,pd,3.0,0.0,6.396,1,0.0
01b653iwjusnxf359qk7596t,6,3,31,3,2,2,md,1.0,0.0,10.662,1,0.0
01b653iwjusnxf359qk7596t,7,3,17,4,2,3,md,2.0,0.0,13.843,1,0.0
01b653iwjusnxf359qk7596t,8,3,62,3,1,1,pd,0.0,1.0,11.4,1,0.0
01b653iwjusnxf359qk7596t,9,3,42,4,1,2,pd,1.0,0.0,16.601,1,0.0
01b653iwjusnxf359qk7596t,10,3,60,4,2,1,md,0.0,1.0,18.384,1,0.0
01b653iwjusnxf359qk7596t,11,3,52,5,1,3,pd,0.0,1.0,24.616,1,0.0
01b653iwjusnxf359qk7596t,12,3,63,5,2,1,md,3.0,0.0,19.049,1,0.0
01b653iwjusnxf359qk7596t,13,3,46,6,1,3,pd,0.0,1.0,10.405,1,0.0
01b653iwjusnxf359qk7596t,14,3,54,6,2,1,md,3.0,0.0,13.536,1,0.0
01b653iwjusnxf359qk7596t,15,3,78,7,2,1,md,3.0,0.0,28.942,1,0.0
01b653iwjusnxf359qk7596t,16,3,30,7,1,2,pd,0.0,1.0,16.371,1,0.0
020ngoo3mx8enry0p43zo2a2,1,3,39,2,3,3,md,0.0,1.0,9.036,1,0.0
020ngoo3mx8enry0p43zo2a2,2,3,22,2,3,1,pd,0.0,1.0,9.507,1,0.0
020ngoo3mx8enry0p43zo2a2,3,3,65,2,3,2,md,0.0,1.0,8.028,1,0.0
020ngoo3mx8enry0p43zo2a2,4,3,61,2,3,1,md,0.0,1.0,13.844,1,0.0
020ngoo3mx8enry0p43zo2a2,5,3,18,3,3,3,md,3.0,0.0,14.8,1,0.0
020ngoo3mx8enry0p43zo2a2,6,3,34,3,3,1,pd,0.0,1.0,17.586,1,0.0
020ngoo3mx8enry0p43zo2a2,7,3,58,3,3,1,md,0.0,1.0,25.224,1,0.0
020ngoo3mx8enry0p43zo2a2,8,3,16,4,3,1,pd,0.0,1.0,7.35,1,0.0
020ngoo3mx8enry0p43zo2a2,9,3,23,4,3,2,pd,0.0,1.0,7.409,1,0.0
020ngoo3mx8enry0p43zo2a2,10,3,79,4,3,1,md,3.0,0.0,21.499,1,0.0
020ngoo3mx8enry0p43zo2a2,11,3,52,5,3,1,md,2.0,0.0,14.604,1,0.0
020ngoo3mx8enry0p43zo2a2,12,3,59,5,3,2,md,0.0,1.0,17.168,1,0.0
020ngoo3mx8enry0p43zo2a2,13,3,64,6,3,1,md,0.0,1.0,17.636,1,0.0
020ngoo3mx8enry0p43zo2a2,14,3,76,5,3,1,pd,3.0,0.0,9.442,1,0.0
020ngoo3mx8enry0p43zo2a2,15,3,30,7,3,3,md,0.0,1.0,14.014,1,0.0
020ngoo3mx8enry0p43zo2a2,16,3,35,8,3,2,md,0.0,1.0,22.771,1,0.0
0374obg53yvd969wid8t8a71,1,3,25,2,2,2,pd,0.0,1.0,6.812,1,0.0
0374obg53yvd969wid8t8a71,2,3,22,2,1,3,md,0.0,1.0,13.089,1,0.0
0374obg53yvd969wid8t8a71,3,3,71,2,2,3,pd,0.0,1.0,8.169,1,0.0
0374obg53yvd969wid8t8a71,4,3,49,2,1,3,md,0.0,1.0,10.797,1,0.0
0374obg53yvd969wid8t8a71,5,3,11,3,1,1,md,,,,1,0.0
0374obg53yvd969wid8t8a71,6,3,34,3,2,2,pd,0.0,1.0,14.444,1,0.0
0374obg53yvd969wid8t8a71,7,3,77,3,2,3,pd,2.0,0.0,24.825,1,0.0
0374obg53yvd969wid8t8a71,8,3,58,3,1,3,md,0.0,1.0,10.796,1,0.0
0374obg53yvd969wid8t8a71,9,3,79,4,2,2,pd,0.0,1.0,24.34,1,0.0
0374obg53yvd969wid8t8a71,10,3,40,4,1,3,md,0.0,1.0,14.471,1,0.0
0374obg53yvd969wid8t8a71,11,3,14,5,1,1,md,0.0,1.0,12.093,1,0.0
0374obg53yvd969wid8t8a71,12,3,63,5,2,1,pd,0.0,1.0,10.789,1,0.0
0374obg53yvd969wid8t8a71,13,3,54,6,2,1,pd,0.0,1.0,18.407,1,0.0
0374obg53yvd969wid8t8a71,14,3,44,6,1,1,md,0.0,1.0,10.62,1,0.0
0374obg53yvd969wid8t8a71,15,3,35,8,2,3,pd,0.0,1.0,12.195,1,0.0
0374obg53yvd969wid8t8a71,16,3,29,7,1,1,md,1.0,0.0,16.757,1,0.0
03i65ytrhnqf85c2lvnzb2ov,1,3,28,2,1,3,md,1.0,0.0,4.405,1,0.0
03i65ytrhnqf85c2lvnzb2ov,2,3,20,2,2,3,pd,0.0,1.0,3.59,1,0.0
03i65ytrhnqf85c2lvnzb2ov,3,3,61,2,2,2,pd,0.0,1.0,4.112,1,0.0
03i65ytrhnqf85c2lvnzb2ov,4,3,70,2,1,3,md,0.0,1.0,6.953,1,0.0
03i65ytrhnqf85c2lvnzb2ov,5,3,15,3,2,1,pd,0.0,1.0,5.666,1,0.0
03i65ytrhnqf85c2lvnzb2ov,6,3,34,3,1,3,md,2.0,0.0,6.97,1,0.0
03i65ytrhnqf85c2lvnzb2ov,7,3,77,3,1,1,md,0.0,1.0,9.575,1,0.0
03i65ytrhnqf85c2lvnzb2ov,8,3,69,3,2,1,pd,0.0,1.0,7.247,1,0.0
03i65ytrhnqf85c2lvnzb2ov,9,3,72,4,1,2,md,1.0,0.0,6.772,1,0.0
03i65ytrhnqf85c2lvnzb2ov,10,3,42,4,2,1,pd,0.0,1.0,13.082,1,0.0
03i65ytrhnqf85c2lvnzb2ov,11,3,52,5,2,2,pd,3.0,0.0,9.005,1,0.0
03i65ytrhnqf85c2lvnzb2ov,12,3,59,5,1,1,md,0.0,1.0,12.913,1,0.0
03i65ytrhnqf85c2lvnzb2ov,13,3,54,6,1,2,md,3.0,0.0,9.026,1,0.0
03i65ytrhnqf85c2lvnzb2ov,14,3,76,5,2,2,pd,0.0,1.0,8.704,1,0.0
03i65ytrhnqf85c2lvnzb2ov,15,3,45,7,1,2,md,3.0,0.0,6.194,1,0.0
03i65ytrhnqf85c2lvnzb2ov,16,3,29,7,2,3,pd,2.0,0.0,8.004,1,0.0
03kchft085vfxle00q8hevgc,1,3,39,2,3,3,md,0.0,1.0,9.567,1,0.0
03kchft085vfxle00q8hevgc,2,3,19,2,3,1,md,0.0,1.0,4.468,1,0.0
03kchft085vfxle00q8hevgc,3,3,50,2,3,2,md,0.0,1.0,10.462,1,0.0
03kchft085vfxle00q8hevgc,4,3,10,3,3,1,pd,0.0,1.0,15.342,1,0.0
03kchft085vfxle00q8hevgc,5,3,11,3,3,2,md,0.0,1.0,17.048,1,0.0
03kchft085vfxle00q8hevgc,6,3,37,3,3,1,md,1.0,0.0,8.145,1,0.0
03kchft085vfxle00q8hevgc,7,3,58,3,3,1,pd,0.0,1.0,7.981,1,0.0
03kchft085vfxle00q8hevgc,8,3,17,4,3,2,md,3.0,0.0,20.697,1,0.0
03kchft085vfxle00q8hevgc,9,3,73,4,3,1,pd,0.0,1.0,11.128,1,0.0
03kchft085vfxle00q8hevgc,10,3,40,4,3,1,pd,0.0,1.0,9.367,1,0.0
03kchft085vfxle00q8hevgc,11,3,80,4,3,2,md,2.0,0.0,9.922,1,0.0
03kchft085vfxle00q8hevgc,12,3,59,5,3,2,pd,0.0,1.0,20.774,1,0.0
03kchft085vfxle00q8hevgc,13,3,44,6,3,2,md,2.0,0.0,9.052,1,0.0
03kchft085vfxle00q8hevgc,14,3,75,6,3,3,md,2.0,0.0,10.525,1,0.0
03kchft085vfxle00q8hevgc,15,3,29,7,3,2,pd,0.0,1.0,10.571,1,0.0
03kchft085vfxle00q8hevgc,16,3,35,8,3,2,pd,0.0,1.0,10.678,1,0.0
04ztrq5buvo8zbw7gxrwd722,1,3,28,2,3,1,pd,1.0,0.0,4.545,1,0.0
04ztrq5buvo8zbw7gxrwd722,2,3,6,2,3,3,md,1.0,0.0,10.149,1,0.0
04ztrq5buvo8zbw7gxrwd722,3,3,49,2,3,1,md,2.0,0.0,4.893,1,0.0
04ztrq5buvo8zbw7gxrwd722,4,3,70,2,3,1,pd,0.0,1.0,7.516,1,0.0
04ztrq5buvo8zbw7gxrwd722,5,3,11,3,3,2,pd,0.0,1.0,11.051,1,0.0
04ztrq5buvo8zbw7gxrwd722,6,3,31,3,3,1,pd,3.0,0.0,5.513,1,0.0
04ztrq5buvo8zbw7gxrwd722,7,3,58,3,3,1,md,1.0,0.0,14.409,1,0.0
04ztrq5buvo8zbw7gxrwd722,8,3,16,4,3,1,pd,1.0,0.0,2.434,1,0.0
04ztrq5buvo8zbw7gxrwd722,9,3,60,4,3,3,pd,3.0,0.0,2.165,1,0.0
04ztrq5buvo8zbw7gxrwd722,10,3,42,4,3,3,pd,2.0,0.0,8.605,1,0.0
04ztrq5buvo8zbw7gxrwd722,11,3,14,5,3,2,md,1.0,0.0,2.7,1,0.0
04ztrq5buvo8zbw7gxrwd722,12,3,74,5,3,2,pd,3.0,0.0,2.486,1,0.0
04ztrq5buvo8zbw7gxrwd722,13,3,36,6,3,3,md,2.0,0.0,3.826,1,0.0
04ztrq5buvo8zbw7gxrwd722,14,3,54,6,3,3,md,3.0,0.0,6.573,1,0.0
04ztrq5buvo8zbw7gxrwd722,15,3,29,7,3,2,md,1.0,0.0,4.772,1,0.0
04ztrq5buvo8zbw7gxrwd722,16,3,66,8,3,3,md,2.0,0.0,8.364,1,0.0
06hmew4su9ph9i5gigwdmwr4,1,3,47,2,2,3,md,1.0,0.0,15.821,1,0.0
06hmew4su9ph9i5gigwdmwr4,2,3,20,2,1,1,pd,0.0,1.0,8.242,1,0.0
06hmew4su9ph9i5gigwdmwr4,3,3,50,2,1,1,pd,2.0,0.0,13.718,1,0.0
06hmew4su9ph9i5gigwdmwr4,4,3,71,2,2,3,md,0.0,1.0,10.712,1,0.0
06hmew4su9ph9i5gigwdmwr4,5,3,34,3,2,2,md,0.0,1.0,11.69,1,0.0
06hmew4su9ph9i5gigwdmwr4,6,3,15,3,1,2,pd,0.0,1.0,15.769,1,0.0
06hmew4su9ph9i5gigwdmwr4,7,3,16,4,2,2,md,0.0,1.0,5.421,1,0.0
06hmew4su9ph9i5gigwdmwr4,8,3,56,3,1,1,pd,0.0,1.0,8.835,1,0.0
06hmew4su9ph9i5gigwdmwr4,9,3,60,4,2,1,md,0.0,1.0,18.137,1,0.0
06hmew4su9ph9i5gigwdmwr4,10,3,40,4,1,3,pd,0.0,1.0,15.653,1,0.0
06hmew4su9ph9i5gigwdmwr4,11,3,59,5,2,3,md,3.0,0.0,24.939,1,0.0
06hmew4su9ph9i5gigwdmwr4,12,3,52,5,1,3,pd,0.0,1.0,17.967,1,0.0
06hmew4su9ph9i5gigwdmwr4,13,3,64,6,2,2,md,0.0,1.0,28.605,1,0.0
06hmew4su9ph9i5gigwdmwr4,14,3,44,6,1,1,pd,0.0,1.0,13.894,1,0.0
06hmew4su9ph9i5gigwdmwr4,15,3,35,8,2,3,md,0.0,1.0,23.969,1,0.0
06hmew4su9ph9i5gigwdmwr4,16,3,29,7,1,1,pd,0.0,1.0,11.687,1,0.0
06ul9f2coolrse6pnzjrdmbc,1,3,25,2,1,3,pd,0.0,1.0,23.86,1,0.0
06ul9f2coolrse6pnzjrdmbc,2,3,22,2,2,2,md,0.0,1.0,25.005,1,0.0
06ul9f2coolrse6pnzjrdmbc,3,3,70,2,1,3,pd,0.0,1.0,5.426,1,0.0
06ul9f2coolrse6pnzjrdmbc,4,3,50,2,2,3,md,0.0,1.0,15.671,1,0.0
06ul9f2coolrse6pnzjrdmbc,5,3,31,3,1,3,pd,0.0,1.0,16.151,1,0.0
06ul9f2coolrse6pnzjrdmbc,6,3,11,3,2,3,md,0.0,1.0,18.734,1,0.0
06ul9f2coolrse6pnzjrdmbc,7,3,56,3,2,3,md,2.0,0.0,24.426,1,0.0
06ul9f2coolrse6pnzjrdmbc,8,3,17,4,1,1,pd,0.0,1.0,28.964,1,0.0
06ul9f2coolrse6pnzjrdmbc,9,3,73,4,1,3,pd,0.0,1.0,29.816,1,0.0
06ul9f2coolrse6pnzjrdmbc,10,3,53,4,2,3,md,3.0,0.0,28.759,1,0.0
06ul9f2coolrse6pnzjrdmbc,11,3,80,4,2,3,md,0.0,1.0,18.788,1,0.0
06ul9f2coolrse6pnzjrdmbc,12,3,67,5,1,3,pd,0.0,1.0,13.813,1,0.0
06ul9f2coolrse6pnzjrdmbc,13,3,55,6,1,3,pd,0.0,1.0,9.877,1,0.0
06ul9f2coolrse6pnzjrdmbc,14,3,46,6,2,2,md,1.0,0.0,27.552,1,0.0
06ul9f2coolrse6pnzjrdmbc,15,3,24,7,2,1,md,0.0,1.0,21.461,1,0.0
06ul9f2coolrse6pnzjrdmbc,16,3,78,7,1,2,pd,1.0,0.0,23.152,1,0.0
08p6c81b1uflp82myo5nw9dl,1,3,19,2,1,3,md,0.0,1.0,5.003,1,0.0
08p6c81b1uflp82myo5nw9dl,2,3,25,2,2,2,pd,0.0,1.0,11.512,1,0.0
08p6c81b1uflp82myo5nw9dl,3,3,70,2,2,2,pd,0.0,1.0,6.023,1,0.0
08p6c81b1uflp82myo5nw9dl,4,3,61,2,1,3,md,0.0,1.0,16.316,1,0.0
08p6c81b1uflp82myo5nw9dl,5,3,27,3,2,1,pd,3.0,0.0,25.588,1,0.0
08p6c81b1uflp82myo5nw9dl,6,3,18,3,1,2,md,3.0,0.0,23.023,1,0.0
08p6c81b1uflp82myo5nw9dl,7,3,16,4,2,2,pd,0.0,1.0,11.929,1,0.0
08p6c81b1uflp82myo5nw9dl,8,3,69,3,1,2,md,0.0,1.0,27.643,1,0.0
08p6c81b1uflp82myo5nw9dl,9,3,42,4,1,2,md,3.0,0.0,18.948,1,0.0
08p6c81b1uflp82myo5nw9dl,10,3,60,4,2,1,pd,,,,1,0.0
08p6c81b1uflp82myo5nw9dl,11,3,63,5,2,1,pd,2.0,0.0,25.835,1,0.0
08p6c81b1uflp82myo5nw9dl,12,3,26,5,1,1,md,2.0,0.0,28.712,1,0.0
08p6c81b1uflp82myo5nw9dl,13,3,36,6,1,2,md,2.0,0.0,27.733,1,0.0
08p6c81b1uflp82myo5nw9dl,14,3,54,6,2,1,pd,0.0,1.0,15.459,1,0.0
08p6c81b1uflp82myo5nw9dl,15,3,35,8,2,3,pd,0.0,1.0,22.346,1,0.0
08p6c81b1uflp82myo5nw9dl,16,3,29,7,1,1,md,0.0,1.0,22.3,1,0.0
0989ahmna9dulp8bxcoynys0,1,3,28,2,1,3,md,0.0,1.0,22.487,1,0.0
0989ahmna9dulp8bxcoynys0,2,3,20,2,2,3,pd,0.0,1.0,11.017,1,0.0
0989ahmna9dulp8bxcoynys0,3,3,10,3,1,3,md,0.0,1.0,8.439,1,0.0
0989ahmna9dulp8bxcoynys0,4,3,50,2,2,3,pd,0.0,1.0,13.573,1,0.0
0989ahmna9dulp8bxcoynys0,5,3,18,3,2,1,pd,0.0,1.0,12.865,1,0.0
0989ahmna9dulp8bxcoynys0,6,3,31,3,1,3,md,1.0,0.0,18.566,1,0.0
0989ahmna9dulp8bxcoynys0,7,3,77,3,1,1,md,2.0,0.0,9.984,1,0.0
0989ahmna9dulp8bxcoynys0,8,3,69,3,2,1,pd,0.0,1.0,7.65,1,0.0
0989ahmna9dulp8bxcoynys0,9,3,42,4,2,1,pd,0.0,1.0,11.727,1,0.0
0989ahmna9dulp8bxcoynys0,10,3,60,4,1,2,md,0.0,1.0,19.926,1,0.0
0989ahmna9dulp8bxcoynys0,11,3,59,5,1,1,md,1.0,0.0,11.816,1,0.0
0989ahmna9dulp8bxcoynys0,12,3,52,5,2,2,pd,0.0,1.0,9.256,1,0.0
0989ahmna9dulp8bxcoynys0,13,3,44,6,2,3,pd,3.0,0.0,12.738,1,0.0
0989ahmna9dulp8bxcoynys0,14,3,64,6,1,3,md,3.0,0.0,18.426,1,0.0
0989ahmna9dulp8bxcoynys0,15,3,24,7,2,1,pd,3.0,0.0,8.562,1,0.0
0989ahmna9dulp8bxcoynys0,16,3,45,7,1,2,md,0.0,1.0,10.813,1,0.0
09z2vn6x4jqtxcpa4wabvkl9,1,3,28,2,2,2,md,0.0,1.0,6.964,1,0.0
09z2vn6x4jqtxcpa4wabvkl9,2,3,6,2,3,3,pd,1.0,0.0,3.893,1,0.0
09z2vn6x4jqtxcpa4wabvkl9,3,3,49,2,1,3,md,0.0,1.0,8.422,1,0.0
09z2vn6x4jqtxcpa4wabvkl9,4,3,70,2,1,3,md,2.0,0.0,8.521,1,0.0
09z2vn6x4jqtxcpa4wabvkl9,5,3,11,3,2,3,md,3.0,0.0,11.427,1,0.0
09z2vn6x4jqtxcpa4wabvkl9,6,3,31,3,1,3,md,2.0,0.0,7.061,1,0.0
09z2vn6x4jqtxcpa4wabvkl9,7,3,58,3,1,3,pd,0.0,1.0,6.397,1,0.0
09z2vn6x4jqtxcpa4wabvkl9,8,3,77,3,2,3,md,2.0,0.0,10.694,1,0.0
09z2vn6x4jqtxcpa4wabvkl9,9,3,42,4,2,1,pd,3.0,0.0,9.122,1,0.0
09z2vn6x4jqtxcpa4wabvkl9,10,3,79,4,3,1,md,0.0,1.0,16.95,1,0.0
09z2vn6x4jqtxcpa4wabvkl9,11,3,52,5,2,2,md,0.0,1.0,1.925,1,0.0
09z2vn6x4jqtxcpa4wabvkl9,12,3,74,5,1,1,pd,1.0,0.0,7.149,1,0.0
09z2vn6x4jqtxcpa4wabvkl9,13,3,55,6,3,1,pd,0.0,1.0,2.791,1,0.0
09z2vn6x4jqtxcpa4wabvkl9,14,3,46,6,2,2,pd,0.0,1.0,9.793,1,0.0
09z2vn6x4jqtxcpa4wabvkl9,15,3,35,8,3,2,md,3.0,0.0,6.524,1,0.0
09z2vn6x4jqtxcpa4wabvkl9,16,3,30,7,2,1,md,1.0,0.0,10.747,1,0.0
0cuzisrtq2cdt8h5b4myuyfg,1,3,22,2,2,2,md,0.0,1.0,13.291,1,0.0
0cuzisrtq2cdt8h5b4myuyfg,2,3,39,2,1,2,pd,0.0,1.0,24.172,1,0.0
0cuzisrtq2cdt8h5b4myuyfg,3,3,71,2,1,1,pd,0.0,1.0,8.643,1,0.0
0cuzisrtq2cdt8h5b4myuyfg,4,3,61,2,2,2,md,0.0,1.0,15.182,1,0.0
0cuzisrtq2cdt8h5b4myuyfg,5,3,15,3,2,1,md,0.0,1.0,17.036,1,0.0
0cuzisrtq2cdt8h5b4myuyfg,6,3,31,3,1,3,pd,0.0,1.0,16.609,1,0.0
0cuzisrtq2cdt8h5b4myuyfg,7,3,17,4,1,1,pd,0.0,1.0,16.016,1,0.0
0cuzisrtq2cdt8h5b4myuyfg,8,3,69,3,2,1,md,0.0,1.0,14.006,1,0.0
0cuzisrtq2cdt8h5b4myuyfg,9,3,53,4,2,3,md,1.0,0.0,28.493,1,0.0
0cuzisrtq2cdt8h5b4myuyfg,10,3,73,4,1,3,pd,0.0,1.0,15.33,1,0.0
0cuzisrtq2cdt8h5b4myuyfg,11,3,63,5,1,2,pd,0.0,1.0,26.183,1,0.0
0cuzisrtq2cdt8h5b4myuyfg,12,3,80,4,2,3,md,0.0,1.0,9.517,1,0.0
0cuzisrtq2cdt8h5b4myuyfg,13,3,76,5,2,2,md,0.0,1.0,23.596,1,0.0
0cuzisrtq2cdt8h5b4myuyfg,14,3,54,6,1,2,pd,0.0,1.0,14.402,1,0.0
0cuzisrtq2cdt8h5b4myuyfg,15,3,30,7,2,1,md,0.0,1.0,14.85,1,0.0
0cuzisrtq2cdt8h5b4myuyfg,16,3,45,7,1,2,pd,0.0,1.0,8.152,1,0.0
0d7vyax986bw0tujobabigaq,1,3,19,2,2,2,pd,0.0,1.0,19.788,1,0.0
0d7vyax986bw0tujobabigaq,2,3,47,2,1,1,pd,0.0,1.0,22.736,1,0.0
0d7vyax986bw0tujobabigaq,3,3,65,2,3,2,md,0.0,1.0,9.192,1,0.0
0d7vyax986bw0tujobabigaq,4,3,49,2,1,3,pd,0.0,1.0,12.1,1,0.0
0d7vyax986bw0tujobabigaq,5,3,34,3,2,2,md,1.0,0.0,21.073,1,0.0
0d7vyax986bw0tujobabigaq,6,3,15,3,2,1,pd,0.0,1.0,13.031,1,0.0
0d7vyax986bw0tujobabigaq,7,3,16,4,2,2,md,0.0,1.0,12.882,1,0.0
0d7vyax986bw0tujobabigaq,8,3,56,3,2,3,pd,0.0,1.0,17.27,1,0.0
0d7vyax986bw0tujobabigaq,9,3,40,4,1,3,md,3.0,0.0,11.169,1,0.0
0d7vyax986bw0tujobabigaq,10,3,72,4,3,3,pd,1.0,0.0,23.616,1,0.0
0d7vyax986bw0tujobabigaq,11,3,52,5,1,3,md,3.0,0.0,28.869,1,0.0
0d7vyax986bw0tujobabigaq,12,3,67,5,2,2,md,0.0,1.0,11.801,1,0.0
0d7vyax986bw0tujobabigaq,13,3,55,6,2,2,pd,0.0,1.0,6.166,1,0.0
0d7vyax986bw0tujobabigaq,14,3,76,5,2,2,md,3.0,0.0,28.179,1,0.0
0d7vyax986bw0tujobabigaq,15,3,78,7,1,2,pd,1.0,0.0,25.348,1,0.0
0d7vyax986bw0tujobabigaq,16,3,24,7,2,1,pd,0.0,1.0,11.391,1,0.0
0dmdpsattd2cjwk5msj6ija8,1,3,28,2,1,3,pd,1.0,0.0,19.137,1,0.0
0dmdpsattd2cjwk5msj6ija8,2,3,6,2,2,1,md,0.0,1.0,13.49,1,0.0
0dmdpsattd2cjwk5msj6ija8,3,3,65,2,3,2,pd,0.0,1.0,11.086,1,0.0
0dmdpsattd2cjwk5msj6ija8,4,3,51,2,1,2,md,0.0,1.0,28.517,1,0.0
0dmdpsattd2cjwk5msj6ija8,5,3,11,3,1,1,md,2.0,0.0,17.209,1,0.0
0dmdpsattd2cjwk5msj6ija8,6,3,31,3,1,3,md,0.0,1.0,23.184,1,0.0
0dmdpsattd2cjwk5msj6ija8,7,3,69,3,3,3,pd,,,,1,0.0
0dmdpsattd2cjwk5msj6ija8,8,3,77,3,1,1,md,,,,1,0.0
0dmdpsattd2cjwk5msj6ija8,9,3,72,4,2,1,md,1.0,0.0,17.769,1,0.0
0dmdpsattd2cjwk5msj6ija8,10,3,23,4,1,1,md,0.0,1.0,8.04,1,0.0
0dmdpsattd2cjwk5msj6ija8,11,3,67,5,2,2,md,0.0,1.0,12.442,1,0.0
0dmdpsattd2cjwk5msj6ija8,12,3,52,5,1,3,pd,,,,1,0.0
0dmdpsattd2cjwk5msj6ija8,13,3,54,6,1,2,md,3.0,0.0,18.146,1,0.0
0dmdpsattd2cjwk5msj6ija8,14,3,46,6,3,1,md,0.0,1.0,6.985,1,0.0
0dmdpsattd2cjwk5msj6ija8,15,3,29,7,1,1,md,0.0,1.0,8.934,1,0.0
0dmdpsattd2cjwk5msj6ija8,16,3,35,8,2,3,md,1.0,0.0,1.604,1,0.0
0frtfj0ch2iix4se6y6jeeol,1,3,39,2,3,3,md,0.0,1.0,29.082,1,0.0
0frtfj0ch2iix4se6y6jeeol,2,3,22,2,3,1,pd,0.0,1.0,24.717,1,0.0
0frtfj0ch2iix4se6y6jeeol,3,3,61,2,3,1,pd,0.0,1.0,18.581,1,0.0
0frtfj0ch2iix4se6y6jeeol,4,3,65,2,3,2,pd,1.0,0.0,24.327,1,0.0
0frtfj0ch2iix4se6y6jeeol,5,3,37,3,3,1,pd,2.0,0.0,27.531,1,0.0
0frtfj0ch2iix4se6y6jeeol,6,3,11,3,3,2,md,1.0,0.0,17.32,1,0.0
0frtfj0ch2iix4se6y6jeeol,7,3,58,3,3,1,pd,0.0,1.0,25.967,1,0.0
0frtfj0ch2iix4se6y6jeeol,8,3,16,4,3,1,pd,0.0,1.0,9.903,1,0.0
0frtfj0ch2iix4se6y6jeeol,9,3,79,4,3,1,md,3.0,0.0,27.356,1,0.0
0frtfj0ch2iix4se6y6jeeol,10,3,42,4,3,3,pd,0.0,1.0,28.295,1,0.0
0frtfj0ch2iix4se6y6jeeol,11,3,59,5,3,2,md,3.0,0.0,23.183,1,0.0
0frtfj0ch2iix4se6y6jeeol,12,3,80,4,3,2,md,1.0,0.0,23.963,1,0.0
0frtfj0ch2iix4se6y6jeeol,13,3,54,6,3,3,pd,2.0,0.0,10.504,1,0.0
0frtfj0ch2iix4se6y6jeeol,14,3,46,6,3,1,pd,2.0,0.0,26.348,1,0.0
0frtfj0ch2iix4se6y6jeeol,15,3,35,8,3,2,pd,0.0,1.0,12.608,1,0.0
0frtfj0ch2iix4se6y6jeeol,16,3,29,7,3,2,md,0.0,1.0,9.798,1,0.0
0fselly2tqqo5o2nhqub0t9c,1,3,25,2,2,2,md,0.0,1.0,6.995,1,0.0
0fselly2tqqo5o2nhqub0t9c,2,3,6,2,1,2,md,0.0,1.0,11.757,1,0.0
0fselly2tqqo5o2nhqub0t9c,3,3,50,2,1,1,pd,0.0,1.0,6.499,1,0.0
0fselly2tqqo5o2nhqub0t9c,4,3,10,3,2,2,md,0.0,1.0,11.467,1,0.0
0fselly2tqqo5o2nhqub0t9c,5,3,37,3,2,2,md,1.0,0.0,27.636,1,0.0
0fselly2tqqo5o2nhqub0t9c,6,3,18,3,1,2,md,2.0,0.0,17.443,1,0.0
0fselly2tqqo5o2nhqub0t9c,7,3,69,3,1,2,pd,0.0,1.0,5.957,1,0.0
0fselly2tqqo5o2nhqub0t9c,8,3,17,4,2,3,pd,0.0,1.0,19.675,1,0.0
0fselly2tqqo5o2nhqub0t9c,9,3,53,4,1,1,pd,0.0,1.0,18.86,1,0.0
0fselly2tqqo5o2nhqub0t9c,10,3,73,4,2,2,md,0.0,1.0,28.25,1,0.0
0fselly2tqqo5o2nhqub0t9c,11,3,26,5,1,1,md,0.0,1.0,20.871,1,0.0
0fselly2tqqo5o2nhqub0t9c,12,3,67,5,2,2,md,0.0,1.0,12.001,1,0.0
0fselly2tqqo5o2nhqub0t9c,13,3,75,6,2,1,pd,2.0,0.0,24.634,1,0.0
0fselly2tqqo5o2nhqub0t9c,14,3,44,6,1,1,pd,0.0,1.0,9.901,1,0.0
0fselly2tqqo5o2nhqub0t9c,15,3,45,7,2,1,md,0.0,1.0,9.696,1,0.0
0fselly2tqqo5o2nhqub0t9c,16,3,30,7,1,2,md,0.0,1.0,11.976,1,0.0
0hxfk9on8ydkw3anrzsq443m,1,3,20,2,3,2,pd,1.0,0.0,3.756,1,0.0
0hxfk9on8ydkw3anrzsq443m,2,3,25,2,3,1,pd,0.0,1.0,8.123,1,0.0
0hxfk9on8ydkw3anrzsq443m,3,3,49,2,2,2,md,0.0,1.0,8.146,1,0.0
0hxfk9on8ydkw3anrzsq443m,4,3,65,2,2,3,md,1.0,0.0,10.579,1,0.0
0hxfk9on8ydkw3anrzsq443m,5,3,18,3,3,3,pd,0.0,1.0,11.1,1,0.0
0hxfk9on8ydkw3anrzsq443m,6,3,37,3,1,3,pd,3.0,0.0,11.021,1,0.0
0hxfk9on8ydkw3anrzsq443m,7,3,56,3,2,3,pd,0.0,1.0,3.707,1,0.0
0hxfk9on8ydkw3anrzsq443m,8,3,12,4,3,3,md,2.0,0.0,7.156,1,0.0
0hxfk9on8ydkw3anrzsq443m,9,3,79,4,3,1,md,3.0,0.0,12.62,1,0.0
0hxfk9on8ydkw3anrzsq443m,10,3,40,4,2,2,md,0.0,1.0,12.291,1,0.0
0hxfk9on8ydkw3anrzsq443m,11,3,14,5,3,2,pd,1.0,0.0,10.644,1,0.0
0hxfk9on8ydkw3anrzsq443m,12,3,59,5,1,1,md,0.0,1.0,5.533,1,0.0
0hxfk9on8ydkw3anrzsq443m,13,3,54,6,3,3,md,1.0,0.0,12.386,1,0.0
0hxfk9on8ydkw3anrzsq443m,14,3,44,6,3,2,pd,2.0,0.0,10.132,1,0.0
0hxfk9on8ydkw3anrzsq443m,15,3,78,7,3,3,pd,3.0,0.0,11.876,1,0.0
0hxfk9on8ydkw3anrzsq443m,16,3,29,7,2,3,md,0.0,1.0,9.372,1,0.0
0ixrlwqe1unq6l5jn12xio6v,1,3,19,2,3,1,md,0.0,1.0,14.029,1,0.0
0ixrlwqe1unq6l5jn12xio6v,2,3,39,2,3,3,pd,0.0,1.0,18.538,1,0.0
0ixrlwqe1unq6l5jn12xio6v,3,3,61,2,3,1,md,0.0,1.0,18.536,1,0.0
0ixrlwqe1unq6l5jn12xio6v,4,3,71,2,3,2,pd,0.0,1.0,12.815,1,0.0
0ixrlwqe1unq6l5jn12xio6v,5,3,18,3,3,3,pd,0.0,1.0,18.155,1,0.0
0ixrlwqe1unq6l5jn12xio6v,6,3,37,3,3,1,md,1.0,0.0,24.541,1,0.0
0ixrlwqe1unq6l5jn12xio6v,7,3,16,4,3,1,md,0.0,1.0,15.601,1,0.0
0ixrlwqe1unq6l5jn12xio6v,8,3,69,3,3,3,pd,0.0,1.0,10.357,1,0.0
0ixrlwqe1unq6l5jn12xio6v,9,3,42,4,3,3,md,2.0,0.0,25.496,1,0.0
0ixrlwqe1unq6l5jn12xio6v,10,3,73,4,3,1,md,0.0,1.0,18.683,1,0.0
0ixrlwqe1unq6l5jn12xio6v,11,3,52,5,3,1,md,2.0,0.0,26.452,1,0.0
0ixrlwqe1unq6l5jn12xio6v,12,3,63,5,3,3,pd,1.0,0.0,18.048,1,0.0
0ixrlwqe1unq6l5jn12xio6v,13,3,75,6,3,3,md,2.0,0.0,26.627,1,0.0
0ixrlwqe1unq6l5jn12xio6v,14,3,76,5,3,1,pd,2.0,0.0,18.692,1,0.0
0ixrlwqe1unq6l5jn12xio6v,15,3,45,7,3,3,md,0.0,1.0,18.603,1,0.0
0ixrlwqe1unq6l5jn12xio6v,16,3,30,7,3,3,md,3.0,0.0,20.649,1,0.0
0k9ph5p70zb8x7iugjdl96mt,1,3,19,2,1,3,pd,0.0,1.0,12.433,1,0.0
0k9ph5p70zb8x7iugjdl96mt,2,3,28,2,2,2,md,,,,1,0.0
0k9ph5p70zb8x7iugjdl96mt,3,3,65,2,2,3,md,0.0,1.0,20.606,1,0.0
0k9ph5p70zb8x7iugjdl96mt,4,3,61,2,1,3,pd,2.0,0.0,22.49,1,0.0
0k9ph5p70zb8x7iugjdl96mt,5,3,37,3,2,2,md,1.0,0.0,14.769,1,0.0
0k9ph5p70zb8x7iugjdl96mt,6,3,13,3,1,3,pd,1.0,0.0,25.594,1,0.0
0k9ph5p70zb8x7iugjdl96mt,7,3,16,4,2,2,md,3.0,0.0,29.014,1,0.0
0k9ph5p70zb8x7iugjdl96mt,8,3,58,3,1,3,pd,3.0,0.0,29.285,1,0.0
0k9ph5p70zb8x7iugjdl96mt,9,3,72,4,2,1,md,3.0,0.0,24.796,1,0.0
0k9ph5p70zb8x7iugjdl96mt,10,3,40,4,1,3,pd,1.0,0.0,22.895,1,0.0
0k9ph5p70zb8x7iugjdl96mt,11,3,80,4,1,1,pd,0.0,1.0,18.958,1,0.0
0k9ph5p70zb8x7iugjdl96mt,12,3,67,5,2,2,md,2.0,0.0,28.384,1,0.0
0k9ph5p70zb8x7iugjdl96mt,13,3,36,6,1,2,pd,1.0,0.0,11.537,1,0.0
0k9ph5p70zb8x7iugjdl96mt,14,3,64,6,2,2,md,,,,1,0.0
0k9ph5p70zb8x7iugjdl96mt,15,3,21,7,1,2,pd,0.0,1.0,4.506,1,0.0
0k9ph5p70zb8x7iugjdl96mt,16,3,66,8,2,1,md,3.0,0.0,6.348,1,0.0
0lbef3rih04hlz20mpmkmfaq,1,3,39,2,2,1,md,0.0,1.0,22.652,1,0.0
0lbef3rih04hlz20mpmkmfaq,2,3,6,2,1,2,pd,0.0,1.0,27.238,1,0.0
0lbef3rih04hlz20mpmkmfaq,3,3,10,3,2,2,md,2.0,0.0,23.181,1,0.0
0lbef3rih04hlz20mpmkmfaq,4,3,51,2,1,2,pd,0.0,1.0,22.441,1,0.0
0lbef3rih04hlz20mpmkmfaq,5,3,11,3,1,1,pd,0.0,1.0,28.447,1,0.0
0lbef3rih04hlz20mpmkmfaq,6,3,34,3,2,2,md,3.0,0.0,18.415,1,0.0
0lbef3rih04hlz20mpmkmfaq,7,3,58,3,1,3,pd,0.0,1.0,17.752,1,0.0
0lbef3rih04hlz20mpmkmfaq,8,3,16,4,2,2,md,0.0,1.0,16.238,1,0.0
0lbef3rih04hlz20mpmkmfaq,9,3,53,4,1,1,pd,0.0,1.0,27.855,1,0.0
0lbef3rih04hlz20mpmkmfaq,10,3,72,4,2,1,md,1.0,0.0,28.957,1,0.0
0lbef3rih04hlz20mpmkmfaq,11,3,74,5,2,3,md,0.0,1.0,27.739,1,0.0
0lbef3rih04hlz20mpmkmfaq,12,3,80,4,1,1,pd,3.0,0.0,25.668,1,0.0
0lbef3rih04hlz20mpmkmfaq,13,3,64,6,2,2,md,3.0,0.0,21.597,1,0.0
0lbef3rih04hlz20mpmkmfaq,14,3,36,6,1,2,pd,1.0,0.0,24.27,1,0.0
0lbef3rih04hlz20mpmkmfaq,15,3,29,7,1,1,pd,0.0,1.0,12.081,1,0.0
0lbef3rih04hlz20mpmkmfaq,16,3,66,8,2,1,md,3.0,0.0,24.102,1,0.0
0mifm1lzbxnc43588vf8k0ws,1,3,22,2,2,2,md,0.0,1.0,14.471,1,0.0
0mifm1lzbxnc43588vf8k0ws,2,3,47,2,1,1,pd,0.0,1.0,20.6,1,0.0
0mifm1lzbxnc43588vf8k0ws,3,3,65,2,1,1,pd,1.0,0.0,11.78,1,0.0
0mifm1lzbxnc43588vf8k0ws,4,3,51,2,2,1,md,0.0,1.0,7.246,1,0.0
0mifm1lzbxnc43588vf8k0ws,5,3,31,3,1,3,pd,3.0,0.0,14.944,1,0.0
0mifm1lzbxnc43588vf8k0ws,6,3,18,3,2,1,md,3.0,0.0,17.789,1,0.0
0mifm1lzbxnc43588vf8k0ws,7,3,56,3,2,3,md,0.0,1.0,16.102,1,0.0
0mifm1lzbxnc43588vf8k0ws,8,3,12,4,1,2,pd,1.0,0.0,17.269,1,0.0
0mifm1lzbxnc43588vf8k0ws,9,3,53,4,2,3,md,1.0,0.0,11.457,1,0.0
0mifm1lzbxnc43588vf8k0ws,10,3,79,4,1,3,pd,0.0,1.0,14.879,1,0.0
0mifm1lzbxnc43588vf8k0ws,11,3,26,5,2,3,md,1.0,0.0,7.412,1,0.0
0mifm1lzbxnc43588vf8k0ws,12,3,63,5,1,2,pd,3.0,0.0,14.38,1,0.0
0mifm1lzbxnc43588vf8k0ws,13,3,46,6,2,2,md,1.0,0.0,6.066,1,0.0
0mifm1lzbxnc43588vf8k0ws,14,3,64,6,1,3,pd,0.0,1.0,4.108,1,0.0
0mifm1lzbxnc43588vf8k0ws,15,3,66,8,1,2,pd,2.0,0.0,11.403,1,0.0
0mifm1lzbxnc43588vf8k0ws,16,3,21,7,2,1,md,2.0,0.0,11.775,1,0.0
0n91rxt1ol43n7ew9cz55zj3,1,3,20,2,2,3,pd,0.0,1.0,15.514,1,0.0
0n91rxt1ol43n7ew9cz55zj3,2,3,39,2,3,3,md,2.0,0.0,12.458,1,0.0
0n91rxt1ol43n7ew9cz55zj3,3,3,50,2,3,2,md,0.0,1.0,6.256,1,0.0
0n91rxt1ol43n7ew9cz55zj3,4,3,71,2,2,3,md,0.0,1.0,10.953,1,0.0
0n91rxt1ol43n7ew9cz55zj3,5,3,37,3,3,1,md,2.0,0.0,25.581,1,0.0
0n91rxt1ol43n7ew9cz55zj3,6,3,15,3,1,2,pd,0.0,1.0,19.744,1,0.0
0n91rxt1ol43n7ew9cz55zj3,7,3,69,3,1,2,md,0.0,1.0,26.031,1,0.0
0n91rxt1ol43n7ew9cz55zj3,8,3,12,4,1,2,pd,1.0,0.0,19.865,1,0.0
0n91rxt1ol43n7ew9cz55zj3,9,3,73,4,3,1,pd,0.0,1.0,23.359,1,0.0
0n91rxt1ol43n7ew9cz55zj3,10,3,40,4,2,2,pd,0.0,1.0,20.284,1,0.0
0n91rxt1ol43n7ew9cz55zj3,11,3,67,5,2,2,md,0.0,1.0,13.906,1,0.0
0n91rxt1ol43n7ew9cz55zj3,12,3,80,4,2,3,pd,0.0,1.0,28.882,1,0.0
0n91rxt1ol43n7ew9cz55zj3,13,3,44,6,2,3,md,0.0,1.0,28.035,1,2.0
0n91rxt1ol43n7ew9cz55zj3,14,3,75,6,3,3,pd,0.0,1.0,11.884,1,0.0
0n91rxt1ol43n7ew9cz55zj3,15,3,24,7,3,3,md,0.0,1.0,23.897,1,2.0
0n91rxt1ol43n7ew9cz55zj3,16,3,78,7,1,2,md,3.0,0.0,25.898,1,0.0
0nc07ooxpqp0yzl77jj3adep,1,3,22,2,1,3,pd,0.0,1.0,10.181,1,0.0
0nc07ooxpqp0yzl77jj3adep,2,3,28,2,2,2,md,0.0,1.0,13.346,1,0.0
0nc07ooxpqp0yzl77jj3adep,3,3,10,3,3,1,md,3.0,0.0,18.952,1,0.0
0nc07ooxpqp0yzl77jj3adep,4,3,50,2,2,3,pd,0.0,1.0,12.941,1,0.0
0nc07ooxpqp0yzl77jj3adep,5,3,27,3,3,3,md,0.0,1.0,15.013,1,0.0
0nc07ooxpqp0yzl77jj3adep,6,3,11,3,3,2,pd,0.0,1.0,23.616,1,0.0
0nc07ooxpqp0yzl77jj3adep,7,3,77,3,1,1,md,0.0,1.0,17.788,1,0.0
0nc07ooxpqp0yzl77jj3adep,8,3,56,3,3,2,md,1.0,0.0,18.195,1,0.0
0nc07ooxpqp0yzl77jj3adep,9,3,72,4,1,2,pd,2.0,0.0,28.56,1,0.0
0nc07ooxpqp0yzl77jj3adep,10,3,42,4,1,2,pd,1.0,0.0,10.455,1,0.0
0nc07ooxpqp0yzl77jj3adep,11,3,67,5,1,3,md,0.0,1.0,22.746,1,0.0
0nc07ooxpqp0yzl77jj3adep,12,3,52,5,2,2,pd,0.0,1.0,26.164,1,0.0
0nc07ooxpqp0yzl77jj3adep,13,3,75,6,3,3,pd,3.0,0.0,12.155,1,0.0
0nc07ooxpqp0yzl77jj3adep,14,3,36,6,1,2,md,2.0,0.0,29.518,1,0.0
0nc07ooxpqp0yzl77jj3adep,15,3,78,7,1,2,md,3.0,0.0,23.15,1,0.0
0nc07ooxpqp0yzl77jj3adep,16,3,30,7,3,3,pd,0.0,1.0,18.22,1,0.0
0nnmoymg2glj5mgo8yfeprup,1,3,39,2,3,3,pd,0.0,1.0,27.775,1,0.0
0nnmoymg2glj5mgo8yfeprup,2,3,20,2,3,2,pd,0.0,1.0,21.435,1,0.0
0nnmoymg2glj5mgo8yfeprup,3,3,65,2,2,3,md,0.0,1.0,23.293,1,0.0
0nnmoymg2glj5mgo8yfeprup,4,3,61,2,1,3,pd,0.0,1.0,20.122,1,0.0
0nnmoymg2glj5mgo8yfeprup,5,3,18,3,1,2,pd,0.0,1.0,21.742,1,0.0
0nnmoymg2glj5mgo8yfeprup,6,3,27,3,2,1,pd,0.0,1.0,13.189,1,0.0
0nnmoymg2glj5mgo8yfeprup,7,3,77,3,2,3,md,0.0,1.0,16.187,1,0.0
0nnmoymg2glj5mgo8yfeprup,8,3,56,3,2,3,md,0.0,1.0,25.108,1,2.0
0nnmoymg2glj5mgo8yfeprup,9,3,79,4,1,3,md,,,,1,0.0
0nnmoymg2glj5mgo8yfeprup,10,3,42,4,3,3,pd,0.0,1.0,19.414,1,0.0
0nnmoymg2glj5mgo8yfeprup,11,3,67,5,2,2,md,0.0,1.0,20.499,1,0.0
0nnmoymg2glj5mgo8yfeprup,12,3,52,5,1,3,md,0.0,1.0,27.516,1,0.0
0nnmoymg2glj5mgo8yfeprup,13,3,64,6,3,1,pd,0.0,1.0,23.667,1,0.0
0nnmoymg2glj5mgo8yfeprup,14,3,44,6,2,3,pd,0.0,1.0,25.864,1,0.0
0nnmoymg2glj5mgo8yfeprup,15,3,45,7,1,2,pd,0.0,1.0,17.977,1,0.0
0nnmoymg2glj5mgo8yfeprup,16,3,24,7,1,2,pd,0.0,1.0,14.837,1,0.0
0o92lwkkod5ficj2jyqn0f60,1,3,22,2,2,2,pd,0.0,1.0,11.343,1,0.0
0o92lwkkod5ficj2jyqn0f60,2,3,25,2,1,3,md,0.0,1.0,6.47,1,0.0
0o92lwkkod5ficj2jyqn0f60,3,3,49,2,2,2,pd,0.0,1.0,5.768,1,0.0
0o92lwkkod5ficj2jyqn0f60,4,3,71,2,1,1,md,0.0,1.0,6.829,1,0.0
0o92lwkkod5ficj2jyqn0f60,5,3,13,3,2,2,pd,3.0,0.0,8.85,1,0.0
0o92lwkkod5ficj2jyqn0f60,6,3,27,3,1,2,md,1.0,0.0,6.825,1,0.0
0o92lwkkod5ficj2jyqn0f60,7,3,62,3,2,3,pd,0.0,1.0,4.952,1,0.0
0o92lwkkod5ficj2jyqn0f60,8,3,12,4,1,2,md,0.0,1.0,6.764,1,0.0
0o92lwkkod5ficj2jyqn0f60,9,3,40,4,2,2,pd,0.0,1.0,3.014,1,0.0
0o92lwkkod5ficj2jyqn0f60,10,3,79,4,1,3,md,3.0,0.0,5.533,1,0.0
0o92lwkkod5ficj2jyqn0f60,11,3,59,5,1,1,md,2.0,0.0,2.751,1,0.0
0o92lwkkod5ficj2jyqn0f60,12,3,80,4,2,3,pd,1.0,0.0,12.769,1,0.0
0o92lwkkod5ficj2jyqn0f60,13,3,75,6,1,2,md,2.0,0.0,2.116,1,0.0
0o92lwkkod5ficj2jyqn0f60,14,3,44,6,2,3,pd,0.0,1.0,0.94,1,0.0
0o92lwkkod5ficj2jyqn0f60,15,3,24,7,2,1,pd,2.0,0.0,1.123,1,0.0
0o92lwkkod5ficj2jyqn0f60,16,3,78,7,1,2,md,1.0,0.0,9.033,1,0.0
0oppzdo52gw7skmxzy5q6ci1,1,3,19,2,2,2,pd,0.0,1.0,9.58,1,0.0
0oppzdo52gw7skmxzy5q6ci1,2,3,28,2,1,3,pd,0.0,1.0,25.466,1,0.0
0oppzdo52gw7skmxzy5q6ci1,3,3,50,2,2,3,md,0.0,1.0,12.504,1,0.0
0oppzdo52gw7skmxzy5q6ci1,4,3,65,2,1,1,md,0.0,1.0,17.077,1,0.0
0oppzdo52gw7skmxzy5q6ci1,5,3,27,3,1,2,pd,0.0,1.0,23.171,1,0.0
0oppzdo52gw7skmxzy5q6ci1,6,3,15,3,2,1,pd,3.0,0.0,29.342,1,0.0
0oppzdo52gw7skmxzy5q6ci1,7,3,12,4,1,2,md,0.0,1.0,28.017,1,0.0
0oppzdo52gw7skmxzy5q6ci1,8,3,69,3,2,1,pd,0.0,1.0,15.411,1,0.0
0oppzdo52gw7skmxzy5q6ci1,9,3,60,4,1,2,md,0.0,1.0,29.316,1,0.0
0oppzdo52gw7skmxzy5q6ci1,10,3,53,4,2,3,md,3.0,0.0,28.624,1,0.0
0oppzdo52gw7skmxzy5q6ci1,11,3,80,4,2,3,md,2.0,0.0,16.29,1,0.0
0oppzdo52gw7skmxzy5q6ci1,12,3,74,5,1,1,pd,0.0,1.0,20.109,1,0.0
0oppzdo52gw7skmxzy5q6ci1,13,3,75,6,1,2,pd,2.0,0.0,22.363,1,0.0
0oppzdo52gw7skmxzy5q6ci1,14,3,44,6,2,3,md,1.0,0.0,27.786,1,0.0
0oppzdo52gw7skmxzy5q6ci1,15,3,35,8,1,1,md,2.0,0.0,17.697,1,0.0
0oppzdo52gw7skmxzy5q6ci1,16,3,21,7,2,1,pd,1.0,0.0,27.676,1,0.0
0pcccc08djqwblcaa0vi67g3,1,3,47,2,1,1,pd,2.0,0.0,29.74,1,0.0
0pcccc08djqwblcaa0vi67g3,2,3,20,2,2,3,md,1.0,0.0,22.972,1,0.0
0pcccc08djqwblcaa0vi67g3,3,3,70,2,1,3,md,3.0,0.0,27.254,1,0.0
0pcccc08djqwblcaa0vi67g3,4,3,51,2,2,1,md,0.0,1.0,18.877,1,0.0
0pcccc08djqwblcaa0vi67g3,5,3,31,3,1,3,pd,0.0,1.0,25.551,1,0.0
0pcccc08djqwblcaa0vi67g3,6,3,18,3,2,1,md,0.0,1.0,27.583,1,0.0
0pcccc08djqwblcaa0vi67g3,7,3,16,4,1,3,pd,0.0,1.0,21.01,1,0.0
0pcccc08djqwblcaa0vi67g3,8,3,58,3,2,2,md,1.0,0.0,28.308,1,0.0
0pcccc08djqwblcaa0vi67g3,9,3,23,4,2,3,pd,0.0,1.0,11.174,1,0.0
0pcccc08djqwblcaa0vi67g3,10,3,72,4,1,2,pd,0.0,1.0,25.555,1,0.0
0pcccc08djqwblcaa0vi67g3,11,3,80,4,2,3,pd,0.0,1.0,18.636,1,0.0
0pcccc08djqwblcaa0vi67g3,12,3,59,5,1,1,pd,2.0,0.0,10.627,1,0.0
0pcccc08djqwblcaa0vi67g3,13,3,36,6,2,1,pd,0.0,1.0,12.888,1,0.0
0pcccc08djqwblcaa0vi67g3,14,3,75,6,1,2,pd,2.0,0.0,20.057,1,0.0
0pcccc08djqwblcaa0vi67g3,15,3,24,7,2,1,md,2.0,0.0,17.707,1,0.0
0pcccc08djqwblcaa0vi67g3,16,3,66,8,1,2,pd,1.0,0.0,18.455,1,0.0
0ppzryi0yvn8rzf45d469rfr,1,3,39,2,2,1,md,0.0,1.0,26.126,1,0.0
0ppzryi0yvn8rzf45d469rfr,2,3,22,2,1,3,pd,0.0,1.0,14.901,1,0.0
0ppzryi0yvn8rzf45d469rfr,3,3,61,2,1,3,pd,0.0,1.0,24.54,1,0.0
0ppzryi0yvn8rzf45d469rfr,4,3,10,3,2,2,md,0.0,1.0,11.712,1,0.0
0ppzryi0yvn8rzf45d469rfr,5,3,18,3,1,2,pd,0.0,1.0,19.373,1,0.0
0ppzryi0yvn8rzf45d469rfr,6,3,31,3,2,2,md,0.0,1.0,23.514,1,0.0
0ppzryi0yvn8rzf45d469rfr,7,3,56,3,1,1,pd,0.0,1.0,20.216,1,0.0
0ppzryi0yvn8rzf45d469rfr,8,3,16,4,2,2,md,0.0,1.0,10.548,1,0.0
0ppzryi0yvn8rzf45d469rfr,9,3,23,4,1,1,pd,0.0,1.0,11.259,1,0.0
0ppzryi0yvn8rzf45d469rfr,10,3,79,4,2,2,md,2.0,0.0,28.403,1,0.0
0ppzryi0yvn8rzf45d469rfr,11,3,14,5,1,1,pd,3.0,0.0,13.987,1,0.0
0ppzryi0yvn8rzf45d469rfr,12,3,67,5,2,2,md,1.0,0.0,17.127,1,0.0
0ppzryi0yvn8rzf45d469rfr,13,3,46,6,1,3,pd,0.0,1.0,9.241,1,0.0
0ppzryi0yvn8rzf45d469rfr,14,3,55,6,2,2,md,0.0,1.0,25.01,1,0.0
0ppzryi0yvn8rzf45d469rfr,15,3,45,7,2,1,md,0.0,1.0,15.411,1,0.0
0ppzryi0yvn8rzf45d469rfr,16,3,24,7,1,2,pd,2.0,0.0,12.338,1,0.0
0q9kik5fwix8xvf50jzwrbv5,1,3,39,2,1,2,pd,0.0,1.0,16.007,1,0.0
0q9kik5fwix8xvf50jzwrbv5,2,3,22,2,2,2,md,2.0,0.0,13.235,1,0.0
0q9kik5fwix8xvf50jzwrbv5,3,3,70,2,1,3,pd,0.0,1.0,9.693,1,0.0
0q9kik5fwix8xvf50jzwrbv5,4,3,61,2,2,2,md,0.0,1.0,17.036,1,0.0
0q9kik5fwix8xvf50jzwrbv5,5,3,34,3,1,3,pd,0.0,1.0,21.224,1,0.0
0q9kik5fwix8xvf50jzwrbv5,6,3,11,3,2,3,md,1.0,0.0,27.766,1,0.0
0q9kik5fwix8xvf50jzwrbv5,7,3,69,3,2,1,md,0.0,1.0,11.287,1,0.0
0q9kik5fwix8xvf50jzwrbv5,8,3,12,4,1,2,pd,1.0,0.0,23.564,1,0.0
0q9kik5fwix8xvf50jzwrbv5,9,3,40,4,2,2,md,2.0,0.0,27.698,1,0.0
0q9kik5fwix8xvf50jzwrbv5,10,3,60,4,1,2,pd,3.0,0.0,25.613,1,0.0
0q9kik5fwix8xvf50jzwrbv5,11,3,26,5,2,3,md,2.0,0.0,27.188,1,0.0
0q9kik5fwix8xvf50jzwrbv5,12,3,59,5,1,1,pd,0.0,1.0,13.612,1,0.0
0q9kik5fwix8xvf50jzwrbv5,13,3,44,6,2,3,md,3.0,0.0,26.173,1,0.0
0q9kik5fwix8xvf50jzwrbv5,14,3,75,6,1,2,pd,0.0,1.0,18.269,1,0.0
0q9kik5fwix8xvf50jzwrbv5,15,3,35,8,1,1,pd,0.0,1.0,16.181,1,0.0
0q9kik5fwix8xvf50jzwrbv5,16,3,24,7,2,1,md,0.0,1.0,23.505,1,0.0
0r0cd6op09ots3rqd7i4u3qi,1,3,19,2,3,1,pd,0.0,1.0,3.848,1,0.0
0r0cd6op09ots3rqd7i4u3qi,2,3,39,2,3,3,md,0.0,1.0,13.425,1,0.0
0r0cd6op09ots3rqd7i4u3qi,3,3,61,2,3,1,pd,2.0,0.0,9.403,1,0.0
0r0cd6op09ots3rqd7i4u3qi,4,3,70,2,3,1,pd,0.0,1.0,7.953,1,0.0
0r0cd6op09ots3rqd7i4u3qi,5,3,18,3,3,3,md,0.0,1.0,18.497,1,0.0
0r0cd6op09ots3rqd7i4u3qi,6,3,27,3,3,3,pd,0.0,1.0,19.714,1,0.0
0r0cd6op09ots3rqd7i4u3qi,7,3,77,3,3,2,md,0.0,1.0,14.442,1,0.0
0r0cd6op09ots3rqd7i4u3qi,8,3,69,3,3,3,pd,0.0,1.0,10.346,1,0.0
0r0cd6op09ots3rqd7i4u3qi,9,3,42,4,3,3,pd,0.0,1.0,8.538,1,0.0
0r0cd6op09ots3rqd7i4u3qi,10,3,72,4,3,3,pd,0.0,1.0,11.203,1,0.0
0r0cd6op09ots3rqd7i4u3qi,11,3,67,5,3,1,md,0.0,1.0,10.194,1,0.0
0r0cd6op09ots3rqd7i4u3qi,12,3,14,5,3,2,pd,1.0,0.0,25.859,1,0.0
0r0cd6op09ots3rqd7i4u3qi,13,3,46,6,3,1,md,3.0,0.0,12.05,1,0.0
0r0cd6op09ots3rqd7i4u3qi,14,3,54,6,3,3,pd,0.0,1.0,13.556,1,0.0
0r0cd6op09ots3rqd7i4u3qi,15,3,24,7,3,3,pd,0.0,1.0,15.37,1,0.0
0r0cd6op09ots3rqd7i4u3qi,16,3,78,7,3,3,pd,1.0,0.0,22.114,1,0.0
0rx0bm63tj47dgu5hqgmxmco,1,3,47,2,2,3,md,2.0,0.0,29.153,1,0.0
0rx0bm63tj47dgu5hqgmxmco,2,3,6,2,1,2,md,0.0,1.0,12.825,1,0.0
0rx0bm63tj47dgu5hqgmxmco,3,3,49,2,1,3,md,0.0,1.0,10.863,1,0.0
0rx0bm63tj47dgu5hqgmxmco,4,3,70,2,2,2,md,1.0,0.0,3.679,1,0.0
0rx0bm63tj47dgu5hqgmxmco,5,3,11,3,1,1,pd,0.0,1.0,4.244,1,0.0
0rx0bm63tj47dgu5hqgmxmco,6,3,34,3,2,2,md,0.0,1.0,5.587,1,0.0
0rx0bm63tj47dgu5hqgmxmco,7,3,17,4,2,3,md,3.0,0.0,5.913,1,0.0
0rx0bm63tj47dgu5hqgmxmco,8,3,62,3,1,1,pd,0.0,1.0,6.006,1,0.0
0rx0bm63tj47dgu5hqgmxmco,9,3,72,4,2,1,md,2.0,0.0,5.951,1,0.0
0rx0bm63tj47dgu5hqgmxmco,10,3,42,4,1,2,pd,0.0,1.0,1.702,1,0.0
0rx0bm63tj47dgu5hqgmxmco,11,3,26,5,1,1,pd,2.0,0.0,2.135,1,0.0
0rx0bm63tj47dgu5hqgmxmco,12,3,59,5,2,3,md,1.0,0.0,3.064,1,0.0
0rx0bm63tj47dgu5hqgmxmco,13,3,75,6,2,1,md,3.0,0.0,1.79,1,0.0
0rx0bm63tj47dgu5hqgmxmco,14,3,76,5,1,3,md,0.0,1.0,2.15,1,0.0
0rx0bm63tj47dgu5hqgmxmco,15,3,45,7,2,1,md,3.0,0.0,4.469,1,0.0
0rx0bm63tj47dgu5hqgmxmco,16,3,21,7,1,2,md,1.0,0.0,6.145,1,0.0
0sj1lawlpszd1lz6vql6z3wg,1,3,28,2,2,2,md,0.0,1.0,8.311,1,0.0
0sj1lawlpszd1lz6vql6z3wg,2,3,20,2,1,1,pd,0.0,1.0,3.874,1,0.0
0sj1lawlpszd1lz6vql6z3wg,3,3,61,2,1,3,pd,0.0,1.0,8.19,1,0.0
0sj1lawlpszd1lz6vql6z3wg,4,3,71,2,2,3,md,0.0,1.0,4.636,1,0.0
0sj1lawlpszd1lz6vql6z3wg,5,3,13,3,1,3,pd,0.0,1.0,23.483,1,0.0
0sj1lawlpszd1lz6vql6z3wg,6,3,31,3,2,2,md,0.0,1.0,15.605,1,0.0
0sj1lawlpszd1lz6vql6z3wg,7,3,58,3,1,3,pd,0.0,1.0,6.466,1,0.0
0sj1lawlpszd1lz6vql6z3wg,8,3,17,4,2,3,md,0.0,1.0,21.209,1,0.0
0sj1lawlpszd1lz6vql6z3wg,9,3,53,4,1,1,pd,3.0,0.0,21.385,1,0.0
0sj1lawlpszd1lz6vql6z3wg,10,3,73,4,2,2,md,0.0,1.0,17.454,1,0.0
0sj1lawlpszd1lz6vql6z3wg,11,3,26,5,1,1,pd,0.0,1.0,20.914,1,0.0
0sj1lawlpszd1lz6vql6z3wg,12,3,59,5,2,3,md,2.0,0.0,10.949,1,0.0
0sj1lawlpszd1lz6vql6z3wg,13,3,64,6,2,2,md,0.0,1.0,20.286,1,0.0
0sj1lawlpszd1lz6vql6z3wg,14,3,76,5,1,3,pd,0.0,1.0,13.668,1,0.0
0sj1lawlpszd1lz6vql6z3wg,15,3,21,7,1,2,pd,1.0,0.0,19.034,1,0.0
0sj1lawlpszd1lz6vql6z3wg,16,3,35,8,2,3,md,3.0,0.0,19.427,1,0.0
0twyxryrq8iiomdpp48krw8k,1,3,22,2,2,2,pd,0.0,1.0,20.922,1,0.0
0twyxryrq8iiomdpp48krw8k,2,3,47,2,1,1,md,2.0,0.0,28.508,1,0.0
0twyxryrq8iiomdpp48krw8k,3,3,49,2,2,2,md,0.0,1.0,17.964,1,0.0
0twyxryrq8iiomdpp48krw8k,4,3,71,2,1,1,pd,0.0,1.0,12.153,1,0.0
0twyxryrq8iiomdpp48krw8k,5,3,11,3,2,3,md,0.0,1.0,29.505,1,0.0
0twyxryrq8iiomdpp48krw8k,6,3,37,3,1,3,pd,0.0,1.0,29.389,1,0.0
0twyxryrq8iiomdpp48krw8k,7,3,17,4,1,1,md,2.0,0.0,28.84,1,0.0
0twyxryrq8iiomdpp48krw8k,8,3,62,3,2,3,pd,0.0,1.0,15.053,1,0.0
0twyxryrq8iiomdpp48krw8k,9,3,42,4,2,1,pd,0.0,1.0,15.502,1,0.0
0twyxryrq8iiomdpp48krw8k,10,3,79,4,1,3,pd,0.0,1.0,11.366,1,0.0
0twyxryrq8iiomdpp48krw8k,11,3,14,5,2,3,md,2.0,0.0,23.837,1,0.0
0twyxryrq8iiomdpp48krw8k,12,3,67,5,1,3,md,0.0,1.0,17.547,1,0.0
0twyxryrq8iiomdpp48krw8k,13,3,36,6,2,1,md,1.0,0.0,14.085,1,0.0
0twyxryrq8iiomdpp48krw8k,14,3,54,6,1,2,pd,,,,1,0.0
0twyxryrq8iiomdpp48krw8k,15,3,45,7,1,2,pd,0.0,1.0,9.076,1,0.0
0twyxryrq8iiomdpp48krw8k,16,3,29,7,2,3,md,0.0,1.0,8.015,1,0.0
0u9pna4ta2ooka59scvje5yw,1,3,47,2,2,3,md,3.0,0.0,26.982,1,0.0
0u9pna4ta2ooka59scvje5yw,2,3,22,2,1,3,pd,0.0,1.0,8.389,1,0.0
0u9pna4ta2ooka59scvje5yw,3,3,51,2,1,2,pd,0.0,1.0,29.566,1,0.0
0u9pna4ta2ooka59scvje5yw,4,3,70,2,2,2,md,0.0,1.0,12.443,1,0.0
0u9pna4ta2ooka59scvje5yw,5,3,37,3,2,2,md,3.0,0.0,29.169,1,0.0
0u9pna4ta2ooka59scvje5yw,6,3,15,3,1,2,pd,0.0,1.0,15.503,1,0.0
0u9pna4ta2ooka59scvje5yw,7,3,62,3,1,1,pd,0.0,1.0,7.591,1,0.0
0u9pna4ta2ooka59scvje5yw,8,3,12,4,2,1,md,0.0,1.0,23.044,1,0.0
0u9pna4ta2ooka59scvje5yw,9,3,73,4,2,2,md,3.0,0.0,28.996,1,0.0
0u9pna4ta2ooka59scvje5yw,10,3,42,4,1,2,pd,0.0,1.0,17.501,1,0.0
0u9pna4ta2ooka59scvje5yw,11,3,74,5,2,3,md,2.0,0.0,10.595,1,0.0
0u9pna4ta2ooka59scvje5yw,12,3,26,5,1,1,pd,2.0,0.0,20.114,1,0.0
0u9pna4ta2ooka59scvje5yw,13,3,55,6,2,2,md,0.0,1.0,28.106,1,0.0
0u9pna4ta2ooka59scvje5yw,14,3,44,6,1,1,pd,0.0,1.0,28.164,1,0.0
0u9pna4ta2ooka59scvje5yw,15,3,78,7,2,1,md,0.0,1.0,26.71,1,0.0
0u9pna4ta2ooka59scvje5yw,16,3,24,7,1,2,pd,0.0,1.0,15.078,1,0.0
0ujxhg52flxn1r3vwv59gxbb,1,3,47,2,1,1,md,2.0,0.0,6.699,1,0.0
0ujxhg52flxn1r3vwv59gxbb,2,3,22,2,2,2,pd,0.0,1.0,6.549,1,0.0
0ujxhg52flxn1r3vwv59gxbb,3,3,10,3,1,3,pd,3.0,0.0,9.442,1,0.0
0ujxhg52flxn1r3vwv59gxbb,4,3,50,2,2,3,pd,0.0,1.0,11.905,1,0.0
0ujxhg52flxn1r3vwv59gxbb,5,3,31,3,1,3,pd,3.0,0.0,14.533,1,0.0
0ujxhg52flxn1r3vwv59gxbb,6,3,13,3,2,2,md,0.0,1.0,16.147,1,0.0
0ujxhg52flxn1r3vwv59gxbb,7,3,16,4,1,3,md,0.0,1.0,16.241,1,0.0
0ujxhg52flxn1r3vwv59gxbb,8,3,69,3,2,1,pd,0.0,1.0,10.42,1,0.0
0ujxhg52flxn1r3vwv59gxbb,9,3,73,4,1,3,md,0.0,1.0,19.692,1,0.0
0ujxhg52flxn1r3vwv59gxbb,10,3,23,4,2,3,pd,0.0,1.0,11.971,1,0.0
0ujxhg52flxn1r3vwv59gxbb,11,3,67,5,1,3,md,1.0,0.0,8.788,1,0.0
0ujxhg52flxn1r3vwv59gxbb,12,3,14,5,2,3,pd,0.0,1.0,6.64,1,0.0
0ujxhg52flxn1r3vwv59gxbb,13,3,75,6,1,2,pd,0.0,1.0,16.076,1,0.0
0ujxhg52flxn1r3vwv59gxbb,14,3,36,6,2,1,md,0.0,1.0,17.666,1,0.0
0ujxhg52flxn1r3vwv59gxbb,15,3,29,7,2,3,md,3.0,0.0,11.962,1,0.0
0ujxhg52flxn1r3vwv59gxbb,16,3,78,7,1,2,md,2.0,0.0,9.458,1,0.0
0va39yf94goeqrdl3p7wjp0j,1,3,22,2,3,1,pd,2.0,0.0,3.898,1,0.0
0va39yf94goeqrdl3p7wjp0j,2,3,39,2,3,3,pd,0.0,1.0,6.598,1,0.0
0va39yf94goeqrdl3p7wjp0j,3,3,65,2,3,2,pd,3.0,0.0,3.95,1,0.0
0va39yf94goeqrdl3p7wjp0j,4,3,49,2,3,1,md,2.0,0.0,5.932,1,0.0
0va39yf94goeqrdl3p7wjp0j,5,3,27,3,3,3,md,3.0,0.0,9.715,1,0.0
0va39yf94goeqrdl3p7wjp0j,6,3,13,3,3,1,md,2.0,0.0,6.862,1,0.0
0va39yf94goeqrdl3p7wjp0j,7,3,77,3,3,2,md,2.0,0.0,7.48,1,0.0
0va39yf94goeqrdl3p7wjp0j,8,3,62,3,3,2,md,2.0,0.0,5.959,1,0.0
0va39yf94goeqrdl3p7wjp0j,9,3,73,4,3,1,md,1.0,0.0,8.692,1,0.0
0va39yf94goeqrdl3p7wjp0j,10,3,53,4,3,2,md,3.0,0.0,4.574,1,0.0
0va39yf94goeqrdl3p7wjp0j,11,3,80,4,3,2,pd,2.0,0.0,7.611,1,0.0
0va39yf94goeqrdl3p7wjp0j,12,3,63,5,3,3,md,2.0,0.0,4.433,1,0.0
0va39yf94goeqrdl3p7wjp0j,13,3,44,6,3,2,pd,2.0,0.0,5.037,1,0.0
0va39yf94goeqrdl3p7wjp0j,14,3,54,6,3,3,md,2.0,0.0,2.904,1,0.0
0va39yf94goeqrdl3p7wjp0j,15,3,45,7,3,3,pd,2.0,0.0,2.583,1,0.0
0va39yf94goeqrdl3p7wjp0j,16,3,29,7,3,2,pd,2.0,0.0,3.865,1,0.0
0xti0hox834b62pvy7cdjlxd,1,3,39,2,2,1,pd,1.0,0.0,17.731,1,0.0
0xti0hox834b62pvy7cdjlxd,2,3,6,2,1,2,pd,1.0,0.0,13.838,1,0.0
0xti0hox834b62pvy7cdjlxd,3,3,10,3,2,2,pd,0.0,1.0,10.883,1,0.0
0xti0hox834b62pvy7cdjlxd,4,3,51,2,1,2,md,0.0,1.0,7.578,1,0.0
0xti0hox834b62pvy7cdjlxd,5,3,13,3,1,3,md,0.0,1.0,15.691,1,0.0
0xti0hox834b62pvy7cdjlxd,6,3,27,3,2,1,md,2.0,0.0,14.106,1,0.0
0xti0hox834b62pvy7cdjlxd,7,3,77,3,2,3,md,1.0,0.0,7.243,1,0.0
0xti0hox834b62pvy7cdjlxd,8,3,69,3,1,2,pd,0.0,1.0,11.216,1,0.0
0xti0hox834b62pvy7cdjlxd,9,3,23,4,1,1,md,3.0,0.0,7.833,1,0.0
0xti0hox834b62pvy7cdjlxd,10,3,79,4,2,2,pd,1.0,0.0,8.278,1,0.0
0xti0hox834b62pvy7cdjlxd,11,3,26,5,1,1,md,2.0,0.0,8.715,1,0.0
0xti0hox834b62pvy7cdjlxd,12,3,63,5,2,1,pd,3.0,0.0,8.338,1,0.0
0xti0hox834b62pvy7cdjlxd,13,3,46,6,1,3,pd,0.0,1.0,7.607,1,0.0
0xti0hox834b62pvy7cdjlxd,14,3,55,6,2,2,pd,0.0,1.0,7.641,1,0.0
0xti0hox834b62pvy7cdjlxd,15,3,29,7,1,1,md,1.0,0.0,9.306,1,0.0
0xti0hox834b62pvy7cdjlxd,16,3,78,7,2,1,pd,0.0,1.0,6.204,1,0.0
0yqqto6zoppea5madtbwzbi7,1,3,25,2,1,3,md,0.0,1.0,5.358,1,0.0
0yqqto6zoppea5madtbwzbi7,2,3,19,2,2,2,pd,0.0,1.0,7.072,1,0.0
0yqqto6zoppea5madtbwzbi7,3,3,10,3,1,3,md,0.0,1.0,19.29,1,0.0
0yqqto6zoppea5madtbwzbi7,4,3,50,2,2,3,md,0.0,1.0,16.439,1,0.0
0yqqto6zoppea5madtbwzbi7,5,3,31,3,1,3,pd,0.0,1.0,14.171,1,0.0
0yqqto6zoppea5madtbwzbi7,6,3,11,3,2,3,pd,3.0,0.0,16.338,1,0.0
0yqqto6zoppea5madtbwzbi7,7,3,17,4,1,1,md,0.0,1.0,14.052,1,0.0
0yqqto6zoppea5madtbwzbi7,8,3,69,3,2,1,pd,0.0,1.0,11.168,1,0.0
0yqqto6zoppea5madtbwzbi7,9,3,53,4,2,3,md,0.0,1.0,23.724,1,0.0
0yqqto6zoppea5madtbwzbi7,10,3,72,4,1,2,md,0.0,1.0,18.495,1,0.0
0yqqto6zoppea5madtbwzbi7,11,3,80,4,2,3,pd,3.0,0.0,25.779,1,0.0
0yqqto6zoppea5madtbwzbi7,12,3,67,5,1,3,pd,0.0,1.0,13.811,1,0.0
0yqqto6zoppea5madtbwzbi7,13,3,55,6,1,3,pd,0.0,1.0,17.242,1,0.0
0yqqto6zoppea5madtbwzbi7,14,3,44,6,2,3,pd,2.0,0.0,21.541,1,0.0
0yqqto6zoppea5madtbwzbi7,15,3,45,7,1,2,pd,0.0,1.0,14.792,1,0.0
0yqqto6zoppea5madtbwzbi7,16,3,30,7,2,1,pd,0.0,1.0,8.84,1,0.0
0ytml6n9x0m86lzzow3iriro,1,3,6,2,2,1,pd,0.0,1.0,8.524,1,0.0
0ytml6n9x0m86lzzow3iriro,2,3,39,2,1,2,pd,1.0,0.0,29.71,1,0.0
0ytml6n9x0m86lzzow3iriro,3,3,49,2,1,3,pd,0.0,1.0,11.707,1,0.0
0ytml6n9x0m86lzzow3iriro,4,3,70,2,3,1,md,0.0,1.0,10.236,1,0.0
0ytml6n9x0m86lzzow3iriro,5,3,11,3,3,2,pd,0.0,1.0,27.211,1,0.0
0ytml6n9x0m86lzzow3iriro,6,3,37,3,3,1,pd,0.0,1.0,23.194,1,0.0
0ytml6n9x0m86lzzow3iriro,7,3,12,4,3,3,pd,0.0,1.0,9.909,1,0.0
0ytml6n9x0m86lzzow3iriro,8,3,58,3,2,2,pd,0.0,1.0,8.819,1,0.0
0ytml6n9x0m86lzzow3iriro,9,3,42,4,2,1,pd,0.0,1.0,22.475,1,0.0
0ytml6n9x0m86lzzow3iriro,10,3,73,4,3,1,md,2.0,0.0,26.581,1,0.0
0ytml6n9x0m86lzzow3iriro,11,3,26,5,1,1,pd,3.0,0.0,10.797,1,0.0
0ytml6n9x0m86lzzow3iriro,12,3,67,5,2,2,pd,0.0,1.0,9.426,1,0.0
0ytml6n9x0m86lzzow3iriro,13,3,76,5,1,3,pd,2.0,0.0,6.443,1,0.0
0ytml6n9x0m86lzzow3iriro,14,3,54,6,2,1,pd,0.0,1.0,10.662,1,0.0
0ytml6n9x0m86lzzow3iriro,15,3,35,8,1,1,md,0.0,1.0,18.585,1,0.0
0ytml6n9x0m86lzzow3iriro,16,3,29,7,3,2,pd,3.0,0.0,4.708,1,0.0
0zbp22de54175dd6mn94h79v,1,3,6,2,1,2,md,0.0,1.0,8.537,1,0.0
0zbp22de54175dd6mn94h79v,2,3,28,2,1,3,pd,0.0,1.0,8.869,1,0.0
0zbp22de54175dd6mn94h79v,3,3,50,2,3,2,pd,0.0,1.0,9.057,1,0.0
0zbp22de54175dd6mn94h79v,4,3,10,3,2,2,pd,0.0,1.0,10.919,1,0.0
0zbp22de54175dd6mn94h79v,5,3,15,3,1,2,md,0.0,1.0,13.967,1,0.0
0zbp22de54175dd6mn94h79v,6,3,34,3,2,2,pd,0.0,1.0,14.831,1,0.0
0zbp22de54175dd6mn94h79v,7,3,16,4,3,1,md,0.0,1.0,7.794,1,0.0
0zbp22de54175dd6mn94h79v,8,3,62,3,1,1,pd,0.0,1.0,7.744,1,0.0
0zbp22de54175dd6mn94h79v,9,3,72,4,2,1,md,1.0,0.0,17.09,1,0.0
0zbp22de54175dd6mn94h79v,10,3,53,4,3,2,md,1.0,0.0,13.618,1,0.0
0zbp22de54175dd6mn94h79v,11,3,14,5,1,1,pd,2.0,0.0,14.645,1,0.0
0zbp22de54175dd6mn94h79v,12,3,67,5,2,2,pd,0.0,1.0,9.268,1,0.0
0zbp22de54175dd6mn94h79v,13,3,75,6,1,2,md,0.0,1.0,26.528,1,0.0
0zbp22de54175dd6mn94h79v,14,3,46,6,1,3,pd,1.0,0.0,28.106,1,0.0
0zbp22de54175dd6mn94h79v,15,3,24,7,1,2,pd,1.0,0.0,4.905,1,0.0
0zbp22de54175dd6mn94h79v,16,3,45,7,1,2,pd,0.0,1.0,5.573,1,0.0
105ntx6kk1ex50rocum4ypt0,1,3,19,2,3,1,pd,2.0,0.0,4.431,1,0.0
105ntx6kk1ex50rocum4ypt0,2,3,28,2,3,1,pd,2.0,0.0,8.095,1,0.0
105ntx6kk1ex50rocum4ypt0,3,3,65,2,3,2,md,0.0,1.0,9.851,1,2.0
105ntx6kk1ex50rocum4ypt0,4,3,51,2,3,3,pd,2.0,0.0,11.24,1,1.0
105ntx6kk1ex50rocum4ypt0,5,3,31,3,3,1,md,1.0,0.0,26.428,1,1.0
105ntx6kk1ex50rocum4ypt0,6,3,18,3,3,3,md,1.0,0.0,19.617,1,0.0
105ntx6kk1ex50rocum4ypt0,7,3,12,4,3,3,md,3.0,0.0,4.848,1,0.0
105ntx6kk1ex50rocum4ypt0,8,3,58,3,3,1,md,2.0,0.0,6.454,1,0.0
105ntx6kk1ex50rocum4ypt0,9,3,79,4,3,1,pd,0.0,1.0,3.68,1,0.0
105ntx6kk1ex50rocum4ypt0,10,3,23,4,3,2,md,3.0,0.0,2.572,1,0.0
105ntx6kk1ex50rocum4ypt0,11,3,74,5,3,2,md,2.0,0.0,0.503,1,0.0
105ntx6kk1ex50rocum4ypt0,12,3,14,5,3,2,pd,1.0,0.0,18.075,1,0.0
105ntx6kk1ex50rocum4ypt0,13,3,76,5,3,1,md,2.0,0.0,1.569,1,0.0
105ntx6kk1ex50rocum4ypt0,14,3,54,6,3,3,pd,1.0,0.0,1.144,1,0.0
105ntx6kk1ex50rocum4ypt0,15,3,45,7,3,3,md,1.0,0.0,0.794,1,0.0
105ntx6kk1ex50rocum4ypt0,16,3,21,7,3,3,pd,1.0,0.0,1.128,1,0.0
106yix6qo415zkfnyhrwqyc5,1,3,20,2,3,2,pd,0.0,1.0,25.014,1,0.0
106yix6qo415zkfnyhrwqyc5,2,3,47,2,1,1,pd,0.0,1.0,27.565,1,0.0
106yix6qo415zkfnyhrwqyc5,3,3,10,3,1,3,md,,,,1,0.0
106yix6qo415zkfnyhrwqyc5,4,3,49,2,1,3,md,0.0,1.0,8.054,1,0.0
106yix6qo415zkfnyhrwqyc5,5,3,11,3,3,2,pd,0.0,1.0,19.721,1,0.0
106yix6qo415zkfnyhrwqyc5,6,3,27,3,3,3,pd,0.0,1.0,15.286,1,0.0
106yix6qo415zkfnyhrwqyc5,7,3,12,4,2,1,pd,0.0,1.0,15.755,1,0.0
106yix6qo415zkfnyhrwqyc5,8,3,58,3,3,1,md,0.0,1.0,14.089,1,0.0
106yix6qo415zkfnyhrwqyc5,9,3,60,4,3,3,pd,2.0,0.0,28.046,1,0.0
106yix6qo415zkfnyhrwqyc5,10,3,23,4,1,1,md,0.0,1.0,19.734,1,0.0
106yix6qo415zkfnyhrwqyc5,11,3,67,5,2,2,md,0.0,1.0,13.705,1,0.0
106yix6qo415zkfnyhrwqyc5,12,3,14,5,2,3,md,1.0,0.0,18.774,1,0.0
106yix6qo415zkfnyhrwqyc5,13,3,46,6,2,2,pd,2.0,0.0,28.423,1,0.0
106yix6qo415zkfnyhrwqyc5,14,3,55,6,2,2,md,3.0,0.0,27.344,1,0.0
106yix6qo415zkfnyhrwqyc5,15,3,24,7,3,3,pd,0.0,1.0,29.766,1,0.0
106yix6qo415zkfnyhrwqyc5,16,3,66,8,3,3,pd,0.0,1.0,27.207,1,0.0
10qcdilmyzfhgmbx4nbygedl,1,3,19,2,2,2,md,0.0,1.0,5.487,1,0.0
10qcdilmyzfhgmbx4nbygedl,2,3,28,2,1,3,pd,3.0,0.0,7.909,1,0.0
10qcdilmyzfhgmbx4nbygedl,3,3,61,2,2,2,md,2.0,0.0,11.318,1,0.0
10qcdilmyzfhgmbx4nbygedl,4,3,10,3,1,3,pd,0.0,1.0,12.385,1,0.0
10qcdilmyzfhgmbx4nbygedl,5,3,13,3,2,2,md,2.0,0.0,13.366,1,0.0
10qcdilmyzfhgmbx4nbygedl,6,3,27,3,1,2,pd,0.0,1.0,15.937,1,0.0
10qcdilmyzfhgmbx4nbygedl,7,3,77,3,1,1,pd,0.0,1.0,14.591,1,0.0
10qcdilmyzfhgmbx4nbygedl,8,3,62,3,2,3,md,0.0,1.0,19.238,1,0.0
10qcdilmyzfhgmbx4nbygedl,9,3,72,4,1,2,pd,0.0,1.0,22.33,1,0.0
10qcdilmyzfhgmbx4nbygedl,10,3,23,4,2,3,md,0.0,1.0,16.766,1,0.0
10qcdilmyzfhgmbx4nbygedl,11,3,74,5,1,1,pd,1.0,0.0,11.035,1,0.0
10qcdilmyzfhgmbx4nbygedl,12,3,52,5,2,2,md,0.0,1.0,23.336,1,0.0
10qcdilmyzfhgmbx4nbygedl,13,3,54,6,1,2,pd,2.0,0.0,22.29,1,0.0
10qcdilmyzfhgmbx4nbygedl,14,3,36,6,2,1,md,3.0,0.0,22.847,1,0.0
10qcdilmyzfhgmbx4nbygedl,15,3,21,7,2,1,md,3.0,0.0,11.603,1,0.0
10qcdilmyzfhgmbx4nbygedl,16,3,66,8,1,2,pd,2.0,0.0,12.436,1,0.0
11qiftg3g7om1rk79jogt55c,1,3,19,2,2,2,md,3.0,0.0,17.407,1,0.0
11qiftg3g7om1rk79jogt55c,2,3,28,2,1,3,pd,0.0,1.0,12.874,1,0.0
11qiftg3g7om1rk79jogt55c,3,3,61,2,2,2,md,0.0,1.0,12.241,1,0.0
11qiftg3g7om1rk79jogt55c,4,3,10,3,1,3,pd,0.0,1.0,17.56,1,0.0
11qiftg3g7om1rk79jogt55c,5,3,18,3,2,1,md,0.0,1.0,19.195,1,0.0
11qiftg3g7om1rk79jogt55c,6,3,34,3,1,3,md,2.0,0.0,19.224,1,0.0
11qiftg3g7om1rk79jogt55c,7,3,56,3,2,3,pd,1.0,0.0,4.173,1,0.0
11qiftg3g7om1rk79jogt55c,8,3,16,4,1,3,pd,0.0,1.0,9.363,1,0.0
11qiftg3g7om1rk79jogt55c,9,3,60,4,1,2,pd,1.0,0.0,12.072,1,0.0
11qiftg3g7om1rk79jogt55c,10,3,42,4,2,1,md,0.0,1.0,18.233,1,0.0
11qiftg3g7om1rk79jogt55c,11,3,67,5,1,3,md,1.0,0.0,1.199,1,0.0
11qiftg3g7om1rk79jogt55c,12,3,52,5,2,2,pd,0.0,1.0,0.957,1,0.0
11qiftg3g7om1rk79jogt55c,13,3,76,5,2,2,md,0.0,1.0,5.464,1,0.0
11qiftg3g7om1rk79jogt55c,14,3,75,6,1,2,md,0.0,1.0,8.837,1,0.0
11qiftg3g7om1rk79jogt55c,15,3,35,8,1,1,pd,2.0,0.0,2.3,1,0.0
11qiftg3g7om1rk79jogt55c,16,3,24,7,2,1,md,1.0,0.0,17.746,1,0.0
14asg0heo2pqnmiywh8uy4ly,1,3,47,2,2,3,md,0.0,1.0,20.223,1,0.0
14asg0heo2pqnmiywh8uy4ly,2,3,22,2,1,3,pd,0.0,1.0,10.764,1,0.0
14asg0heo2pqnmiywh8uy4ly,3,3,51,2,1,2,pd,0.0,1.0,19.63,1,0.0
14asg0heo2pqnmiywh8uy4ly,4,3,70,2,2,2,md,0.0,1.0,18.761,1,0.0
14asg0heo2pqnmiywh8uy4ly,5,3,31,3,2,2,md,0.0,1.0,23.679,1,0.0
14asg0heo2pqnmiywh8uy4ly,6,3,13,3,1,3,pd,0.0,1.0,18.4,1,0.0
14asg0heo2pqnmiywh8uy4ly,7,3,16,4,2,2,md,0.0,1.0,14.815,1,0.0
14asg0heo2pqnmiywh8uy4ly,8,3,69,3,1,2,pd,0.0,1.0,17.7,1,0.0
14asg0heo2pqnmiywh8uy4ly,9,3,53,4,1,1,pd,3.0,0.0,15.478,1,0.0
14asg0heo2pqnmiywh8uy4ly,10,3,73,4,2,2,md,0.0,1.0,27.702,1,0.0
14asg0heo2pqnmiywh8uy4ly,11,3,80,4,1,1,pd,0.0,1.0,17.043,1,0.0
14asg0heo2pqnmiywh8uy4ly,12,3,59,5,2,3,md,2.0,0.0,22.548,1,0.0
14asg0heo2pqnmiywh8uy4ly,13,3,55,6,2,2,md,0.0,1.0,27.261,1,0.0
14asg0heo2pqnmiywh8uy4ly,14,3,46,6,1,3,pd,0.0,1.0,17.615,1,0.0
14asg0heo2pqnmiywh8uy4ly,15,3,21,7,1,2,pd,1.0,0.0,14.08,1,0.0
14asg0heo2pqnmiywh8uy4ly,16,3,66,8,2,1,md,0.0,1.0,15.251,1,0.0
15ctx94v90f8rfqy1jz7gsci,1,3,39,2,1,2,md,0.0,1.0,14.37,1,0.0
15ctx94v90f8rfqy1jz7gsci,2,3,22,2,2,2,pd,0.0,1.0,18.744,1,0.0
15ctx94v90f8rfqy1jz7gsci,3,3,51,2,2,1,pd,0.0,1.0,9.494,1,0.0
15ctx94v90f8rfqy1jz7gsci,4,3,71,2,1,1,pd,0.0,1.0,5.743,1,0.0
15ctx94v90f8rfqy1jz7gsci,5,3,13,3,2,2,pd,0.0,1.0,26.619,1,0.0
15ctx94v90f8rfqy1jz7gsci,6,3,37,3,1,3,md,1.0,0.0,11.956,1,0.0
15ctx94v90f8rfqy1jz7gsci,7,3,16,4,1,3,md,3.0,0.0,28.28,1,0.0
15ctx94v90f8rfqy1jz7gsci,8,3,56,3,2,3,pd,0.0,1.0,18.469,1,0.0
15ctx94v90f8rfqy1jz7gsci,9,3,72,4,1,2,pd,0.0,1.0,21.197,1,0.0
15ctx94v90f8rfqy1jz7gsci,10,3,40,4,2,2,pd,0.0,1.0,14.813,1,0.0
15ctx94v90f8rfqy1jz7gsci,11,3,26,5,2,3,pd,0.0,1.0,15.445,1,0.0
15ctx94v90f8rfqy1jz7gsci,12,3,74,5,1,1,pd,1.0,0.0,13.236,1,0.0
15ctx94v90f8rfqy1jz7gsci,13,3,54,6,1,2,md,3.0,0.0,15.4,1,0.0
15ctx94v90f8rfqy1jz7gsci,14,3,44,6,2,3,pd,1.0,0.0,14.908,1,0.0
15ctx94v90f8rfqy1jz7gsci,15,3,29,7,2,3,pd,3.0,0.0,25.985,1,0.0
15ctx94v90f8rfqy1jz7gsci,16,3,66,8,1,2,pd,0.0,1.0,13.314,1,0.0
15sz3torqsy18eedz8ao7jsh,1,3,28,2,3,1,md,0.0,1.0,14.208,1,0.0
15sz3torqsy18eedz8ao7jsh,2,3,6,2,3,3,md,0.0,1.0,11.351,1,0.0
15sz3torqsy18eedz8ao7jsh,3,3,49,2,3,1,md,0.0,1.0,5.943,1,0.0
15sz3torqsy18eedz8ao7jsh,4,3,70,2,3,1,pd,0.0,1.0,5.742,1,0.0
15sz3torqsy18eedz8ao7jsh,5,3,15,3,3,3,md,2.0,0.0,10.99,1,0.0
15sz3torqsy18eedz8ao7jsh,6,3,31,3,3,1,md,0.0,1.0,18.55,1,0.0
15sz3torqsy18eedz8ao7jsh,7,3,69,3,3,3,pd,0.0,1.0,7.628,1,0.0
15sz3torqsy18eedz8ao7jsh,8,3,16,4,3,1,md,0.0,1.0,6.083,1,0.0
15sz3torqsy18eedz8ao7jsh,9,3,40,4,3,1,md,0.0,1.0,16.131,1,0.0
15sz3torqsy18eedz8ao7jsh,10,3,73,4,3,1,pd,0.0,1.0,13.894,1,0.0
15sz3torqsy18eedz8ao7jsh,11,3,74,5,3,2,pd,0.0,1.0,19.208,1,0.0
15sz3torqsy18eedz8ao7jsh,12,3,80,4,3,2,pd,1.0,0.0,19.606,1,0.0
15sz3torqsy18eedz8ao7jsh,13,3,76,5,3,1,md,0.0,1.0,21.64,1,0.0
15sz3torqsy18eedz8ao7jsh,14,3,54,6,3,3,md,1.0,0.0,19.387,1,0.0
15sz3torqsy18eedz8ao7jsh,15,3,21,7,3,3,pd,1.0,0.0,23.728,1,0.0
15sz3torqsy18eedz8ao7jsh,16,3,35,8,3,2,md,2.0,0.0,20.224,1,0.0
16eppal8mpgpv1fgz4saqd0h,1,3,47,2,2,3,pd,1.0,0.0,5.114,1,0.0
16eppal8mpgpv1fgz4saqd0h,2,3,6,2,1,2,md,3.0,0.0,12.5,1,0.0
16eppal8mpgpv1fgz4saqd0h,3,3,61,2,1,3,md,0.0,1.0,14.59,1,0.0
16eppal8mpgpv1fgz4saqd0h,4,3,10,3,2,2,pd,0.0,1.0,13.599,1,0.0
16eppal8mpgpv1fgz4saqd0h,5,3,27,3,2,1,pd,2.0,0.0,25.613,1,0.0
16eppal8mpgpv1fgz4saqd0h,6,3,11,3,1,1,md,2.0,0.0,18.444,1,0.0
16eppal8mpgpv1fgz4saqd0h,7,3,12,4,2,1,pd,0.0,1.0,10.392,1,0.0
16eppal8mpgpv1fgz4saqd0h,8,3,69,3,1,2,md,0.0,1.0,14.102,1,0.0
16eppal8mpgpv1fgz4saqd0h,9,3,79,4,2,2,pd,1.0,0.0,18.036,1,0.0
16eppal8mpgpv1fgz4saqd0h,10,3,40,4,1,3,md,3.0,0.0,10.053,1,0.0
16eppal8mpgpv1fgz4saqd0h,11,3,74,5,2,3,pd,3.0,0.0,13.097,1,0.0
16eppal8mpgpv1fgz4saqd0h,12,3,52,5,1,3,md,1.0,0.0,7.711,1,0.0
16eppal8mpgpv1fgz4saqd0h,13,3,55,6,2,2,pd,0.0,1.0,7.648,1,0.0
16eppal8mpgpv1fgz4saqd0h,14,3,44,6,1,1,md,0.0,1.0,18.333,1,0.0
16eppal8mpgpv1fgz4saqd0h,15,3,66,8,2,1,pd,0.0,1.0,9.49,1,0.0
16eppal8mpgpv1fgz4saqd0h,16,3,29,7,1,1,md,0.0,1.0,22.785,1,0.0
17e9566qx939fuc3wb8mi79z,1,3,20,2,1,1,md,0.0,1.0,9.556,1,0.0
17e9566qx939fuc3wb8mi79z,2,3,25,2,1,3,md,2.0,0.0,12.126,1,0.0
17e9566qx939fuc3wb8mi79z,3,3,49,2,3,1,md,0.0,1.0,8.605,1,0.0
17e9566qx939fuc3wb8mi79z,4,3,70,2,2,2,md,2.0,0.0,10.111,1,0.0
17e9566qx939fuc3wb8mi79z,5,3,13,3,1,3,pd,0.0,1.0,13.982,1,0.0
17e9566qx939fuc3wb8mi79z,6,3,27,3,3,3,md,1.0,0.0,13.96,1,0.0
17e9566qx939fuc3wb8mi79z,7,3,77,3,2,3,pd,0.0,1.0,10.426,1,0.0
17e9566qx939fuc3wb8mi79z,8,3,69,3,2,1,pd,0.0,1.0,12.071,1,0.0
17e9566qx939fuc3wb8mi79z,9,3,42,4,1,2,pd,1.0,0.0,9.514,1,0.0
17e9566qx939fuc3wb8mi79z,10,3,79,4,2,2,md,1.0,0.0,8.929,1,0.0
17e9566qx939fuc3wb8mi79z,11,3,63,5,1,2,md,1.0,0.0,9.307,1,0.0
17e9566qx939fuc3wb8mi79z,12,3,14,5,3,2,pd,3.0,0.0,2.81,1,0.0
17e9566qx939fuc3wb8mi79z,13,3,44,6,3,2,md,2.0,0.0,13.357,1,0.0
17e9566qx939fuc3wb8mi79z,14,3,75,6,2,1,pd,0.0,1.0,17.008,1,0.0
17e9566qx939fuc3wb8mi79z,15,3,66,8,2,1,md,3.0,0.0,16.811,1,0.0
17e9566qx939fuc3wb8mi79z,16,3,30,7,2,1,md,2.0,0.0,11.636,1,0.0
17jbfkm6es919zjcs9fjtpxg,1,3,22,2,2,2,md,2.0,0.0,7.352,1,0.0
17jbfkm6es919zjcs9fjtpxg,2,3,47,2,1,1,md,3.0,0.0,4.17,1,0.0
17jbfkm6es919zjcs9fjtpxg,3,3,61,2,3,1,pd,1.0,0.0,3.893,1,0.0
17jbfkm6es919zjcs9fjtpxg,4,3,71,2,1,1,pd,2.0,0.0,12.85,1,0.0
17jbfkm6es919zjcs9fjtpxg,5,3,37,3,3,1,md,3.0,0.0,16.475,1,0.0
17jbfkm6es919zjcs9fjtpxg,6,3,18,3,1,2,md,2.0,0.0,7.594,1,0.0
17jbfkm6es919zjcs9fjtpxg,7,3,56,3,1,1,md,1.0,0.0,13.57,1,0.0
17jbfkm6es919zjcs9fjtpxg,8,3,12,4,1,2,pd,3.0,0.0,3.321,1,0.0
17jbfkm6es919zjcs9fjtpxg,9,3,72,4,1,2,pd,0.0,1.0,1.614,1,0.0
17jbfkm6es919zjcs9fjtpxg,10,3,40,4,3,1,md,0.0,1.0,0.703,1,0.0
17jbfkm6es919zjcs9fjtpxg,11,3,26,5,2,3,md,1.0,0.0,2.652,1,0.0
17jbfkm6es919zjcs9fjtpxg,12,3,63,5,2,1,md,1.0,0.0,11.451,1,0.0
17jbfkm6es919zjcs9fjtpxg,13,3,76,5,1,3,pd,0.0,1.0,6.996,1,0.0
17jbfkm6es919zjcs9fjtpxg,14,3,54,6,2,1,pd,1.0,0.0,1.202,1,0.0
17jbfkm6es919zjcs9fjtpxg,15,3,21,7,2,1,md,1.0,0.0,2.876,1,0.0
17jbfkm6es919zjcs9fjtpxg,16,3,45,7,2,1,md,1.0,0.0,6.739,1,0.0
183pqfkdt3a73v9vti21s4wu,1,3,22,2,3,1,md,0.0,1.0,5.473,1,0.0
183pqfkdt3a73v9vti21s4wu,2,3,47,2,2,3,md,0.0,1.0,11.9,1,0.0
183pqfkdt3a73v9vti21s4wu,3,3,70,2,1,3,md,2.0,0.0,12.199,1,0.0
183pqfkdt3a73v9vti21s4wu,4,3,51,2,2,1,md,0.0,1.0,10.064,1,0.0
183pqfkdt3a73v9vti21s4wu,5,3,13,3,2,2,pd,0.0,1.0,7.139,1,0.0
183pqfkdt3a73v9vti21s4wu,6,3,31,3,1,3,md,0.0,1.0,14.797,1,0.0
183pqfkdt3a73v9vti21s4wu,7,3,58,3,3,1,pd,0.0,1.0,8.311,1,0.0
183pqfkdt3a73v9vti21s4wu,8,3,17,4,3,2,pd,0.0,1.0,10.563,1,0.0
183pqfkdt3a73v9vti21s4wu,9,3,53,4,3,2,md,3.0,0.0,23.809,1,0.0
183pqfkdt3a73v9vti21s4wu,10,3,73,4,1,3,pd,0.0,1.0,22.99,1,0.0
183pqfkdt3a73v9vti21s4wu,11,3,74,5,2,3,md,0.0,1.0,22.582,1,0.0
183pqfkdt3a73v9vti21s4wu,12,3,80,4,1,1,md,2.0,0.0,15.279,1,0.0
183pqfkdt3a73v9vti21s4wu,13,3,55,6,1,3,pd,0.0,1.0,15.234,1,0.0
183pqfkdt3a73v9vti21s4wu,14,3,46,6,3,1,md,3.0,0.0,21.536,1,0.0
183pqfkdt3a73v9vti21s4wu,15,3,24,7,3,3,pd,0.0,1.0,21.226,1,0.0
183pqfkdt3a73v9vti21s4wu,16,3,35,8,3,2,md,0.0,1.0,15.178,1,0.0
18bornvwixas0ck99a3h798j,1,3,22,2,2,2,pd,1.0,0.0,6.714,1,0.0
18bornvwixas0ck99a3h798j,2,3,47,2,1,1,md,1.0,0.0,8.588,1,0.0
18bornvwixas0ck99a3h798j,3,3,50,2,2,3,md,0.0,1.0,8.878,1,0.0
18bornvwixas0ck99a3h798j,4,3,10,3,1,3,md,0.0,1.0,14.741,1,0.0
18bornvwixas0ck99a3h798j,5,3,37,3,1,3,pd,1.0,0.0,14.581,1,0.0
18bornvwixas0ck99a3h798j,6,3,13,3,2,2,md,0.0,1.0,15.449,1,0.0
18bornvwixas0ck99a3h798j,7,3,62,3,2,3,pd,0.0,1.0,14.7,1,0.0
18bornvwixas0ck99a3h798j,8,3,77,3,1,1,pd,0.0,1.0,11.078,1,0.0
18bornvwixas0ck99a3h798j,9,3,72,4,1,2,pd,0.0,1.0,13.049,1,0.0
18bornvwixas0ck99a3h798j,10,3,40,4,2,2,md,2.0,0.0,13.062,1,0.0
18bornvwixas0ck99a3h798j,11,3,52,5,2,2,pd,0.0,1.0,18.024,1,0.0
18bornvwixas0ck99a3h798j,12,3,59,5,1,1,pd,3.0,0.0,18.759,1,0.0
18bornvwixas0ck99a3h798j,13,3,46,6,2,2,md,0.0,1.0,28.689,1,0.0
18bornvwixas0ck99a3h798j,14,3,55,6,1,3,pd,0.0,1.0,20.689,1,0.0
18bornvwixas0ck99a3h798j,15,3,45,7,1,2,pd,0.0,1.0,25.545,1,0.0
18bornvwixas0ck99a3h798j,16,3,21,7,2,1,md,0.0,1.0,11.114,1,0.0
1993v4050stwong707xpjpem,1,3,39,2,2,1,pd,1.0,0.0,18.776,1,0.0
1993v4050stwong707xpjpem,2,3,20,2,1,1,md,0.0,1.0,19.465,1,0.0
1993v4050stwong707xpjpem,3,3,51,2,1,2,md,2.0,0.0,24.592,1,0.0
1993v4050stwong707xpjpem,4,3,65,2,2,3,pd,1.0,0.0,25.882,1,0.0
1993v4050stwong707xpjpem,5,3,18,3,1,2,md,3.0,0.0,21.155,1,0.0
1993v4050stwong707xpjpem,6,3,37,3,2,2,pd,1.0,0.0,22.947,1,0.0
1993v4050stwong707xpjpem,7,3,17,4,2,3,pd,0.0,1.0,24.057,1,0.0
1993v4050stwong707xpjpem,8,3,58,3,1,3,md,0.0,1.0,21.529,1,0.0
1993v4050stwong707xpjpem,9,3,23,4,1,1,md,1.0,0.0,22.018,1,0.0
1993v4050stwong707xpjpem,10,3,72,4,2,1,pd,3.0,0.0,28.789,1,0.0
1993v4050stwong707xpjpem,11,3,26,5,1,1,md,,,,1,0.0
1993v4050stwong707xpjpem,12,3,63,5,2,1,pd,3.0,0.0,12.958,1,0.0
1993v4050stwong707xpjpem,13,3,55,6,2,2,pd,0.0,1.0,22.275,1,0.0
1993v4050stwong707xpjpem,14,3,36,6,1,2,md,1.0,0.0,23.282,1,0.0
1993v4050stwong707xpjpem,15,3,29,7,1,1,md,3.0,0.0,17.915,1,0.0
1993v4050stwong707xpjpem,16,3,45,7,2,1,pd,0.0,1.0,25.56,1,0.0
1c3pzy0sywq19gzia233fbi1,1,3,20,2,3,2,pd,,,,1,0.0
1c3pzy0sywq19gzia233fbi1,2,3,28,2,3,1,md,1.0,0.0,17.652,1,0.0
1c3pzy0sywq19gzia233fbi1,3,3,70,2,3,1,pd,0.0,1.0,11.78,1,0.0
1c3pzy0sywq19gzia233fbi1,4,3,51,2,3,3,md,,,,1,0.0
1c3pzy0sywq19gzia233fbi1,5,3,31,3,3,1,md,3.0,0.0,13.248,1,0.0
1c3pzy0sywq19gzia233fbi1,6,3,11,3,3,2,pd,0.0,1.0,25.489,1,0.0
1c3pzy0sywq19gzia233fbi1,7,3,58,3,3,1,pd,0.0,1.0,21.005,1,0.0
1c3pzy0sywq19gzia233fbi1,8,3,17,4,3,2,md,2.0,0.0,26.69,1,0.0
1c3pzy0sywq19gzia233fbi1,9,3,73,4,3,1,md,2.0,0.0,19.058,1,0.0
1c3pzy0sywq19gzia233fbi1,10,3,42,4,3,3,md,1.0,0.0,26.604,1,0.0
1c3pzy0sywq19gzia233fbi1,11,3,80,4,3,2,md,2.0,0.0,21.496,1,0.0
1c3pzy0sywq19gzia233fbi1,12,3,63,5,3,3,md,2.0,0.0,19.649,1,0.0
1c3pzy0sywq19gzia233fbi1,13,3,36,6,3,3,pd,0.0,1.0,26.252,1,0.0
1c3pzy0sywq19gzia233fbi1,14,3,64,6,3,1,md,3.0,0.0,15.661,1,0.0
1c3pzy0sywq19gzia233fbi1,15,3,29,7,3,2,md,0.0,1.0,20.914,1,0.0
1c3pzy0sywq19gzia233fbi1,16,3,66,8,3,3,md,2.0,0.0,14.856,1,0.0
1detwkj1qtf1mzrj8j18eglu,1,3,47,2,2,3,pd,3.0,0.0,15.769,1,0.0
1detwkj1qtf1mzrj8j18eglu,2,3,19,2,1,3,pd,0.0,1.0,11.693,1,0.0
1detwkj1qtf1mzrj8j18eglu,3,3,61,2,1,3,pd,1.0,0.0,25.589,1,0.0
1detwkj1qtf1mzrj8j18eglu,4,3,65,2,2,3,md,0.0,1.0,25.165,1,0.0
1detwkj1qtf1mzrj8j18eglu,5,3,37,3,2,2,pd,0.0,1.0,23.254,1,0.0
1detwkj1qtf1mzrj8j18eglu,6,3,15,3,1,2,pd,0.0,1.0,19.754,1,0.0
1detwkj1qtf1mzrj8j18eglu,7,3,62,3,1,1,pd,0.0,1.0,14.75,1,0.0
1detwkj1qtf1mzrj8j18eglu,8,3,16,4,2,2,pd,0.0,1.0,20.527,1,0.0
1detwkj1qtf1mzrj8j18eglu,9,3,73,4,2,2,md,0.0,1.0,9.471,1,0.0
1detwkj1qtf1mzrj8j18eglu,10,3,53,4,1,1,pd,0.0,1.0,29.582,1,0.0
1detwkj1qtf1mzrj8j18eglu,11,3,67,5,2,2,pd,0.0,1.0,14.137,1,0.0
1detwkj1qtf1mzrj8j18eglu,12,3,14,5,1,1,md,3.0,0.0,29.495,1,0.0
1detwkj1qtf1mzrj8j18eglu,13,3,54,6,2,1,pd,3.0,0.0,7.015,1,0.0
1detwkj1qtf1mzrj8j18eglu,14,3,76,5,1,3,md,0.0,1.0,8.871,1,0.0
1detwkj1qtf1mzrj8j18eglu,15,3,21,7,1,2,md,0.0,1.0,20.207,1,0.0
1detwkj1qtf1mzrj8j18eglu,16,3,35,8,2,3,pd,1.0,0.0,3.742,1,0.0
1f4ok8tfzd4w2epe4epdjmgc,1,3,28,2,1,3,pd,1.0,0.0,11.033,1,0.0
1f4ok8tfzd4w2epe4epdjmgc,2,3,20,2,2,3,md,2.0,0.0,8.034,1,0.0
1f4ok8tfzd4w2epe4epdjmgc,3,3,71,2,1,1,pd,0.0,1.0,11.046,1,0.0
1f4ok8tfzd4w2epe4epdjmgc,4,3,51,2,2,1,md,0.0,1.0,12.926,1,0.0
1f4ok8tfzd4w2epe4epdjmgc,5,3,37,3,1,3,pd,3.0,0.0,27.826,1,0.0
1f4ok8tfzd4w2epe4epdjmgc,6,3,13,3,2,2,md,0.0,1.0,12.138,1,0.0
1f4ok8tfzd4w2epe4epdjmgc,7,3,62,3,2,3,md,0.0,1.0,10.128,1,0.0
1f4ok8tfzd4w2epe4epdjmgc,8,3,16,4,1,3,pd,0.0,1.0,12.005,1,0.0
1f4ok8tfzd4w2epe4epdjmgc,9,3,60,4,1,2,pd,1.0,0.0,22.165,1,0.0
1f4ok8tfzd4w2epe4epdjmgc,10,3,42,4,2,1,md,1.0,0.0,22.064,1,0.0
1f4ok8tfzd4w2epe4epdjmgc,11,3,52,5,2,2,md,0.0,1.0,21.29,1,0.0
1f4ok8tfzd4w2epe4epdjmgc,12,3,74,5,1,1,pd,0.0,1.0,22.392,1,0.0
1f4ok8tfzd4w2epe4epdjmgc,13,3,44,6,2,3,md,0.0,1.0,18.163,1,0.0
1f4ok8tfzd4w2epe4epdjmgc,14,3,54,6,1,2,pd,2.0,0.0,17.566,1,0.0
1f4ok8tfzd4w2epe4epdjmgc,15,3,35,8,1,1,pd,0.0,1.0,29.18,1,0.0
1f4ok8tfzd4w2epe4epdjmgc,16,3,24,7,2,1,md,1.0,0.0,17.433,1,0.0
1f8lbou99ljpmpbex8zgfd7s,1,3,6,2,3,3,md,0.0,1.0,9.479,1,0.0
1f8lbou99ljpmpbex8zgfd7s,2,3,25,2,2,2,md,0.0,1.0,5.197,1,0.0
1f8lbou99ljpmpbex8zgfd7s,3,3,71,2,3,2,pd,0.0,1.0,9.21,1,0.0
1f8lbou99ljpmpbex8zgfd7s,4,3,61,2,2,2,md,0.0,1.0,8.666,1,0.0
1f8lbou99ljpmpbex8zgfd7s,5,3,11,3,2,3,md,0.0,1.0,10.704,1,0.0
1f8lbou99ljpmpbex8zgfd7s,6,3,37,3,1,3,pd,1.0,0.0,12.045,1,0.0
1f8lbou99ljpmpbex8zgfd7s,7,3,58,3,1,3,md,0.0,1.0,15.966,1,0.0
1f8lbou99ljpmpbex8zgfd7s,8,3,17,4,1,1,md,0.0,1.0,12.202,1,0.0
1f8lbou99ljpmpbex8zgfd7s,9,3,23,4,2,3,pd,1.0,0.0,10.099,1,0.0
1f8lbou99ljpmpbex8zgfd7s,10,3,73,4,2,2,md,3.0,0.0,12.527,1,0.0
1f8lbou99ljpmpbex8zgfd7s,11,3,52,5,2,2,md,0.0,1.0,16.864,1,0.0
1f8lbou99ljpmpbex8zgfd7s,12,3,59,5,1,1,pd,0.0,1.0,16.542,1,0.0
1f8lbou99ljpmpbex8zgfd7s,13,3,75,6,2,1,md,0.0,1.0,17.841,1,0.0
1f8lbou99ljpmpbex8zgfd7s,14,3,76,5,3,1,pd,1.0,0.0,11.247,1,0.0
1f8lbou99ljpmpbex8zgfd7s,15,3,45,7,1,2,pd,0.0,1.0,9.488,1,0.0
1f8lbou99ljpmpbex8zgfd7s,16,3,24,7,1,2,md,1.0,0.0,12.31,1,0.0
1g4j85q8ac65m5kej565zy01,1,3,25,2,2,2,pd,0.0,1.0,6.491,1,0.0
1g4j85q8ac65m5kej565zy01,2,3,19,2,1,3,md,2.0,0.0,8.174,1,0.0
1g4j85q8ac65m5kej565zy01,3,3,61,2,1,3,md,0.0,1.0,12.062,1,0.0
1g4j85q8ac65m5kej565zy01,4,3,71,2,2,3,pd,0.0,1.0,10.027,1,0.0
1g4j85q8ac65m5kej565zy01,5,3,13,3,1,3,md,1.0,0.0,13.827,1,0.0
1g4j85q8ac65m5kej565zy01,6,3,34,3,2,2,pd,0.0,1.0,14.04,1,0.0
1g4j85q8ac65m5kej565zy01,7,3,56,3,1,1,md,2.0,0.0,18.211,1,0.0
1g4j85q8ac65m5kej565zy01,8,3,12,4,2,1,pd,0.0,1.0,8.655,1,0.0
1g4j85q8ac65m5kej565zy01,9,3,60,4,2,1,pd,0.0,1.0,18.906,1,0.0
1g4j85q8ac65m5kej565zy01,10,3,23,4,1,1,md,0.0,1.0,12.934,1,0.0
1g4j85q8ac65m5kej565zy01,11,3,74,5,2,3,pd,0.0,1.0,12.703,1,0.0
1g4j85q8ac65m5kej565zy01,12,3,80,4,1,1,md,1.0,0.0,16.243,1,0.0
1g4j85q8ac65m5kej565zy01,13,3,54,6,2,1,pd,0.0,1.0,9.65,1,0.0
1g4j85q8ac65m5kej565zy01,14,3,46,6,1,3,md,2.0,0.0,15.33,1,0.0
1g4j85q8ac65m5kej565zy01,15,3,78,7,2,1,pd,0.0,1.0,15.884,1,0.0
1g4j85q8ac65m5kej565zy01,16,3,24,7,1,2,md,2.0,0.0,6.278,1,0.0
1g706fp1g62ojzs5t47qqpbt,1,3,20,2,2,3,pd,0.0,1.0,16.756,1,0.0
1g706fp1g62ojzs5t47qqpbt,2,3,39,2,1,2,md,1.0,0.0,27.815,1,0.0
1g706fp1g62ojzs5t47qqpbt,3,3,51,2,2,1,pd,0.0,1.0,22.306,1,0.0
1g706fp1g62ojzs5t47qqpbt,4,3,71,2,1,1,md,0.0,1.0,12.518,1,0.0
1g706fp1g62ojzs5t47qqpbt,5,3,31,3,1,3,md,1.0,0.0,28.288,1,0.0
1g706fp1g62ojzs5t47qqpbt,6,3,13,3,2,2,pd,0.0,1.0,17.355,1,0.0
1g706fp1g62ojzs5t47qqpbt,7,3,56,3,2,3,pd,0.0,1.0,27.245,1,0.0
1g706fp1g62ojzs5t47qqpbt,8,3,77,3,1,1,md,0.0,1.0,26.635,1,0.0
1g706fp1g62ojzs5t47qqpbt,9,3,23,4,2,3,pd,0.0,1.0,21.974,1,0.0
1g706fp1g62ojzs5t47qqpbt,10,3,60,4,1,2,md,2.0,0.0,28.494,1,0.0
1g706fp1g62ojzs5t47qqpbt,11,3,59,5,1,1,md,3.0,0.0,16.231,1,0.0
1g706fp1g62ojzs5t47qqpbt,12,3,26,5,2,3,pd,0.0,1.0,26.649,1,0.0
1g706fp1g62ojzs5t47qqpbt,13,3,55,6,1,3,md,0.0,1.0,16.39,1,0.0
1g706fp1g62ojzs5t47qqpbt,14,3,46,6,2,2,pd,0.0,1.0,16.493,1,0.0
1g706fp1g62ojzs5t47qqpbt,15,3,24,7,2,1,pd,0.0,1.0,17.519,1,0.0
1g706fp1g62ojzs5t47qqpbt,16,3,78,7,1,2,md,2.0,0.0,19.833,1,0.0
1hkud3vlgvfpt6j7evej1o1k,1,3,19,2,2,2,pd,0.0,1.0,6.227,1,0.0
1hkud3vlgvfpt6j7evej1o1k,2,3,39,2,1,2,md,0.0,1.0,28.982,1,0.0
1hkud3vlgvfpt6j7evej1o1k,3,3,70,2,1,3,md,0.0,1.0,11.62,1,0.0
1hkud3vlgvfpt6j7evej1o1k,4,3,61,2,2,2,pd,2.0,0.0,29.772,1,0.0
1hkud3vlgvfpt6j7evej1o1k,5,3,18,3,2,1,md,3.0,0.0,21.759,1,0.0
1hkud3vlgvfpt6j7evej1o1k,6,3,31,3,1,3,md,2.0,0.0,18.143,1,0.0
1hkud3vlgvfpt6j7evej1o1k,7,3,12,4,1,2,md,1.0,0.0,14.162,1,0.0
1hkud3vlgvfpt6j7evej1o1k,8,3,56,3,2,3,pd,3.0,0.0,10.237,1,0.0
1hkud3vlgvfpt6j7evej1o1k,9,3,40,4,2,2,pd,0.0,1.0,8.311,1,0.0
1hkud3vlgvfpt6j7evej1o1k,10,3,73,4,1,3,pd,0.0,1.0,15.057,1,0.0
1hkud3vlgvfpt6j7evej1o1k,11,3,74,5,1,1,pd,0.0,1.0,12.846,1,0.0
1hkud3vlgvfpt6j7evej1o1k,12,3,26,5,2,3,pd,2.0,0.0,14.926,1,0.0
1hkud3vlgvfpt6j7evej1o1k,13,3,64,6,1,3,pd,0.0,1.0,8.4,1,0.0
1hkud3vlgvfpt6j7evej1o1k,14,3,44,6,2,3,md,3.0,0.0,16.176,1,0.0
1hkud3vlgvfpt6j7evej1o1k,15,3,45,7,1,2,pd,0.0,1.0,5.557,1,0.0
1hkud3vlgvfpt6j7evej1o1k,16,3,29,7,2,3,md,2.0,0.0,7.031,1,0.0
1hq0a5sv7olx9j5ab2evp9yz,1,3,22,2,1,3,pd,0.0,1.0,15.867,1,0.0
1hq0a5sv7olx9j5ab2evp9yz,2,3,39,2,2,1,md,0.0,1.0,10.596,1,0.0
1hq0a5sv7olx9j5ab2evp9yz,3,3,51,2,1,2,pd,0.0,1.0,13.75,1,0.0
1hq0a5sv7olx9j5ab2evp9yz,4,3,65,2,2,3,md,0.0,1.0,8.908,1,0.0
1hq0a5sv7olx9j5ab2evp9yz,5,3,31,3,2,2,md,0.0,1.0,23.2,1,0.0
1hq0a5sv7olx9j5ab2evp9yz,6,3,13,3,1,3,pd,1.0,0.0,26.341,1,0.0
1hq0a5sv7olx9j5ab2evp9yz,7,3,17,4,2,3,md,1.0,0.0,23.662,1,0.0
1hq0a5sv7olx9j5ab2evp9yz,8,3,58,3,1,3,pd,0.0,1.0,13.523,1,0.0
1hq0a5sv7olx9j5ab2evp9yz,9,3,53,4,1,1,pd,0.0,1.0,14.509,1,0.0
1hq0a5sv7olx9j5ab2evp9yz,10,3,79,4,2,2,md,3.0,0.0,28.975,1,0.0
1hq0a5sv7olx9j5ab2evp9yz,11,3,26,5,1,1,pd,0.0,1.0,22.961,1,0.0
1hq0a5sv7olx9j5ab2evp9yz,12,3,59,5,2,3,md,3.0,0.0,13.362,1,0.0
1hq0a5sv7olx9j5ab2evp9yz,13,3,64,6,2,2,md,0.0,1.0,27.971,1,0.0
1hq0a5sv7olx9j5ab2evp9yz,14,3,36,6,1,2,pd,1.0,0.0,29.74,1,0.0
1hq0a5sv7olx9j5ab2evp9yz,15,3,24,7,1,2,pd,,,,1,0.0
1hq0a5sv7olx9j5ab2evp9yz,16,3,35,8,2,3,md,3.0,0.0,18.081,1,0.0
1l6pr2oa2hzilun8fqzftvcz,1,3,25,2,2,2,md,1.0,0.0,13.49,1,0.0
1l6pr2oa2hzilun8fqzftvcz,2,3,6,2,3,3,md,0.0,1.0,11.27,1,0.0
1l6pr2oa2hzilun8fqzftvcz,3,3,70,2,3,1,pd,0.0,1.0,5.998,1,0.0
1l6pr2oa2hzilun8fqzftvcz,4,3,61,2,3,1,md,0.0,1.0,11.568,1,0.0
1l6pr2oa2hzilun8fqzftvcz,5,3,13,3,1,3,pd,0.0,1.0,21.965,1,0.0
1l6pr2oa2hzilun8fqzftvcz,6,3,37,3,2,2,md,,,,1,0.0
1l6pr2oa2hzilun8fqzftvcz,7,3,58,3,1,3,md,0.0,1.0,11.964,1,0.0
1l6pr2oa2hzilun8fqzftvcz,8,3,77,3,1,1,pd,0.0,1.0,10.792,1,0.0
1l6pr2oa2hzilun8fqzftvcz,9,3,42,4,1,2,md,0.0,1.0,20.601,1,0.0
1l6pr2oa2hzilun8fqzftvcz,10,3,60,4,3,3,md,0.0,1.0,22.567,1,0.0
1l6pr2oa2hzilun8fqzftvcz,11,3,26,5,2,3,pd,3.0,0.0,18.712,1,0.0
1l6pr2oa2hzilun8fqzftvcz,12,3,63,5,3,3,md,0.0,1.0,16.533,1,0.0
1l6pr2oa2hzilun8fqzftvcz,13,3,76,5,2,2,pd,1.0,0.0,9.115,1,0.0
1l6pr2oa2hzilun8fqzftvcz,14,3,55,6,3,1,md,3.0,0.0,8.38,1,0.0
1l6pr2oa2hzilun8fqzftvcz,15,3,30,7,2,1,md,0.0,1.0,13.672,1,0.0
1l6pr2oa2hzilun8fqzftvcz,16,3,78,7,2,1,md,3.0,0.0,11.25,1,0.0
1lpe7v1rcx3fr2hpummtb1fs,1,3,22,2,1,3,md,0.0,1.0,24.368,1,0.0
1lpe7v1rcx3fr2hpummtb1fs,2,3,39,2,2,1,pd,0.0,1.0,28.801,1,0.0
1lpe7v1rcx3fr2hpummtb1fs,3,3,51,2,1,2,md,0.0,1.0,18.266,1,0.0
1lpe7v1rcx3fr2hpummtb1fs,4,3,10,3,2,2,pd,0.0,1.0,17.022,1,0.0
1lpe7v1rcx3fr2hpummtb1fs,5,3,37,3,2,2,pd,0.0,1.0,28.91,1,0.0
1lpe7v1rcx3fr2hpummtb1fs,6,3,18,3,1,2,md,0.0,1.0,27.034,1,0.0
1lpe7v1rcx3fr2hpummtb1fs,7,3,62,3,1,1,md,0.0,1.0,11.745,1,0.0
1lpe7v1rcx3fr2hpummtb1fs,8,3,12,4,2,1,pd,0.0,1.0,20.951,1,0.0
1lpe7v1rcx3fr2hpummtb1fs,9,3,79,4,2,2,pd,0.0,1.0,10.579,1,0.0
1lpe7v1rcx3fr2hpummtb1fs,10,3,23,4,1,1,md,0.0,1.0,23.014,1,0.0
1lpe7v1rcx3fr2hpummtb1fs,11,3,59,5,2,3,pd,0.0,1.0,19.734,1,0.0
1lpe7v1rcx3fr2hpummtb1fs,12,3,52,5,1,3,md,1.0,0.0,24.133,1,0.0
1lpe7v1rcx3fr2hpummtb1fs,13,3,36,6,1,2,md,3.0,0.0,26.837,1,0.0
1lpe7v1rcx3fr2hpummtb1fs,14,3,64,6,2,2,pd,3.0,0.0,23.685,1,0.0
1lpe7v1rcx3fr2hpummtb1fs,15,3,45,7,2,1,pd,0.0,1.0,21.879,1,0.0
1lpe7v1rcx3fr2hpummtb1fs,16,3,29,7,1,1,md,0.0,1.0,23.34,1,0.0
1m4rjpumvcw0huviraq7tny8,1,3,19,2,2,2,pd,0.0,1.0,7.29,1,0.0
1m4rjpumvcw0huviraq7tny8,2,3,39,2,1,2,pd,0.0,1.0,19.092,1,0.0
1m4rjpumvcw0huviraq7tny8,3,3,61,2,2,2,md,0.0,1.0,16.514,1,0.0
1m4rjpumvcw0huviraq7tny8,4,3,71,2,1,1,pd,0.0,1.0,6.698,1,0.0
1m4rjpumvcw0huviraq7tny8,5,3,13,3,2,2,md,1.0,0.0,20.383,1,0.0
1m4rjpumvcw0huviraq7tny8,6,3,34,3,1,3,pd,2.0,0.0,12.818,1,0.0
1m4rjpumvcw0huviraq7tny8,7,3,58,3,2,2,md,0.0,1.0,9.658,1,0.0
1m4rjpumvcw0huviraq7tny8,8,3,16,4,1,3,pd,0.0,1.0,14.756,1,0.0
1m4rjpumvcw0huviraq7tny8,9,3,40,4,2,2,pd,0.0,1.0,18.473,1,0.0
1m4rjpumvcw0huviraq7tny8,10,3,73,4,1,3,pd,3.0,0.0,18.962,1,0.0
1m4rjpumvcw0huviraq7tny8,11,3,80,4,2,3,pd,3.0,0.0,22.076,1,0.0
1m4rjpumvcw0huviraq7tny8,12,3,74,5,1,1,md,0.0,1.0,21.432,1,0.0
1m4rjpumvcw0huviraq7tny8,13,3,46,6,2,2,md,3.0,0.0,23.292,1,0.0
1m4rjpumvcw0huviraq7tny8,14,3,75,6,1,2,pd,0.0,1.0,11.737,1,0.0
1m4rjpumvcw0huviraq7tny8,15,3,78,7,1,2,md,0.0,1.0,19.218,1,0.0
1m4rjpumvcw0huviraq7tny8,16,3,24,7,2,1,pd,3.0,0.0,7.245,1,0.0
1naj3589qwupt0nxk4w2xmmx,1,3,22,2,2,2,md,2.0,0.0,3.298,1,0.0
1naj3589qwupt0nxk4w2xmmx,2,3,47,2,1,1,pd,2.0,0.0,12.018,1,0.0
1naj3589qwupt0nxk4w2xmmx,3,3,49,2,2,2,md,0.0,1.0,11.931,1,0.0
1naj3589qwupt0nxk4w2xmmx,4,3,70,2,1,3,pd,0.0,1.0,9.591,1,0.0
1naj3589qwupt0nxk4w2xmmx,5,3,15,3,2,1,md,1.0,0.0,12.777,1,0.0
1naj3589qwupt0nxk4w2xmmx,6,3,31,3,1,3,pd,0.0,1.0,11.0,1,0.0
1naj3589qwupt0nxk4w2xmmx,7,3,58,3,2,2,md,0.0,1.0,15.317,1,0.0
1naj3589qwupt0nxk4w2xmmx,8,3,17,4,1,1,pd,0.0,1.0,7.884,1,0.0
1naj3589qwupt0nxk4w2xmmx,9,3,79,4,1,3,pd,0.0,1.0,5.175,1,0.0
1naj3589qwupt0nxk4w2xmmx,10,3,40,4,2,2,md,2.0,0.0,12.864,1,0.0
1naj3589qwupt0nxk4w2xmmx,11,3,52,5,2,2,md,3.0,0.0,8.517,1,0.0
1naj3589qwupt0nxk4w2xmmx,12,3,67,5,1,3,pd,0.0,1.0,5.186,1,0.0
1naj3589qwupt0nxk4w2xmmx,13,3,64,6,1,3,pd,1.0,0.0,11.432,1,0.0
1naj3589qwupt0nxk4w2xmmx,14,3,44,6,2,3,md,0.0,1.0,21.382,1,0.0
1naj3589qwupt0nxk4w2xmmx,15,3,45,7,1,2,pd,0.0,1.0,5.78,1,0.0
1naj3589qwupt0nxk4w2xmmx,16,3,29,7,2,3,md,1.0,0.0,6.758,1,0.0
1nloeobf618lp422dprqnz4b,1,3,39,2,2,1,md,2.0,0.0,10.006,1,0.0
1nloeobf618lp422dprqnz4b,2,3,19,2,1,3,pd,0.0,1.0,8.615,1,0.0
1nloeobf618lp422dprqnz4b,3,3,49,2,3,1,pd,0.0,1.0,7.986,1,0.0
1nloeobf618lp422dprqnz4b,4,3,65,2,1,1,pd,0.0,1.0,9.239,1,0.0
1nloeobf618lp422dprqnz4b,5,3,15,3,2,1,pd,3.0,0.0,6.257,1,0.0
1nloeobf618lp422dprqnz4b,6,3,37,3,2,2,md,1.0,0.0,6.475,1,0.0
1nloeobf618lp422dprqnz4b,7,3,62,3,1,1,md,2.0,0.0,12.826,1,0.0
1nloeobf618lp422dprqnz4b,8,3,12,4,3,3,pd,1.0,0.0,7.293,1,0.0
1nloeobf618lp422dprqnz4b,9,3,73,4,3,1,md,3.0,0.0,15.913,1,0.0
1nloeobf618lp422dprqnz4b,10,3,40,4,2,2,md,0.0,1.0,9.231,1,0.0
1nloeobf618lp422dprqnz4b,11,3,26,5,3,2,md,1.0,0.0,10.803,1,0.0
1nloeobf618lp422dprqnz4b,12,3,74,5,3,2,pd,0.0,1.0,11.037,1,0.0
1nloeobf618lp422dprqnz4b,13,3,54,6,3,3,pd,1.0,0.0,10.827,1,0.0
1nloeobf618lp422dprqnz4b,14,3,36,6,1,2,md,3.0,0.0,12.053,1,0.0
1nloeobf618lp422dprqnz4b,15,3,24,7,2,1,md,1.0,0.0,8.373,1,0.0
1nloeobf618lp422dprqnz4b,16,3,35,8,1,1,md,1.0,0.0,9.187,1,0.0
1qteoxfbiw6vg2dyk6yvoeih,1,3,6,2,1,2,pd,2.0,0.0,7.73,1,0.0
1qteoxfbiw6vg2dyk6yvoeih,2,3,28,2,2,2,pd,0.0,1.0,13.692,1,0.0
1qteoxfbiw6vg2dyk6yvoeih,3,3,49,2,1,3,pd,0.0,1.0,13.721,1,0.0
1qteoxfbiw6vg2dyk6yvoeih,4,3,10,3,2,2,md,2.0,0.0,26.691,1,0.0
1qteoxfbiw6vg2dyk6yvoeih,5,3,34,3,2,2,pd,0.0,1.0,24.565,1,0.0
1qteoxfbiw6vg2dyk6yvoeih,6,3,18,3,1,2,pd,0.0,1.0,24.591,1,0.0
1qteoxfbiw6vg2dyk6yvoeih,7,3,77,3,2,3,pd,0.0,1.0,17.449,1,0.0
1qteoxfbiw6vg2dyk6yvoeih,8,3,62,3,1,1,md,0.0,1.0,14.219,1,0.0
1qteoxfbiw6vg2dyk6yvoeih,9,3,72,4,2,1,pd,0.0,1.0,18.841,1,0.0
1qteoxfbiw6vg2dyk6yvoeih,10,3,23,4,1,1,pd,0.0,1.0,25.609,1,0.0
1qteoxfbiw6vg2dyk6yvoeih,11,3,26,5,1,1,md,0.0,1.0,27.285,1,0.0
1qteoxfbiw6vg2dyk6yvoeih,12,3,67,5,2,2,pd,2.0,0.0,29.966,1,0.0
1qteoxfbiw6vg2dyk6yvoeih,13,3,46,6,1,3,md,3.0,0.0,29.347,1,0.0
1qteoxfbiw6vg2dyk6yvoeih,14,3,75,6,2,1,pd,0.0,1.0,22.313,1,0.0
1qteoxfbiw6vg2dyk6yvoeih,15,3,66,8,2,1,md,3.0,0.0,15.54,1,0.0
1qteoxfbiw6vg2dyk6yvoeih,16,3,29,7,1,1,md,0.0,1.0,19.77,1,0.0
1rsiglxx0fenu9n8b5h1rpmz,1,3,25,2,1,3,pd,3.0,0.0,14.214,1,0.0
1rsiglxx0fenu9n8b5h1rpmz,2,3,6,2,1,2,md,0.0,1.0,11.148,1,0.0
1rsiglxx0fenu9n8b5h1rpmz,3,3,10,3,2,2,pd,0.0,1.0,11.037,1,0.0
1rsiglxx0fenu9n8b5h1rpmz,4,3,49,2,1,3,md,0.0,1.0,12.135,1,0.0
1rsiglxx0fenu9n8b5h1rpmz,5,3,13,3,1,3,md,1.0,0.0,8.911,1,0.0
1rsiglxx0fenu9n8b5h1rpmz,6,3,37,3,2,2,md,,,,1,2.0
1rsiglxx0fenu9n8b5h1rpmz,7,3,56,3,1,1,md,1.0,0.0,5.742,1,0.0
1rsiglxx0fenu9n8b5h1rpmz,8,3,12,4,2,1,md,1.0,0.0,7.746,1,0.0
1rsiglxx0fenu9n8b5h1rpmz,9,3,72,4,2,1,md,0.0,1.0,5.288,1,0.0
1rsiglxx0fenu9n8b5h1rpmz,10,3,53,4,2,3,md,0.0,1.0,5.215,1,0.0
1rsiglxx0fenu9n8b5h1rpmz,11,3,26,5,2,3,md,2.0,0.0,7.344,1,0.0
1rsiglxx0fenu9n8b5h1rpmz,12,3,59,5,1,1,md,2.0,0.0,9.547,1,0.0
1rsiglxx0fenu9n8b5h1rpmz,13,3,76,5,1,3,pd,1.0,0.0,3.552,1,0.0
1rsiglxx0fenu9n8b5h1rpmz,14,3,54,6,3,3,pd,1.0,0.0,4.203,1,0.0
1rsiglxx0fenu9n8b5h1rpmz,15,3,35,8,1,1,pd,2.0,0.0,2.761,1,0.0
1rsiglxx0fenu9n8b5h1rpmz,16,3,21,7,3,3,md,2.0,0.0,7.878,1,0.0
1u89kobgictbxh3tts4p9ovc,1,3,20,2,1,1,md,0.0,1.0,15.777,1,0.0
1u89kobgictbxh3tts4p9ovc,2,3,47,2,2,3,pd,2.0,0.0,24.988,1,0.0
1u89kobgictbxh3tts4p9ovc,3,3,65,2,2,3,pd,0.0,1.0,9.299,1,0.0
1u89kobgictbxh3tts4p9ovc,4,3,61,2,1,3,md,2.0,0.0,22.692,1,0.0
1u89kobgictbxh3tts4p9ovc,5,3,34,3,2,2,pd,0.0,1.0,25.585,1,0.0
1u89kobgictbxh3tts4p9ovc,6,3,18,3,1,2,md,3.0,0.0,28.242,1,0.0
1u89kobgictbxh3tts4p9ovc,7,3,17,4,2,3,pd,1.0,0.0,26.33,1,0.0
1u89kobgictbxh3tts4p9ovc,8,3,56,3,1,1,md,1.0,0.0,18.138,1,0.0
1u89kobgictbxh3tts4p9ovc,9,3,53,4,1,1,md,0.0,1.0,29.315,1,0.0
1u89kobgictbxh3tts4p9ovc,10,3,60,4,2,1,pd,0.0,1.0,28.242,1,0.0
1u89kobgictbxh3tts4p9ovc,11,3,80,4,1,1,md,0.0,1.0,14.636,1,0.0
1u89kobgictbxh3tts4p9ovc,12,3,74,5,2,3,pd,0.0,1.0,15.939,1,0.0
1u89kobgictbxh3tts4p9ovc,13,3,54,6,2,1,pd,0.0,1.0,19.538,1,0.0
1u89kobgictbxh3tts4p9ovc,14,3,46,6,1,3,md,1.0,0.0,22.49,1,0.0
1u89kobgictbxh3tts4p9ovc,15,3,66,8,2,1,pd,0.0,1.0,9.443,1,0.0
1u89kobgictbxh3tts4p9ovc,16,3,30,7,1,2,md,0.0,1.0,16.402,1,0.0
1v5wju57r2v3rdfpkdkdtq8t,1,3,19,2,2,2,md,3.0,0.0,5.056,1,0.0
1v5wju57r2v3rdfpkdkdtq8t,2,3,28,2,1,3,pd,0.0,1.0,25.833,1,0.0
1v5wju57r2v3rdfpkdkdtq8t,3,3,51,2,2,1,md,0.0,1.0,16.206,1,0.0
1v5wju57r2v3rdfpkdkdtq8t,4,3,65,2,1,1,pd,0.0,1.0,11.948,1,0.0
1v5wju57r2v3rdfpkdkdtq8t,5,3,27,3,1,2,md,0.0,1.0,24.945,1,0.0
1v5wju57r2v3rdfpkdkdtq8t,6,3,13,3,2,2,pd,0.0,1.0,11.651,1,0.0
1v5wju57r2v3rdfpkdkdtq8t,7,3,58,3,2,2,pd,0.0,1.0,7.228,1,0.0
1v5wju57r2v3rdfpkdkdtq8t,8,3,17,4,1,1,md,0.0,1.0,21.185,1,0.0
1v5wju57r2v3rdfpkdkdtq8t,9,3,79,4,1,3,md,3.0,0.0,6.63,1,0.0
1v5wju57r2v3rdfpkdkdtq8t,10,3,40,4,2,2,pd,0.0,1.0,0.927,1,0.0
1v5wju57r2v3rdfpkdkdtq8t,11,3,67,5,1,3,pd,1.0,0.0,0.307,1,0.0
1v5wju57r2v3rdfpkdkdtq8t,12,3,14,5,2,3,pd,2.0,0.0,0.285,1,0.0
1v5wju57r2v3rdfpkdkdtq8t,13,3,76,5,2,2,md,0.0,1.0,2.665,1,0.0
1v5wju57r2v3rdfpkdkdtq8t,14,3,54,6,1,2,pd,3.0,0.0,0.335,1,0.0
1v5wju57r2v3rdfpkdkdtq8t,15,3,45,7,1,2,pd,3.0,0.0,0.268,1,0.0
1v5wju57r2v3rdfpkdkdtq8t,16,3,24,7,2,1,md,2.0,0.0,0.809,1,0.0
1v5zmxanlao580iavm9bglqo,1,3,39,2,3,3,md,0.0,1.0,16.418,1,0.0
1v5zmxanlao580iavm9bglqo,2,3,6,2,3,3,md,0.0,1.0,11.528,1,0.0
1v5zmxanlao580iavm9bglqo,3,3,61,2,3,1,md,3.0,0.0,9.535,1,0.0
1v5zmxanlao580iavm9bglqo,4,3,70,2,1,3,md,0.0,1.0,19.867,1,0.0
1v5zmxanlao580iavm9bglqo,5,3,34,3,2,2,pd,2.0,0.0,7.911,1,0.0
1v5zmxanlao580iavm9bglqo,6,3,11,3,1,1,md,0.0,1.0,6.147,1,0.0
1v5zmxanlao580iavm9bglqo,7,3,56,3,1,1,pd,0.0,1.0,5.143,1,0.0
1v5zmxanlao580iavm9bglqo,8,3,17,4,1,1,pd,1.0,0.0,10.537,1,0.0
1v5zmxanlao580iavm9bglqo,9,3,79,4,3,1,pd,2.0,0.0,6.721,1,0.0
1v5zmxanlao580iavm9bglqo,10,3,40,4,3,1,pd,,,,1,0.0
1v5zmxanlao580iavm9bglqo,11,3,59,5,3,2,md,2.0,0.0,1.813,1,0.0
1v5zmxanlao580iavm9bglqo,12,3,52,5,3,1,pd,2.0,0.0,5.912,1,0.0
1v5zmxanlao580iavm9bglqo,13,3,64,6,2,2,pd,1.0,0.0,8.284,1,0.0
1v5zmxanlao580iavm9bglqo,14,3,36,6,1,2,pd,0.0,1.0,7.552,1,0.0
1v5zmxanlao580iavm9bglqo,15,3,21,7,3,3,pd,3.0,0.0,11.597,1,0.0
1v5zmxanlao580iavm9bglqo,16,3,66,8,2,1,pd,2.0,0.0,7.453,1,0.0
1vezn6h45hqrn0m1ic7asy8v,1,3,6,2,3,3,pd,0.0,1.0,5.05,1,0.0
1vezn6h45hqrn0m1ic7asy8v,2,3,39,2,3,3,md,0.0,1.0,16.451,1,0.0
1vezn6h45hqrn0m1ic7asy8v,3,3,65,2,3,2,md,0.0,1.0,5.792,1,0.0
1vezn6h45hqrn0m1ic7asy8v,4,3,61,2,3,1,pd,0.0,1.0,16.17,1,0.0
1vezn6h45hqrn0m1ic7asy8v,5,3,37,3,3,1,pd,1.0,0.0,11.312,1,0.0
1vezn6h45hqrn0m1ic7asy8v,6,3,18,3,3,3,pd,1.0,0.0,10.988,1,0.0
1vezn6h45hqrn0m1ic7asy8v,7,3,16,4,3,1,md,0.0,1.0,16.378,1,0.0
1vezn6h45hqrn0m1ic7asy8v,8,3,56,3,3,2,pd,0.0,1.0,20.22,1,0.0
1vezn6h45hqrn0m1ic7asy8v,9,3,73,4,3,1,md,0.0,1.0,23.712,1,0.0
1vezn6h45hqrn0m1ic7asy8v,10,3,23,4,3,2,md,0.0,1.0,13.257,1,0.0
1vezn6h45hqrn0m1ic7asy8v,11,3,74,5,3,2,md,0.0,1.0,17.613,1,0.0
1vezn6h45hqrn0m1ic7asy8v,12,3,80,4,3,2,pd,3.0,0.0,25.645,1,0.0
1vezn6h45hqrn0m1ic7asy8v,13,3,44,6,3,2,pd,0.0,1.0,11.483,1,0.0
1vezn6h45hqrn0m1ic7asy8v,14,3,55,6,3,1,md,0.0,1.0,25.42,1,0.0
1vezn6h45hqrn0m1ic7asy8v,15,3,45,7,3,3,md,0.0,1.0,20.508,1,0.0
1vezn6h45hqrn0m1ic7asy8v,16,3,21,7,3,3,pd,1.0,0.0,22.344,1,0.0
1w57id0aohs1ngpw3se1jl1x,1,3,28,2,3,1,pd,0.0,1.0,14.178,1,0.0
1w57id0aohs1ngpw3se1jl1x,2,3,6,2,3,3,pd,0.0,1.0,12.018,1,0.0
1w57id0aohs1ngpw3se1jl1x,3,3,49,2,3,1,md,0.0,1.0,21.94,1,0.0
1w57id0aohs1ngpw3se1jl1x,4,3,70,2,3,1,md,0.0,1.0,13.202,1,0.0
1w57id0aohs1ngpw3se1jl1x,5,3,31,3,3,1,md,1.0,0.0,25.596,1,0.0
1w57id0aohs1ngpw3se1jl1x,6,3,11,3,3,2,md,2.0,0.0,28.619,1,0.0
1w57id0aohs1ngpw3se1jl1x,7,3,62,3,3,2,md,0.0,1.0,20.578,1,0.0
1w57id0aohs1ngpw3se1jl1x,8,3,17,4,3,2,pd,0.0,1.0,22.708,1,0.0
1w57id0aohs1ngpw3se1jl1x,9,3,23,4,3,2,pd,0.0,1.0,19.276,1,0.0
1w57id0aohs1ngpw3se1jl1x,10,3,73,4,3,1,pd,0.0,1.0,29.265,1,0.0
1w57id0aohs1ngpw3se1jl1x,11,3,80,4,3,2,md,0.0,1.0,26.946,1,0.0
1w57id0aohs1ngpw3se1jl1x,12,3,59,5,3,2,md,3.0,0.0,29.396,1,0.0
1w57id0aohs1ngpw3se1jl1x,13,3,46,6,3,1,pd,0.0,1.0,19.548,1,0.0
1w57id0aohs1ngpw3se1jl1x,14,3,75,6,3,3,pd,0.0,1.0,25.099,1,0.0
1w57id0aohs1ngpw3se1jl1x,15,3,45,7,3,3,md,0.0,1.0,28.458,1,0.0
1w57id0aohs1ngpw3se1jl1x,16,3,21,7,3,3,md,3.0,0.0,27.708,1,0.0
1wivxuhm01hyzk7nc39139yx,1,3,20,2,3,2,md,0.0,1.0,19.562,1,0.0
1wivxuhm01hyzk7nc39139yx,2,3,28,2,3,1,md,0.0,1.0,14.412,1,0.0
1wivxuhm01hyzk7nc39139yx,3,3,65,2,3,2,pd,0.0,1.0,6.884,1,0.0
1wivxuhm01hyzk7nc39139yx,4,3,49,2,3,1,md,0.0,1.0,7.529,1,0.0
1wivxuhm01hyzk7nc39139yx,5,3,18,3,3,3,pd,0.0,1.0,12.372,1,0.0
1wivxuhm01hyzk7nc39139yx,6,3,31,3,3,1,pd,0.0,1.0,17.052,1,0.0
1wivxuhm01hyzk7nc39139yx,7,3,17,4,3,2,md,3.0,0.0,18.154,1,0.0
1wivxuhm01hyzk7nc39139yx,8,3,69,3,3,3,pd,0.0,1.0,11.164,1,0.0
1wivxuhm01hyzk7nc39139yx,9,3,42,4,3,3,pd,0.0,1.0,11.618,1,0.0
1wivxuhm01hyzk7nc39139yx,10,3,72,4,3,3,pd,0.0,1.0,25.562,1,0.0
1wivxuhm01hyzk7nc39139yx,11,3,52,5,3,1,md,2.0,0.0,27.426,1,0.0
1wivxuhm01hyzk7nc39139yx,12,3,74,5,3,2,md,0.0,1.0,15.737,1,0.0
1wivxuhm01hyzk7nc39139yx,13,3,55,6,3,1,pd,0.0,1.0,11.946,1,0.0
1wivxuhm01hyzk7nc39139yx,14,3,46,6,3,1,pd,0.0,1.0,21.594,1,0.0
1wivxuhm01hyzk7nc39139yx,15,3,35,8,3,2,pd,0.0,1.0,21.803,1,0.0
1wivxuhm01hyzk7nc39139yx,16,3,24,7,3,3,pd,0.0,1.0,27.044,1,0.0
1xtrx6f9pyiq1n0rxu28a115,1,3,28,2,3,1,pd,1.0,0.0,3.036,1,0.0
1xtrx6f9pyiq1n0rxu28a115,2,3,19,2,3,1,pd,0.0,1.0,5.154,1,0.0
1xtrx6f9pyiq1n0rxu28a115,3,3,70,2,3,1,md,0.0,1.0,13.545,1,0.0
1xtrx6f9pyiq1n0rxu28a115,4,3,49,2,3,1,md,0.0,1.0,13.607,1,0.0
1xtrx6f9pyiq1n0rxu28a115,5,3,27,3,3,3,md,1.0,0.0,1.722,1,0.0
1xtrx6f9pyiq1n0rxu28a115,6,3,18,3,3,3,md,1.0,0.0,2.492,1,0.0
1xtrx6f9pyiq1n0rxu28a115,7,3,16,4,3,1,pd,0.0,1.0,2.079,1,0.0
1xtrx6f9pyiq1n0rxu28a115,8,3,62,3,3,2,md,3.0,0.0,6.625,1,0.0
1xtrx6f9pyiq1n0rxu28a115,9,3,79,4,3,1,md,2.0,0.0,5.886,1,0.0
1xtrx6f9pyiq1n0rxu28a115,10,3,53,4,3,2,md,0.0,1.0,12.299,1,0.0
1xtrx6f9pyiq1n0rxu28a115,11,3,14,5,3,2,md,2.0,0.0,0.693,1,0.0
1xtrx6f9pyiq1n0rxu28a115,12,3,63,5,3,3,pd,0.0,1.0,2.74,1,0.0
1xtrx6f9pyiq1n0rxu28a115,13,3,54,6,3,3,pd,2.0,0.0,1.542,1,0.0
1xtrx6f9pyiq1n0rxu28a115,14,3,76,5,3,1,md,2.0,0.0,4.412,1,0.0
1xtrx6f9pyiq1n0rxu28a115,15,3,29,7,3,2,pd,1.0,0.0,5.168,1,0.0
1xtrx6f9pyiq1n0rxu28a115,16,3,35,8,3,2,pd,0.0,1.0,0.936,1,0.0
1y5qgx77f4louwxnfrfaazed,1,3,28,2,2,2,md,0.0,1.0,21.612,1,0.0
1y5qgx77f4louwxnfrfaazed,2,3,19,2,1,3,md,0.0,1.0,17.294,1,0.0
1y5qgx77f4louwxnfrfaazed,3,3,51,2,1,2,pd,0.0,1.0,18.491,1,0.0
1y5qgx77f4louwxnfrfaazed,4,3,10,3,2,2,md,0.0,1.0,12.188,1,0.0
1y5qgx77f4louwxnfrfaazed,5,3,27,3,2,1,md,0.0,1.0,16.555,1,0.0
1y5qgx77f4louwxnfrfaazed,6,3,11,3,1,1,pd,0.0,1.0,19.348,1,0.0
1y5qgx77f4louwxnfrfaazed,7,3,62,3,1,1,md,0.0,1.0,19.831,1,0.0
1y5qgx77f4louwxnfrfaazed,8,3,77,3,2,3,pd,0.0,1.0,28.185,1,0.0
1y5qgx77f4louwxnfrfaazed,9,3,60,4,2,1,md,2.0,0.0,18.086,1,0.0
1y5qgx77f4louwxnfrfaazed,10,3,23,4,1,1,pd,0.0,1.0,10.733,1,0.0
1y5qgx77f4louwxnfrfaazed,11,3,52,5,1,3,pd,2.0,0.0,24.142,1,0.0
1y5qgx77f4louwxnfrfaazed,12,3,59,5,2,3,md,3.0,0.0,27.878,1,0.0
1y5qgx77f4louwxnfrfaazed,13,3,75,6,2,1,pd,3.0,0.0,9.699,1,0.0
1y5qgx77f4louwxnfrfaazed,14,3,36,6,1,2,md,2.0,0.0,15.314,1,0.0
1y5qgx77f4louwxnfrfaazed,15,3,29,7,1,1,md,3.0,0.0,16.058,1,0.0
1y5qgx77f4louwxnfrfaazed,16,3,35,8,2,3,pd,2.0,0.0,4.936,1,0.0
1y7vnm5uywcpkpjvywthival,1,3,25,2,2,2,md,0.0,1.0,12.369,1,0.0
1y7vnm5uywcpkpjvywthival,2,3,6,2,1,2,pd,1.0,0.0,8.343,1,0.0
1y7vnm5uywcpkpjvywthival,3,3,71,2,2,3,md,0.0,1.0,7.911,1,0.0
1y7vnm5uywcpkpjvywthival,4,3,51,2,1,2,pd,1.0,0.0,8.332,1,0.0
1y7vnm5uywcpkpjvywthival,5,3,37,3,2,2,md,3.0,0.0,15.551,1,0.0
1y7vnm5uywcpkpjvywthival,6,3,13,3,1,3,pd,1.0,0.0,9.819,1,0.0
1y7vnm5uywcpkpjvywthival,7,3,17,4,2,3,md,3.0,0.0,10.189,1,0.0
1y7vnm5uywcpkpjvywthival,8,3,62,3,1,1,pd,0.0,1.0,8.343,1,0.0
1y7vnm5uywcpkpjvywthival,9,3,73,4,2,2,md,0.0,1.0,13.073,1,0.0
1y7vnm5uywcpkpjvywthival,10,3,53,4,1,1,pd,0.0,1.0,8.23,1,0.0
1y7vnm5uywcpkpjvywthival,11,3,59,5,2,3,md,2.0,0.0,6.679,1,0.0
1y7vnm5uywcpkpjvywthival,12,3,52,5,1,3,pd,0.0,1.0,7.421,1,0.0
1y7vnm5uywcpkpjvywthival,13,3,44,6,1,1,pd,1.0,0.0,8.649,1,0.0
1y7vnm5uywcpkpjvywthival,14,3,64,6,2,2,md,2.0,0.0,4.473,1,0.0
1y7vnm5uywcpkpjvywthival,15,3,35,8,2,3,md,2.0,0.0,1.509,1,0.0
1y7vnm5uywcpkpjvywthival,16,3,21,7,1,2,pd,0.0,1.0,1.664,1,0.0
1ygwp7fma3fsmhfvk0arkk6z,1,3,39,2,1,2,pd,,,,1,0.0
1ygwp7fma3fsmhfvk0arkk6z,2,3,6,2,2,1,md,0.0,1.0,17.292,1,0.0
1ygwp7fma3fsmhfvk0arkk6z,3,3,49,2,2,2,pd,0.0,1.0,27.377,1,0.0
1ygwp7fma3fsmhfvk0arkk6z,4,3,65,2,1,1,pd,2.0,0.0,18.504,1,0.0
1ygwp7fma3fsmhfvk0arkk6z,5,3,37,3,1,3,md,2.0,0.0,28.819,1,0.0
1ygwp7fma3fsmhfvk0arkk6z,6,3,18,3,2,1,md,0.0,1.0,28.903,1,0.0
1ygwp7fma3fsmhfvk0arkk6z,7,3,17,4,1,1,md,0.0,1.0,21.105,1,0.0
1ygwp7fma3fsmhfvk0arkk6z,8,3,58,3,2,2,md,3.0,0.0,27.34,1,0.0
1ygwp7fma3fsmhfvk0arkk6z,9,3,73,4,1,3,pd,0.0,1.0,24.896,1,0.0
1ygwp7fma3fsmhfvk0arkk6z,10,3,23,4,2,3,md,0.0,1.0,21.873,1,0.0
1ygwp7fma3fsmhfvk0arkk6z,11,3,26,5,2,3,pd,3.0,0.0,17.707,1,0.0
1ygwp7fma3fsmhfvk0arkk6z,12,3,63,5,1,2,md,3.0,0.0,19.071,1,0.0
1ygwp7fma3fsmhfvk0arkk6z,13,3,36,6,2,1,pd,0.0,1.0,19.713,1,0.0
1ygwp7fma3fsmhfvk0arkk6z,14,3,54,6,1,2,md,3.0,0.0,26.716,1,0.0
1ygwp7fma3fsmhfvk0arkk6z,15,3,78,7,1,2,pd,2.0,0.0,19.513,1,0.0
1ygwp7fma3fsmhfvk0arkk6z,16,3,29,7,2,3,pd,0.0,1.0,29.989,1,0.0
1ztz9o9srgpb2yhdsxnv7ecj,1,3,19,2,2,2,md,0.0,1.0,12.659,1,0.0
1ztz9o9srgpb2yhdsxnv7ecj,2,3,25,2,1,3,pd,0.0,1.0,12.948,1,0.0
1ztz9o9srgpb2yhdsxnv7ecj,3,3,71,2,1,1,md,0.0,1.0,7.0,1,0.0
1ztz9o9srgpb2yhdsxnv7ecj,4,3,50,2,2,3,pd,0.0,1.0,11.471,1,0.0
1ztz9o9srgpb2yhdsxnv7ecj,5,3,11,3,2,3,md,0.0,1.0,27.446,1,0.0
1ztz9o9srgpb2yhdsxnv7ecj,6,3,31,3,1,3,pd,,,,1,2.0
1ztz9o9srgpb2yhdsxnv7ecj,7,3,56,3,2,3,pd,,,,1,2.0
1ztz9o9srgpb2yhdsxnv7ecj,8,3,16,4,1,3,md,0.0,1.0,18.698,1,3.0
1ztz9o9srgpb2yhdsxnv7ecj,9,3,53,4,2,3,md,,,,1,1.0
1ztz9o9srgpb2yhdsxnv7ecj,10,3,79,4,1,3,md,,,,1,0.0
1ztz9o9srgpb2yhdsxnv7ecj,11,3,26,5,2,3,pd,,,,1,0.0
1ztz9o9srgpb2yhdsxnv7ecj,12,3,63,5,1,2,pd,,,,1,0.0
1ztz9o9srgpb2yhdsxnv7ecj,13,3,64,6,1,3,pd,,,,1,0.0
1ztz9o9srgpb2yhdsxnv7ecj,14,3,44,6,2,3,md,,,,1,1.0
1ztz9o9srgpb2yhdsxnv7ecj,15,3,66,8,1,2,pd,1.0,0.0,8.525,1,0.0
1ztz9o9srgpb2yhdsxnv7ecj,16,3,29,7,2,3,pd,0.0,1.0,7.646,1,0.0
21nhqer963k7x63zd544062n,1,3,19,2,1,3,pd,3.0,0.0,6.185,1,0.0
21nhqer963k7x63zd544062n,2,3,25,2,3,1,md,0.0,1.0,7.119,1,0.0
21nhqer963k7x63zd544062n,3,3,50,2,1,1,md,0.0,1.0,14.873,1,0.0
21nhqer963k7x63zd544062n,4,3,70,2,2,2,md,0.0,1.0,4.498,1,0.0
21nhqer963k7x63zd544062n,5,3,15,3,3,3,pd,0.0,1.0,7.867,1,0.0
21nhqer963k7x63zd544062n,6,3,37,3,3,1,pd,3.0,0.0,25.16,1,0.0
21nhqer963k7x63zd544062n,7,3,62,3,2,3,pd,0.0,1.0,7.293,1,0.0
21nhqer963k7x63zd544062n,8,3,17,4,2,3,pd,2.0,0.0,9.277,1,0.0
21nhqer963k7x63zd544062n,9,3,42,4,3,3,pd,3.0,0.0,19.582,1,0.0
21nhqer963k7x63zd544062n,10,3,79,4,3,1,md,0.0,1.0,18.789,1,0.0
21nhqer963k7x63zd544062n,11,3,26,5,1,1,pd,0.0,1.0,14.279,1,0.0
21nhqer963k7x63zd544062n,12,3,63,5,2,1,md,2.0,0.0,25.258,1,0.0
21nhqer963k7x63zd544062n,13,3,36,6,1,2,pd,0.0,1.0,25.685,1,0.0
21nhqer963k7x63zd544062n,14,3,55,6,3,1,md,3.0,0.0,7.699,1,0.0
21nhqer963k7x63zd544062n,15,3,24,7,1,2,md,1.0,0.0,11.049,1,0.0
21nhqer963k7x63zd544062n,16,3,35,8,1,1,pd,0.0,1.0,5.005,1,0.0
227v60pdddj1cx7afhbgqpdn,1,3,25,2,2,2,pd,1.0,0.0,14.057,1,0.0
227v60pdddj1cx7afhbgqpdn,2,3,19,2,2,2,pd,3.0,0.0,8.284,1,0.0
227v60pdddj1cx7afhbgqpdn,3,3,61,2,3,1,pd,0.0,1.0,15.327,1,0.0
227v60pdddj1cx7afhbgqpdn,4,3,71,2,1,1,md,1.0,0.0,18.027,1,0.0
227v60pdddj1cx7afhbgqpdn,5,3,15,3,1,2,md,2.0,0.0,15.795,1,0.0
227v60pdddj1cx7afhbgqpdn,6,3,34,3,2,2,pd,0.0,1.0,22.791,1,0.0
227v60pdddj1cx7afhbgqpdn,7,3,16,4,1,3,md,1.0,0.0,13.064,1,0.0
227v60pdddj1cx7afhbgqpdn,8,3,56,3,3,2,pd,1.0,0.0,27.261,1,0.0
227v60pdddj1cx7afhbgqpdn,9,3,40,4,1,3,pd,0.0,1.0,7.087,1,0.0
227v60pdddj1cx7afhbgqpdn,10,3,73,4,2,2,md,3.0,0.0,29.047,1,0.0
227v60pdddj1cx7afhbgqpdn,11,3,80,4,2,3,md,3.0,0.0,23.574,1,0.0
227v60pdddj1cx7afhbgqpdn,12,3,63,5,1,2,pd,1.0,0.0,16.913,1,0.0
227v60pdddj1cx7afhbgqpdn,13,3,76,5,3,1,md,0.0,1.0,18.529,1,0.0
227v60pdddj1cx7afhbgqpdn,14,3,75,6,3,3,pd,0.0,1.0,16.896,1,0.0
227v60pdddj1cx7afhbgqpdn,15,3,78,7,3,3,pd,1.0,0.0,10.018,1,0.0
227v60pdddj1cx7afhbgqpdn,16,3,30,7,2,1,pd,0.0,1.0,8.029,1,0.0
22s5ikym9foi76ykw4ugev55,1,3,19,2,1,3,pd,0.0,1.0,7.786,1,0.0
22s5ikym9foi76ykw4ugev55,2,3,39,2,2,1,md,2.0,0.0,17.792,1,0.0
22s5ikym9foi76ykw4ugev55,3,3,70,2,2,2,md,0.0,1.0,12.208,1,0.0
22s5ikym9foi76ykw4ugev55,4,3,61,2,1,3,md,0.0,1.0,23.272,1,0.0
22s5ikym9foi76ykw4ugev55,5,3,11,3,1,1,md,2.0,0.0,22.392,1,0.0
22s5ikym9foi76ykw4ugev55,6,3,27,3,2,1,pd,0.0,1.0,23.742,1,0.0
22s5ikym9foi76ykw4ugev55,7,3,77,3,2,3,pd,0.0,1.0,20.303,1,0.0
22s5ikym9foi76ykw4ugev55,8,3,69,3,1,2,md,3.0,0.0,28.973,1,0.0
22s5ikym9foi76ykw4ugev55,9,3,23,4,1,1,md,,,,1,0.0
22s5ikym9foi76ykw4ugev55,10,3,72,4,2,1,md,0.0,1.0,28.355,1,0.0
22s5ikym9foi76ykw4ugev55,11,3,67,5,2,2,pd,0.0,1.0,21.656,1,0.0
22s5ikym9foi76ykw4ugev55,12,3,80,4,1,1,md,0.0,1.0,26.053,1,0.0
22s5ikym9foi76ykw4ugev55,13,3,75,6,2,1,md,1.0,0.0,27.924,1,0.0
22s5ikym9foi76ykw4ugev55,14,3,36,6,1,2,md,0.0,1.0,27.226,1,0.0
22s5ikym9foi76ykw4ugev55,15,3,78,7,2,1,pd,1.0,0.0,15.753,1,0.0
22s5ikym9foi76ykw4ugev55,16,3,24,7,1,2,pd,2.0,0.0,22.813,1,0.0
23v0pmln9wfaj14u98x6j05i,1,3,22,2,3,1,md,0.0,1.0,17.2,1,0.0
23v0pmln9wfaj14u98x6j05i,2,3,28,2,3,1,md,0.0,1.0,23.738,1,0.0
23v0pmln9wfaj14u98x6j05i,3,3,51,2,3,3,pd,0.0,1.0,16.681,1,0.0
23v0pmln9wfaj14u98x6j05i,4,3,10,3,3,1,md,1.0,0.0,25.278,1,0.0
23v0pmln9wfaj14u98x6j05i,5,3,13,3,3,1,md,1.0,0.0,28.672,1,0.0
23v0pmln9wfaj14u98x6j05i,6,3,34,3,3,1,md,1.0,0.0,26.26,1,0.0
23v0pmln9wfaj14u98x6j05i,7,3,77,3,3,2,pd,0.0,1.0,10.938,1,0.0
23v0pmln9wfaj14u98x6j05i,8,3,69,3,3,3,md,0.0,1.0,23.317,1,0.0
23v0pmln9wfaj14u98x6j05i,9,3,79,4,3,1,pd,1.0,0.0,19.043,1,0.0
23v0pmln9wfaj14u98x6j05i,10,3,40,4,3,1,pd,0.0,1.0,19.076,1,0.0
23v0pmln9wfaj14u98x6j05i,11,3,52,5,3,1,md,0.0,1.0,24.999,1,0.0
23v0pmln9wfaj14u98x6j05i,12,3,59,5,3,2,pd,3.0,0.0,28.413,1,0.0
23v0pmln9wfaj14u98x6j05i,13,3,76,5,3,1,md,0.0,1.0,28.02,1,0.0
23v0pmln9wfaj14u98x6j05i,14,3,55,6,3,1,md,3.0,0.0,22.615,1,0.0
23v0pmln9wfaj14u98x6j05i,15,3,24,7,3,3,pd,0.0,1.0,28.3,1,0.0
23v0pmln9wfaj14u98x6j05i,16,3,45,7,3,3,pd,2.0,0.0,15.359,1,0.0
241svjoh2d3bcbz63rlg90zo,1,3,25,2,1,3,md,0.0,1.0,12.256,1,0.0
241svjoh2d3bcbz63rlg90zo,2,3,22,2,2,2,md,2.0,0.0,12.44,1,0.0
241svjoh2d3bcbz63rlg90zo,3,3,10,3,1,3,md,1.0,0.0,14.023,1,0.0
241svjoh2d3bcbz63rlg90zo,4,3,61,2,2,2,md,0.0,1.0,11.482,1,0.0
241svjoh2d3bcbz63rlg90zo,5,3,34,3,1,3,pd,3.0,0.0,20.998,1,0.0
241svjoh2d3bcbz63rlg90zo,6,3,18,3,2,1,pd,0.0,1.0,21.028,1,0.0
241svjoh2d3bcbz63rlg90zo,7,3,17,4,1,1,pd,0.0,1.0,14.648,1,0.0
241svjoh2d3bcbz63rlg90zo,8,3,56,3,2,3,pd,2.0,0.0,11.532,1,0.0
241svjoh2d3bcbz63rlg90zo,9,3,40,4,2,2,md,3.0,0.0,9.699,1,0.0
241svjoh2d3bcbz63rlg90zo,10,3,73,4,1,3,md,1.0,0.0,15.563,1,0.0
241svjoh2d3bcbz63rlg90zo,11,3,63,5,1,2,md,2.0,0.0,25.414,1,0.0
241svjoh2d3bcbz63rlg90zo,12,3,14,5,2,3,md,0.0,1.0,18.459,1,0.0
241svjoh2d3bcbz63rlg90zo,13,3,44,6,2,3,pd,1.0,0.0,15.325,1,0.0
241svjoh2d3bcbz63rlg90zo,14,3,55,6,1,3,pd,0.0,1.0,15.873,1,0.0
241svjoh2d3bcbz63rlg90zo,15,3,45,7,1,2,pd,0.0,1.0,15.821,1,0.0
241svjoh2d3bcbz63rlg90zo,16,3,24,7,2,1,pd,2.0,0.0,20.553,1,0.0
25qshlhy4deq4im0io70boaf,1,3,39,2,2,1,pd,0.0,1.0,29.1,1,0.0
25qshlhy4deq4im0io70boaf,2,3,6,2,1,2,md,0.0,1.0,13.032,1,0.0
25qshlhy4deq4im0io70boaf,3,3,61,2,1,3,pd,0.0,1.0,13.056,1,0.0
25qshlhy4deq4im0io70boaf,4,3,10,3,2,2,pd,0.0,1.0,18.752,1,0.0
25qshlhy4deq4im0io70boaf,5,3,15,3,1,2,md,0.0,1.0,20.753,1,0.0
25qshlhy4deq4im0io70boaf,6,3,34,3,2,2,md,0.0,1.0,26.639,1,0.0
25qshlhy4deq4im0io70boaf,7,3,16,4,2,2,pd,0.0,1.0,14.637,1,0.0
25qshlhy4deq4im0io70boaf,8,3,58,3,1,3,md,0.0,1.0,26.507,1,0.0
25qshlhy4deq4im0io70boaf,9,3,53,4,1,1,md,0.0,1.0,28.274,1,0.0
25qshlhy4deq4im0io70boaf,10,3,72,4,2,1,md,0.0,1.0,23.585,1,0.0
25qshlhy4deq4im0io70boaf,11,3,67,5,2,2,pd,0.0,1.0,8.96,1,0.0
25qshlhy4deq4im0io70boaf,12,3,26,5,1,1,md,2.0,0.0,28.954,1,0.0
25qshlhy4deq4im0io70boaf,13,3,46,6,1,3,md,0.0,1.0,27.497,1,0.0
25qshlhy4deq4im0io70boaf,14,3,75,6,2,1,pd,0.0,1.0,21.289,1,0.0
25qshlhy4deq4im0io70boaf,15,3,35,8,2,3,md,,,,1,0.0
25qshlhy4deq4im0io70boaf,16,3,30,7,1,2,md,0.0,1.0,18.83,1,0.0
26644x2hm5urrqk371umteoa,1,3,6,2,3,3,md,2.0,0.0,9.454,1,0.0
26644x2hm5urrqk371umteoa,2,3,39,2,3,3,pd,2.0,0.0,12.052,1,0.0
26644x2hm5urrqk371umteoa,3,3,65,2,3,2,md,0.0,1.0,11.981,1,0.0
26644x2hm5urrqk371umteoa,4,3,61,2,3,1,md,2.0,0.0,15.183,1,0.0
26644x2hm5urrqk371umteoa,5,3,15,3,3,3,md,1.0,0.0,17.824,1,0.0
26644x2hm5urrqk371umteoa,6,3,34,3,3,1,pd,1.0,0.0,15.235,1,0.0
26644x2hm5urrqk371umteoa,7,3,77,3,3,2,pd,2.0,0.0,17.402,1,0.0
26644x2hm5urrqk371umteoa,8,3,62,3,3,2,pd,0.0,1.0,12.291,1,0.0
26644x2hm5urrqk371umteoa,9,3,40,4,3,1,md,3.0,0.0,13.642,1,0.0
26644x2hm5urrqk371umteoa,10,3,72,4,3,3,pd,0.0,1.0,20.174,1,0.0
26644x2hm5urrqk371umteoa,11,3,52,5,3,1,pd,2.0,0.0,19.743,1,0.0
26644x2hm5urrqk371umteoa,12,3,63,5,3,3,pd,0.0,1.0,24.044,1,0.0
26644x2hm5urrqk371umteoa,13,3,44,6,3,2,md,0.0,1.0,17.364,1,0.0
26644x2hm5urrqk371umteoa,14,3,54,6,3,3,pd,2.0,0.0,17.364,1,0.0
26644x2hm5urrqk371umteoa,15,3,29,7,3,2,md,1.0,0.0,15.725,1,0.0
26644x2hm5urrqk371umteoa,16,3,66,8,3,3,pd,0.0,1.0,6.228,1,0.0
26fw6mpksid4uky6r534gkz1,1,3,39,2,2,1,md,3.0,0.0,13.17,1,0.0
26fw6mpksid4uky6r534gkz1,2,3,19,2,1,3,md,3.0,0.0,9.958,1,0.0
26fw6mpksid4uky6r534gkz1,3,3,61,2,1,3,pd,0.0,1.0,9.816,1,0.0
26fw6mpksid4uky6r534gkz1,4,3,70,2,2,2,pd,0.0,1.0,7.704,1,0.0
26fw6mpksid4uky6r534gkz1,5,3,13,3,1,3,md,0.0,1.0,8.635,1,0.0
26fw6mpksid4uky6r534gkz1,6,3,27,3,2,1,pd,0.0,1.0,16.927,1,0.0
26fw6mpksid4uky6r534gkz1,7,3,77,3,2,3,pd,0.0,1.0,9.537,1,0.0
26fw6mpksid4uky6r534gkz1,8,3,69,3,1,2,md,2.0,0.0,7.933,1,0.0
26fw6mpksid4uky6r534gkz1,9,3,23,4,1,1,md,0.0,1.0,6.784,1,0.0
26fw6mpksid4uky6r534gkz1,10,3,72,4,2,1,md,3.0,0.0,7.411,1,0.0
26fw6mpksid4uky6r534gkz1,11,3,52,5,1,3,md,3.0,0.0,2.612,1,0.0
26fw6mpksid4uky6r534gkz1,12,3,74,5,2,3,pd,3.0,0.0,3.895,1,0.0
26fw6mpksid4uky6r534gkz1,13,3,76,5,1,3,pd,1.0,0.0,1.126,1,0.0
26fw6mpksid4uky6r534gkz1,14,3,64,6,2,2,pd,2.0,0.0,2.27,1,0.0
26fw6mpksid4uky6r534gkz1,15,3,24,7,1,2,pd,3.0,0.0,0.869,1,0.0
26fw6mpksid4uky6r534gkz1,16,3,45,7,2,1,md,1.0,0.0,1.081,1,0.0
272mcy413rbm3qhht490y9c0,1,3,20,2,2,3,md,2.0,0.0,24.741,1,0.0
272mcy413rbm3qhht490y9c0,2,3,28,2,2,2,md,,,,1,0.0
272mcy413rbm3qhht490y9c0,3,3,65,2,2,3,pd,2.0,0.0,16.314,1,0.0
272mcy413rbm3qhht490y9c0,4,3,51,2,3,3,md,0.0,1.0,13.883,1,0.0
272mcy413rbm3qhht490y9c0,5,3,34,3,1,3,md,0.0,1.0,27.39,1,0.0
272mcy413rbm3qhht490y9c0,6,3,15,3,3,3,pd,0.0,1.0,16.86,1,0.0
272mcy413rbm3qhht490y9c0,7,3,17,4,3,2,pd,2.0,0.0,28.359,1,0.0
272mcy413rbm3qhht490y9c0,8,3,56,3,2,3,md,2.0,0.0,29.264,1,0.0
272mcy413rbm3qhht490y9c0,9,3,72,4,2,1,pd,0.0,1.0,9.817,1,0.0
272mcy413rbm3qhht490y9c0,10,3,40,4,1,3,md,2.0,0.0,20.317,1,0.0
272mcy413rbm3qhht490y9c0,11,3,74,5,3,2,md,0.0,1.0,17.945,1,0.0
272mcy413rbm3qhht490y9c0,12,3,52,5,2,2,md,0.0,1.0,23.549,1,0.0
272mcy413rbm3qhht490y9c0,13,3,55,6,1,3,md,3.0,0.0,26.609,1,0.0
272mcy413rbm3qhht490y9c0,14,3,44,6,2,3,md,1.0,0.0,26.561,1,0.0
272mcy413rbm3qhht490y9c0,15,3,21,7,1,2,md,1.0,0.0,23.853,1,0.0
272mcy413rbm3qhht490y9c0,16,3,45,7,1,2,pd,0.0,1.0,29.23,1,0.0
2ak4ea9ygmndywzmwdepf5dc,1,3,39,2,1,2,md,0.0,1.0,10.814,1,0.0
2ak4ea9ygmndywzmwdepf5dc,2,3,19,2,2,2,pd,0.0,1.0,5.208,1,0.0
2ak4ea9ygmndywzmwdepf5dc,3,3,61,2,2,2,pd,0.0,1.0,9.891,1,0.0
2ak4ea9ygmndywzmwdepf5dc,4,3,70,2,1,3,pd,0.0,1.0,5.917,1,0.0
2ak4ea9ygmndywzmwdepf5dc,5,3,13,3,2,2,md,1.0,0.0,12.999,1,0.0
2ak4ea9ygmndywzmwdepf5dc,6,3,31,3,1,3,md,2.0,0.0,14.008,1,0.0
2ak4ea9ygmndywzmwdepf5dc,7,3,62,3,2,3,md,0.0,1.0,12.91,1,0.0
2ak4ea9ygmndywzmwdepf5dc,8,3,16,4,1,3,md,3.0,0.0,11.628,1,0.0
2ak4ea9ygmndywzmwdepf5dc,9,3,73,4,1,3,pd,3.0,0.0,18.834,1,0.0
2ak4ea9ygmndywzmwdepf5dc,10,3,40,4,2,2,md,0.0,1.0,13.332,1,0.0
2ak4ea9ygmndywzmwdepf5dc,11,3,67,5,1,3,md,0.0,1.0,12.3,1,0.0
2ak4ea9ygmndywzmwdepf5dc,12,3,14,5,2,3,pd,1.0,0.0,12.468,1,0.0
2ak4ea9ygmndywzmwdepf5dc,13,3,54,6,1,2,md,1.0,0.0,11.723,1,0.0
2ak4ea9ygmndywzmwdepf5dc,14,3,76,5,2,2,pd,1.0,0.0,19.944,1,0.0
2ak4ea9ygmndywzmwdepf5dc,15,3,78,7,1,2,md,3.0,0.0,17.049,1,0.0
2ak4ea9ygmndywzmwdepf5dc,16,3,24,7,2,1,pd,0.0,1.0,13.308,1,0.0
2az2ts134obztar0ntfxtrdo,1,3,22,2,3,1,pd,0.0,1.0,6.583,1,0.0
2az2ts134obztar0ntfxtrdo,2,3,25,2,3,1,pd,0.0,1.0,8.482,1,0.0
2az2ts134obztar0ntfxtrdo,3,3,71,2,3,2,md,0.0,1.0,7.734,1,0.0
2az2ts134obztar0ntfxtrdo,4,3,49,2,3,1,pd,0.0,1.0,6.892,1,0.0
2az2ts134obztar0ntfxtrdo,5,3,11,3,3,2,pd,2.0,0.0,25.951,1,0.0
2az2ts134obztar0ntfxtrdo,6,3,31,3,3,1,pd,0.0,1.0,16.093,1,0.0
2az2ts134obztar0ntfxtrdo,7,3,69,3,3,3,pd,0.0,1.0,7.83,1,0.0
2az2ts134obztar0ntfxtrdo,8,3,77,3,3,2,pd,3.0,0.0,7.421,1,0.0
2az2ts134obztar0ntfxtrdo,9,3,42,4,3,3,md,0.0,1.0,15.45,1,0.0
2az2ts134obztar0ntfxtrdo,10,3,60,4,3,3,pd,1.0,0.0,15.474,1,0.0
2az2ts134obztar0ntfxtrdo,11,3,80,4,3,2,md,3.0,0.0,9.025,1,0.0
2az2ts134obztar0ntfxtrdo,12,3,59,5,3,2,pd,3.0,0.0,10.139,1,0.0
2az2ts134obztar0ntfxtrdo,13,3,55,6,3,1,md,1.0,0.0,6.056,1,0.0
2az2ts134obztar0ntfxtrdo,14,3,46,6,3,1,md,1.0,0.0,11.856,1,0.0
2az2ts134obztar0ntfxtrdo,15,3,29,7,3,2,md,2.0,0.0,1.717,1,0.0
2az2ts134obztar0ntfxtrdo,16,3,78,7,3,3,pd,1.0,0.0,4.393,1,0.0
2b6j8vz42thx8cakpf490sit,1,3,25,2,3,1,pd,3.0,0.0,17.79,1,0.0
2b6j8vz42thx8cakpf490sit,2,3,22,2,3,1,md,0.0,1.0,8.477,1,0.0
2b6j8vz42thx8cakpf490sit,3,3,50,2,3,2,md,2.0,0.0,7.149,1,0.0
2b6j8vz42thx8cakpf490sit,4,3,65,2,3,2,md,2.0,0.0,11.7,1,0.0
2b6j8vz42thx8cakpf490sit,5,3,34,3,3,1,pd,3.0,0.0,15.422,1,0.0
2b6j8vz42thx8cakpf490sit,6,3,13,3,3,1,md,2.0,0.0,12.281,1,0.0
2b6j8vz42thx8cakpf490sit,7,3,12,4,3,3,pd,2.0,0.0,16.864,1,0.0
2b6j8vz42thx8cakpf490sit,8,3,69,3,3,3,pd,0.0,1.0,11.144,1,0.0
2b6j8vz42thx8cakpf490sit,9,3,42,4,3,3,pd,0.0,1.0,10.817,1,0.0
2b6j8vz42thx8cakpf490sit,10,3,73,4,3,1,pd,3.0,0.0,9.767,1,0.0
2b6j8vz42thx8cakpf490sit,11,3,26,5,3,2,pd,3.0,0.0,14.809,1,0.0
2b6j8vz42thx8cakpf490sit,12,3,59,5,3,2,md,3.0,0.0,6.427,1,0.0
2b6j8vz42thx8cakpf490sit,13,3,75,6,3,3,md,0.0,1.0,7.188,1,0.0
2b6j8vz42thx8cakpf490sit,14,3,76,5,3,1,md,1.0,0.0,7.805,1,0.0
2b6j8vz42thx8cakpf490sit,15,3,78,7,3,3,pd,0.0,1.0,15.76,1,0.0
2b6j8vz42thx8cakpf490sit,16,3,21,7,3,3,pd,3.0,0.0,6.746,1,0.0
2bpou7zuxefy9xhe74f31zd0,1,3,20,2,3,2,pd,0.0,1.0,14.159,1,0.0
2bpou7zuxefy9xhe74f31zd0,2,3,28,2,3,1,pd,3.0,0.0,11.819,1,0.0
2bpou7zuxefy9xhe74f31zd0,3,3,70,2,3,1,pd,0.0,1.0,10.6,1,0.0
2bpou7zuxefy9xhe74f31zd0,4,3,61,2,3,1,md,3.0,0.0,20.413,1,0.0
2bpou7zuxefy9xhe74f31zd0,5,3,15,3,3,3,pd,3.0,0.0,17.76,1,0.0
2bpou7zuxefy9xhe74f31zd0,6,3,31,3,3,1,pd,0.0,1.0,18.033,1,0.0
2bpou7zuxefy9xhe74f31zd0,7,3,58,3,3,1,md,0.0,1.0,22.972,1,0.0
2bpou7zuxefy9xhe74f31zd0,8,3,12,4,3,3,md,1.0,0.0,4.788,1,0.0
2bpou7zuxefy9xhe74f31zd0,9,3,53,4,3,2,pd,0.0,1.0,15.945,1,0.0
2bpou7zuxefy9xhe74f31zd0,10,3,60,4,3,3,pd,0.0,1.0,12.08,1,0.0
2bpou7zuxefy9xhe74f31zd0,11,3,52,5,3,1,pd,1.0,0.0,13.249,1,0.0
2bpou7zuxefy9xhe74f31zd0,12,3,63,5,3,3,md,1.0,0.0,13.507,1,0.0
2bpou7zuxefy9xhe74f31zd0,13,3,36,6,3,3,md,3.0,0.0,16.442,1,0.0
2bpou7zuxefy9xhe74f31zd0,14,3,75,6,3,3,md,3.0,0.0,7.961,1,0.0
2bpou7zuxefy9xhe74f31zd0,15,3,30,7,3,3,pd,0.0,1.0,10.529,1,0.0
2bpou7zuxefy9xhe74f31zd0,16,3,45,7,3,3,md,3.0,0.0,16.394,1,0.0
2e0ezj0564k4e3t58g2aqdv8,1,3,28,2,1,3,md,0.0,1.0,28.816,1,0.0
2e0ezj0564k4e3t58g2aqdv8,2,3,20,2,3,2,md,0.0,1.0,24.931,1,0.0
2e0ezj0564k4e3t58g2aqdv8,3,3,10,3,3,1,pd,0.0,1.0,17.332,1,0.0
2e0ezj0564k4e3t58g2aqdv8,4,3,50,2,1,1,md,0.0,1.0,25.33,1,0.0
2e0ezj0564k4e3t58g2aqdv8,5,3,27,3,3,3,pd,,,,1,0.0
2e0ezj0564k4e3t58g2aqdv8,6,3,13,3,3,1,pd,0.0,1.0,22.981,1,0.0
2e0ezj0564k4e3t58g2aqdv8,7,3,56,3,3,2,pd,0.0,1.0,14.118,1,0.0
2e0ezj0564k4e3t58g2aqdv8,8,3,12,4,1,2,pd,0.0,1.0,17.578,1,0.0
2e0ezj0564k4e3t58g2aqdv8,9,3,60,4,3,3,pd,2.0,0.0,26.842,1,0.0
2e0ezj0564k4e3t58g2aqdv8,10,3,23,4,3,2,md,0.0,1.0,15.654,1,0.0
2e0ezj0564k4e3t58g2aqdv8,11,3,80,4,3,2,md,0.0,1.0,11.945,1,0.0
2e0ezj0564k4e3t58g2aqdv8,12,3,67,5,2,2,md,0.0,1.0,29.192,1,0.0
2e0ezj0564k4e3t58g2aqdv8,13,3,36,6,1,2,md,0.0,1.0,25.912,1,0.0
2e0ezj0564k4e3t58g2aqdv8,14,3,54,6,3,3,md,3.0,0.0,20.0,1,0.0
2e0ezj0564k4e3t58g2aqdv8,15,3,30,7,2,1,md,1.0,0.0,14.815,1,0.0
2e0ezj0564k4e3t58g2aqdv8,16,3,78,7,2,1,md,0.0,1.0,26.546,1,0.0
2gmcwjhr7z936kyy94lccpbl,1,3,47,2,3,2,pd,0.0,1.0,23.014,1,0.0
2gmcwjhr7z936kyy94lccpbl,2,3,20,2,3,2,pd,0.0,1.0,11.427,1,0.0
2gmcwjhr7z936kyy94lccpbl,3,3,61,2,3,1,md,0.0,1.0,15.969,1,0.0
2gmcwjhr7z936kyy94lccpbl,4,3,10,3,3,1,md,0.0,1.0,14.782,1,0.0
2gmcwjhr7z936kyy94lccpbl,5,3,34,3,3,1,md,0.0,1.0,27.869,1,0.0
2gmcwjhr7z936kyy94lccpbl,6,3,13,3,3,1,pd,0.0,1.0,25.966,1,0.0
2gmcwjhr7z936kyy94lccpbl,7,3,17,4,3,2,md,0.0,1.0,21.476,1,0.0
2gmcwjhr7z936kyy94lccpbl,8,3,56,3,3,2,md,1.0,0.0,22.928,1,0.0
2gmcwjhr7z936kyy94lccpbl,9,3,23,4,3,2,md,2.0,0.0,1.829,1,0.0
2gmcwjhr7z936kyy94lccpbl,10,3,60,4,3,3,md,2.0,0.0,15.296,1,0.0
2gmcwjhr7z936kyy94lccpbl,11,3,63,5,3,3,md,1.0,0.0,6.24,1,0.0
2gmcwjhr7z936kyy94lccpbl,12,3,14,5,3,2,pd,2.0,0.0,23.256,1,0.0
2gmcwjhr7z936kyy94lccpbl,13,3,36,6,3,3,md,1.0,0.0,6.665,1,0.0
2gmcwjhr7z936kyy94lccpbl,14,3,54,6,3,3,md,3.0,0.0,3.625,1,0.0
2gmcwjhr7z936kyy94lccpbl,15,3,78,7,3,3,pd,1.0,0.0,1.883,1,0.0
2gmcwjhr7z936kyy94lccpbl,16,3,29,7,3,2,md,1.0,0.0,1.41,1,0.0
2h8z26ripecwc4ze4tpqkcjs,1,3,20,2,2,3,pd,0.0,1.0,15.35,1,0.0
2h8z26ripecwc4ze4tpqkcjs,2,3,47,2,3,2,pd,0.0,1.0,17.528,1,0.0
2h8z26ripecwc4ze4tpqkcjs,3,3,65,2,3,2,pd,0.0,1.0,12.555,1,0.0
2h8z26ripecwc4ze4tpqkcjs,4,3,51,2,2,1,md,0.0,1.0,13.205,1,0.0
2h8z26ripecwc4ze4tpqkcjs,5,3,15,3,2,1,pd,0.0,1.0,14.54,1,0.0
2h8z26ripecwc4ze4tpqkcjs,6,3,34,3,3,1,pd,0.0,1.0,25.75,1,0.0
2h8z26ripecwc4ze4tpqkcjs,7,3,77,3,3,2,md,0.0,1.0,10.899,1,0.0
2h8z26ripecwc4ze4tpqkcjs,8,3,62,3,3,2,pd,0.0,1.0,12.956,1,0.0
2h8z26ripecwc4ze4tpqkcjs,9,3,23,4,2,3,pd,0.0,1.0,13.841,1,0.0
2h8z26ripecwc4ze4tpqkcjs,10,3,72,4,1,2,md,1.0,0.0,17.423,1,0.0
2h8z26ripecwc4ze4tpqkcjs,11,3,80,4,2,3,md,0.0,1.0,14.819,1,0.0
2h8z26ripecwc4ze4tpqkcjs,12,3,63,5,2,1,md,1.0,0.0,18.599,1,0.0
2h8z26ripecwc4ze4tpqkcjs,13,3,75,6,3,3,md,2.0,0.0,21.086,1,0.0
2h8z26ripecwc4ze4tpqkcjs,14,3,44,6,1,1,md,0.0,1.0,19.71,1,0.0
2h8z26ripecwc4ze4tpqkcjs,15,3,24,7,1,2,md,2.0,0.0,27.732,1,0.0
2h8z26ripecwc4ze4tpqkcjs,16,3,78,7,3,3,pd,0.0,1.0,25.035,1,0.0
2hbjprxch7iah7yy5j56wi0n,1,3,20,2,1,1,md,0.0,1.0,10.282,1,0.0
2hbjprxch7iah7yy5j56wi0n,2,3,39,2,2,1,pd,0.0,1.0,25.924,1,0.0
2hbjprxch7iah7yy5j56wi0n,3,3,70,2,2,2,pd,0.0,1.0,8.828,1,0.0
2hbjprxch7iah7yy5j56wi0n,4,3,50,2,1,1,md,0.0,1.0,25.399,1,0.0
2hbjprxch7iah7yy5j56wi0n,5,3,18,3,1,2,md,0.0,1.0,29.151,1,0.0
2hbjprxch7iah7yy5j56wi0n,6,3,31,3,2,2,pd,0.0,1.0,29.514,1,0.0
2hbjprxch7iah7yy5j56wi0n,7,3,17,4,2,3,pd,0.0,1.0,18.658,1,0.0
2hbjprxch7iah7yy5j56wi0n,8,3,62,3,1,1,md,0.0,1.0,20.877,1,0.0
2hbjprxch7iah7yy5j56wi0n,9,3,42,4,1,2,md,1.0,0.0,17.773,1,0.0
2hbjprxch7iah7yy5j56wi0n,10,3,60,4,2,1,pd,0.0,1.0,19.73,1,0.0
2hbjprxch7iah7yy5j56wi0n,11,3,74,5,2,3,pd,3.0,0.0,1.817,1,0.0
2hbjprxch7iah7yy5j56wi0n,12,3,14,5,1,1,md,0.0,1.0,5.957,1,0.0
2hbjprxch7iah7yy5j56wi0n,13,3,76,5,1,3,md,1.0,0.0,7.754,1,0.0
2hbjprxch7iah7yy5j56wi0n,14,3,75,6,2,1,pd,2.0,0.0,20.618,1,0.0
2hbjprxch7iah7yy5j56wi0n,15,3,66,8,2,1,pd,0.0,1.0,10.56,1,0.0
2hbjprxch7iah7yy5j56wi0n,16,3,24,7,1,2,md,1.0,0.0,12.509,1,0.0
2hto13ytzqfzla63npwy9tet,1,3,20,2,1,1,pd,2.0,0.0,14.717,1,0.0
2hto13ytzqfzla63npwy9tet,2,3,28,2,2,2,md,0.0,1.0,25.058,1,0.0
2hto13ytzqfzla63npwy9tet,3,3,61,2,3,1,pd,0.0,1.0,18.617,1,0.0
2hto13ytzqfzla63npwy9tet,4,3,71,2,2,3,pd,0.0,1.0,10.532,1,0.0
2hto13ytzqfzla63npwy9tet,5,3,27,3,2,1,md,0.0,1.0,23.853,1,0.0
2hto13ytzqfzla63npwy9tet,6,3,11,3,3,2,pd,0.0,1.0,23.55,1,0.0
2hto13ytzqfzla63npwy9tet,7,3,69,3,1,2,md,0.0,1.0,24.249,1,0.0
2hto13ytzqfzla63npwy9tet,8,3,77,3,2,3,pd,0.0,1.0,11.647,1,0.0
2hto13ytzqfzla63npwy9tet,9,3,42,4,1,2,md,0.0,1.0,16.452,1,0.0
2hto13ytzqfzla63npwy9tet,10,3,60,4,1,2,md,0.0,1.0,26.368,1,0.0
2hto13ytzqfzla63npwy9tet,11,3,26,5,1,1,pd,0.0,1.0,24.483,1,0.0
2hto13ytzqfzla63npwy9tet,12,3,63,5,3,3,pd,0.0,1.0,26.486,1,0.0
2hto13ytzqfzla63npwy9tet,13,3,64,6,3,1,pd,0.0,1.0,25.621,1,0.0
2hto13ytzqfzla63npwy9tet,14,3,44,6,2,3,md,0.0,1.0,19.53,1,0.0
2hto13ytzqfzla63npwy9tet,15,3,24,7,1,2,md,0.0,1.0,16.185,1,0.0
2hto13ytzqfzla63npwy9tet,16,3,35,8,2,3,pd,1.0,0.0,22.768,1,0.0
2i42r2eepsi2ds5yuntjtm3i,1,3,6,2,1,2,md,0.0,1.0,6.569,1,0.0
2i42r2eepsi2ds5yuntjtm3i,2,3,39,2,2,1,pd,0.0,1.0,18.619,1,0.0
2i42r2eepsi2ds5yuntjtm3i,3,3,10,3,2,2,md,0.0,1.0,14.297,1,0.0
2i42r2eepsi2ds5yuntjtm3i,4,3,49,2,1,3,pd,0.0,1.0,9.664,1,0.0
2i42r2eepsi2ds5yuntjtm3i,5,3,18,3,1,2,md,0.0,1.0,17.102,1,0.0
2i42r2eepsi2ds5yuntjtm3i,6,3,27,3,2,1,md,0.0,1.0,18.936,1,0.0
2i42r2eepsi2ds5yuntjtm3i,7,3,12,4,2,1,pd,2.0,0.0,14.038,1,0.0
2i42r2eepsi2ds5yuntjtm3i,8,3,58,3,1,3,md,0.0,1.0,19.88,1,0.0
2i42r2eepsi2ds5yuntjtm3i,9,3,60,4,2,1,md,1.0,0.0,11.665,1,0.0
2i42r2eepsi2ds5yuntjtm3i,10,3,40,4,1,3,pd,3.0,0.0,4.942,1,0.0
2i42r2eepsi2ds5yuntjtm3i,11,3,67,5,2,2,pd,0.0,1.0,10.164,1,0.0
2i42r2eepsi2ds5yuntjtm3i,12,3,52,5,1,3,pd,0.0,1.0,13.324,1,0.0
2i42r2eepsi2ds5yuntjtm3i,13,3,46,6,1,3,md,0.0,1.0,10.623,1,0.0
2i42r2eepsi2ds5yuntjtm3i,14,3,54,6,2,1,pd,0.0,1.0,9.132,1,0.0
2i42r2eepsi2ds5yuntjtm3i,15,3,45,7,2,1,pd,0.0,1.0,6.311,1,0.0
2i42r2eepsi2ds5yuntjtm3i,16,3,21,7,1,2,pd,2.0,0.0,8.964,1,0.0
2i822ubn7ntzjkjwaq4ca78r,1,3,19,2,2,2,pd,0.0,1.0,12.362,1,0.0
2i822ubn7ntzjkjwaq4ca78r,2,3,25,2,1,3,md,0.0,1.0,9.094,1,0.0
2i822ubn7ntzjkjwaq4ca78r,3,3,65,2,1,1,pd,0.0,1.0,25.889,1,0.0
2i822ubn7ntzjkjwaq4ca78r,4,3,49,2,2,2,md,0.0,1.0,11.338,1,0.0
2i822ubn7ntzjkjwaq4ca78r,5,3,13,3,2,2,md,0.0,1.0,29.932,1,0.0
2i822ubn7ntzjkjwaq4ca78r,6,3,34,3,1,3,pd,0.0,1.0,16.542,1,0.0
2i822ubn7ntzjkjwaq4ca78r,7,3,77,3,1,1,md,0.0,1.0,15.574,1,0.0
2i822ubn7ntzjkjwaq4ca78r,8,3,69,3,2,1,md,0.0,1.0,10.343,1,0.0
2i822ubn7ntzjkjwaq4ca78r,9,3,42,4,2,1,md,0.0,1.0,20.683,1,0.0
2i822ubn7ntzjkjwaq4ca78r,10,3,79,4,1,3,md,3.0,0.0,24.55,1,0.0
2i822ubn7ntzjkjwaq4ca78r,11,3,52,5,2,2,md,0.0,1.0,28.088,1,0.0
2i822ubn7ntzjkjwaq4ca78r,12,3,67,5,1,3,md,0.0,1.0,23.849,1,0.0
2i822ubn7ntzjkjwaq4ca78r,13,3,46,6,2,2,md,1.0,0.0,28.207,1,0.0
2i822ubn7ntzjkjwaq4ca78r,14,3,54,6,1,2,md,3.0,0.0,28.7,1,0.0
2i822ubn7ntzjkjwaq4ca78r,15,3,24,7,2,1,md,,,,1,0.0
2i822ubn7ntzjkjwaq4ca78r,16,3,66,8,1,2,pd,0.0,1.0,16.503,1,0.0
2j9txu6xfabbjmmwdp1ixui5,1,3,22,2,1,3,md,0.0,1.0,7.385,1,0.0
2j9txu6xfabbjmmwdp1ixui5,2,3,47,2,1,1,pd,2.0,0.0,9.108,1,0.0
2j9txu6xfabbjmmwdp1ixui5,3,3,50,2,2,3,pd,0.0,1.0,10.99,1,0.0
2j9txu6xfabbjmmwdp1ixui5,4,3,65,2,1,1,pd,0.0,1.0,4.556,1,0.0
2j9txu6xfabbjmmwdp1ixui5,5,3,13,3,1,3,md,0.0,1.0,7.023,1,0.0
2j9txu6xfabbjmmwdp1ixui5,6,3,31,3,1,3,md,2.0,0.0,8.923,1,0.0
2j9txu6xfabbjmmwdp1ixui5,7,3,58,3,2,2,pd,0.0,1.0,5.958,1,0.0
2j9txu6xfabbjmmwdp1ixui5,8,3,17,4,2,3,md,1.0,0.0,8.652,1,0.0
2j9txu6xfabbjmmwdp1ixui5,9,3,73,4,3,1,md,1.0,0.0,10.842,1,0.0
2j9txu6xfabbjmmwdp1ixui5,10,3,53,4,3,2,pd,0.0,1.0,5.82,1,0.0
2j9txu6xfabbjmmwdp1ixui5,11,3,14,5,2,3,md,3.0,0.0,9.383,1,0.0
2j9txu6xfabbjmmwdp1ixui5,12,3,74,5,2,3,md,1.0,0.0,8.003,1,0.0
2j9txu6xfabbjmmwdp1ixui5,13,3,54,6,2,1,md,3.0,0.0,11.538,1,0.0
2j9txu6xfabbjmmwdp1ixui5,14,3,44,6,2,3,pd,2.0,0.0,8.297,1,0.0
2j9txu6xfabbjmmwdp1ixui5,15,3,78,7,2,1,md,2.0,0.0,4.287,1,0.0
2j9txu6xfabbjmmwdp1ixui5,16,3,29,7,2,3,pd,3.0,0.0,5.456,1,0.0
2jkjdct4l2sj2hzpc46607qk,1,3,19,2,1,3,pd,0.0,1.0,14.695,1,0.0
2jkjdct4l2sj2hzpc46607qk,2,3,25,2,2,2,md,0.0,1.0,12.516,1,0.0
2jkjdct4l2sj2hzpc46607qk,3,3,10,3,2,2,pd,0.0,1.0,25.481,1,0.0
2jkjdct4l2sj2hzpc46607qk,4,3,50,2,1,1,pd,0.0,1.0,21.05,1,0.0
2jkjdct4l2sj2hzpc46607qk,5,3,18,3,1,2,md,0.0,1.0,22.751,1,0.0
2jkjdct4l2sj2hzpc46607qk,6,3,31,3,2,2,md,0.0,1.0,26.127,1,0.0
2jkjdct4l2sj2hzpc46607qk,7,3,17,4,2,3,pd,1.0,0.0,21.336,1,0.0
2jkjdct4l2sj2hzpc46607qk,8,3,56,3,1,1,pd,0.0,1.0,20.202,1,0.0
2jkjdct4l2sj2hzpc46607qk,9,3,73,4,2,2,md,1.0,0.0,21.067,1,0.0
2jkjdct4l2sj2hzpc46607qk,10,3,42,4,1,2,md,3.0,0.0,22.817,1,0.0
2jkjdct4l2sj2hzpc46607qk,11,3,52,5,1,3,pd,0.0,1.0,13.315,1,0.0
2jkjdct4l2sj2hzpc46607qk,12,3,74,5,2,3,pd,1.0,0.0,18.333,1,0.0
2jkjdct4l2sj2hzpc46607qk,13,3,75,6,2,1,md,2.0,0.0,27.372,1,0.0
2jkjdct4l2sj2hzpc46607qk,14,3,36,6,1,2,pd,0.0,1.0,22.054,1,0.0
2jkjdct4l2sj2hzpc46607qk,15,3,66,8,2,1,pd,0.0,1.0,15.085,1,0.0
2jkjdct4l2sj2hzpc46607qk,16,3,30,7,1,2,md,1.0,0.0,6.815,1,0.0
