subject,trial,item_set,short_form,item,distractor,shape_set,choice,accuracy,rt,all_loaded,minimum_resolution,browser_interactions
02afxz4fercedkpoucq0nwv2,1,3,1,55,pd,2,0.0,1.0,24.396,1,1,0.0
02afxz4fercedkpoucq0nwv2,2,3,1,66,pd,1,1.0,0.0,8.528,1,1,0.0
02afxz4fercedkpoucq0nwv2,3,3,1,30,pd,1,0.0,1.0,18.619,1,1,0.0
02afxz4fercedkpoucq0nwv2,4,3,1,58,md,2,1.0,0.0,21.994,1,1,0.0
02afxz4fercedkpoucq0nwv2,5,3,1,45,pd,3,0.0,1.0,14.029,1,1,0.0
02afxz4fercedkpoucq0nwv2,6,3,1,29,pd,3,0.0,1.0,14.105,1,1,0.0
02afxz4fercedkpoucq0nwv2,7,3,1,17,pd,2,0.0,1.0,24.772,1,1,0.0
02afxz4fercedkpoucq0nwv2,8,3,1,24,pd,3,1.0,0.0,10.51,1,1,0.0
02afxz4fercedkpoucq0nwv2,9,3,1,72,pd,2,0.0,1.0,10.477,1,1,0.0
02afxz4fercedkpoucq0nwv2,10,3,1,64,pd,3,0.0,1.0,16.773,1,1,0.0
02afxz4fercedkpoucq0nwv2,11,3,1,76,pd,3,0.0,1.0,8.457,1,1,0.0
02afxz4fercedkpoucq0nwv2,12,3,1,35,pd,3,0.0,1.0,4.152,1,1,0.0
06z78t8e7s50q0bufotmy2sh,1,3,1,55,pd,2,0.0,1.0,12.819,1,1,0.0
06z78t8e7s50q0bufotmy2sh,2,3,1,66,pd,1,0.0,1.0,17.047,1,1,0.0
06z78t8e7s50q0bufotmy2sh,3,3,1,30,pd,1,0.0,1.0,8.934,1,1,0.0
06z78t8e7s50q0bufotmy2sh,4,3,1,58,md,2,,,,1,1,0.0
06z78t8e7s50q0bufotmy2sh,5,3,1,45,pd,3,0.0,1.0,25.806,1,1,0.0
06z78t8e7s50q0bufotmy2sh,6,3,1,29,pd,3,3.0,0.0,29.582,1,1,0.0
06z78t8e7s50q0bufotmy2sh,7,3,1,17,pd,2,0.0,1.0,28.963,1,1,0.0
06z78t8e7s50q0bufotmy2sh,8,3,1,24,pd,3,2.0,0.0,28.698,1,1,0.0
06z78t8e7s50q0bufotmy2sh,9,3,1,72,pd,2,0.0,1.0,28.557,1,1,0.0
06z78t8e7s50q0bufotmy2sh,10,3,1,64,pd,3,3.0,0.0,28.057,1,1,0.0
06z78t8e7s50q0bufotmy2sh,11,3,1,76,pd,3,0.0,1.0,29.939,1,1,0.0
06z78t8e7s50q0bufotmy2sh,12,3,1,35,pd,3,1.0,0.0,28.672,1,1,0.0
0d2k1d6l575zu9b9qntyusym,1,3,3,45,pd,2,0.0,1.0,18.535,1,1,0.0
0d2k1d6l575zu9b9qntyusym,2,3,3,55,pd,1,0.0,1.0,6.867,1,1,0.0
0d2k1d6l575zu9b9qntyusym,3,3,3,30,pd,3,0.0,1.0,9.338,1,1,0.0
0d2k1d6l575zu9b9qntyusym,4,3,3,58,md,1,0.0,1.0,15.302,1,1,0.0
0d2k1d6l575zu9b9qntyusym,5,3,3,17,pd,1,0.0,1.0,17.212,1,1,0.0
0d2k1d6l575zu9b9qntyusym,6,3,3,72,pd,1,0.0,1.0,19.96,1,1,0.0
0d2k1d6l575zu9b9qntyusym,7,3,3,29,pd,2,2.0,0.0,29.235,1,1,0.0
0d2k1d6l575zu9b9qntyusym,8,3,3,76,pd,2,0.0,1.0,12.77,1,1,0.0
0d2k1d6l575zu9b9qntyusym,9,3,3,35,pd,2,1.0,0.0,22.271,1,1,0.0
0d2k1d6l575zu9b9qntyusym,10,3,3,64,pd,2,2.0,0.0,25.549,1,1,0.0
0d2k1d6l575zu9b9qntyusym,11,3,3,66,pd,3,1.0,0.0,15.712,1,1,0.0
0d2k1d6l575zu9b9qntyusym,12,3,3,24,pd,2,1.0,0.0,10.36,1,1,0.0
0hq9i9kgzqo0g7tid31bnu3i,1,3,1,55,pd,2,0.0,1.0,18.969,1,1,0.0
0hq9i9kgzqo0g7tid31bnu3i,2,3,1,66,pd,1,0.0,1.0,6.277,1,1,0.0
0hq9i9kgzqo0g7tid31bnu3i,3,3,1,30,pd,1,0.0,1.0,10.732,1,1,0.0
0hq9i9kgzqo0g7tid31bnu3i,4,3,1,58,md,2,0.0,1.0,19.678,1,1,0.0
0hq9i9kgzqo0g7tid31bnu3i,5,3,1,45,pd,3,0.0,1.0,23.553,1,1,0.0
0hq9i9kgzqo0g7tid31bnu3i,6,3,1,29,pd,3,0.0,1.0,9.145,1,1,0.0
0hq9i9kgzqo0g7tid31bnu3i,7,3,1,17,pd,2,0.0,1.0,16.911,1,1,0.0
0hq9i9kgzqo0g7tid31bnu3i,8,3,1,24,pd,3,0.0,1.0,15.128,1,1,0.0
0hq9i9kgzqo0g7tid31bnu3i,9,3,1,72,pd,2,0.0,1.0,12.628,1,1,0.0
0hq9i9kgzqo0g7tid31bnu3i,10,3,1,64,pd,3,2.0,0.0,18.892,1,1,0.0
0hq9i9kgzqo0g7tid31bnu3i,11,3,1,76,pd,3,1.0,0.0,29.752,1,1,0.0
0hq9i9kgzqo0g7tid31bnu3i,12,3,1,35,pd,3,0.0,1.0,24.498,1,1,0.0
0hyzm81by1o1277t5zyxb36x,1,3,3,45,pd,2,0.0,1.0,12.364,1,1,0.0
0hyzm81by1o1277t5zyxb36x,2,3,3,55,pd,1,0.0,1.0,15.362,1,1,0.0
0hyzm81by1o1277t5zyxb36x,3,3,3,30,pd,3,0.0,1.0,13.555,1,1,0.0
0hyzm81by1o1277t5zyxb36x,4,3,3,58,md,1,1.0,0.0,17.827,1,1,0.0
0hyzm81by1o1277t5zyxb36x,5,3,3,17,pd,1,0.0,1.0,29.564,1,1,0.0
0hyzm81by1o1277t5zyxb36x,6,3,3,72,pd,1,3.0,0.0,29.979,1,1,0.0
0hyzm81by1o1277t5zyxb36x,7,3,3,29,pd,2,0.0,1.0,7.924,1,1,0.0
0hyzm81by1o1277t5zyxb36x,8,3,3,76,pd,2,0.0,1.0,27.268,1,1,0.0
0hyzm81by1o1277t5zyxb36x,9,3,3,35,pd,2,0.0,1.0,18.027,1,1,0.0
0hyzm81by1o1277t5zyxb36x,10,3,3,64,pd,2,,,,1,1,0.0
0hyzm81by1o1277t5zyxb36x,11,3,3,66,pd,3,0.0,1.0,19.135,1,1,0.0
0hyzm81by1o1277t5zyxb36x,12,3,3,24,pd,2,0.0,1.0,19.883,1,1,0.0
0kq7fvgpezd7c2ugltf9v8il,1,3,3,45,pd,2,1.0,0.0,5.405,1,1,0.0
0kq7fvgpezd7c2ugltf9v8il,2,3,3,55,pd,1,2.0,0.0,8.049,1,1,0.0
0kq7fvgpezd7c2ugltf9v8il,3,3,3,30,pd,3,0.0,1.0,6.329,1,1,0.0
0kq7fvgpezd7c2ugltf9v8il,4,3,3,58,md,1,3.0,0.0,9.026,1,1,2.0
0kq7fvgpezd7c2ugltf9v8il,5,3,3,17,pd,1,1.0,0.0,18.211,1,1,2.0
0kq7fvgpezd7c2ugltf9v8il,6,3,3,72,pd,1,2.0,0.0,6.834,1,1,0.0
0kq7fvgpezd7c2ugltf9v8il,7,3,3,29,pd,2,0.0,1.0,11.192,1,1,0.0
0kq7fvgpezd7c2ugltf9v8il,8,3,3,76,pd,2,2.0,0.0,3.986,1,1,0.0
0kq7fvgpezd7c2ugltf9v8il,9,3,3,35,pd,2,2.0,0.0,11.536,1,1,0.0
0kq7fvgpezd7c2ugltf9v8il,10,3,3,64,pd,2,3.0,0.0,8.714,1,1,0.0
0kq7fvgpezd7c2ugltf9v8il,11,3,3,66,pd,3,2.0,0.0,5.98,1,1,0.0
0kq7fvgpezd7c2ugltf9v8il,12,3,3,24,pd,2,0.0,1.0,4.81,1,1,0.0
0xw4hsydjiw8n5x9emapoyfs,1,3,3,45,pd,2,1.0,0.0,9.532,1,1,0.0
0xw4hsydjiw8n5x9emapoyfs,2,3,3,55,pd,1,0.0,1.0,7.285,1,1,0.0
0xw4hsydjiw8n5x9emapoyfs,3,3,3,30,pd,3,0.0,1.0,11.619,1,1,0.0
0xw4hsydjiw8n5x9emapoyfs,4,3,3,58,md,1,0.0,1.0,12.2,1,1,0.0
0xw4hsydjiw8n5x9emapoyfs,5,3,3,17,pd,1,0.0,1.0,14.62,1,1,0.0
0xw4hsydjiw8n5x9emapoyfs,6,3,3,72,pd,1,0.0,1.0,26.044,1,1,0.0
0xw4hsydjiw8n5x9emapoyfs,7,3,3,29,pd,2,0.0,1.0,16.661,1,1,0.0
0xw4hsydjiw8n5x9emapoyfs,8,3,3,76,pd,2,0.0,1.0,15.248,1,1,0.0
0xw4hsydjiw8n5x9emapoyfs,9,3,3,35,pd,2,0.0,1.0,18.309,1,1,0.0
0xw4hsydjiw8n5x9emapoyfs,10,3,3,64,pd,2,0.0,1.0,13.607,1,1,0.0
0xw4hsydjiw8n5x9emapoyfs,11,3,3,66,pd,3,2.0,0.0,6.921,1,1,0.0
0xw4hsydjiw8n5x9emapoyfs,12,3,3,24,pd,2,2.0,0.0,22.316,1,1,0.0
0xzatwpgdlc9c9yh507r49d9,1,3,1,55,pd,2,0.0,1.0,15.394,1,1,0.0
0xzatwpgdlc9c9yh507r49d9,2,3,1,66,pd,1,0.0,1.0,6.965,1,1,0.0
0xzatwpgdlc9c9yh507r49d9,3,3,1,30,pd,1,0.0,1.0,21.198,1,1,0.0
0xzatwpgdlc9c9yh507r49d9,4,3,1,58,md,2,0.0,1.0,13.348,1,1,0.0
0xzatwpgdlc9c9yh507r49d9,5,3,1,45,pd,3,0.0,1.0,10.313,1,1,0.0
0xzatwpgdlc9c9yh507r49d9,6,3,1,29,pd,3,0.0,1.0,16.076,1,1,0.0
0xzatwpgdlc9c9yh507r49d9,7,3,1,17,pd,2,0.0,1.0,15.024,1,1,0.0
0xzatwpgdlc9c9yh507r49d9,8,3,1,24,pd,3,0.0,1.0,19.455,1,1,0.0
0xzatwpgdlc9c9yh507r49d9,9,3,1,72,pd,2,0.0,1.0,18.324,1,1,0.0
0xzatwpgdlc9c9yh507r49d9,10,3,1,64,pd,3,0.0,1.0,20.117,1,1,0.0
0xzatwpgdlc9c9yh507r49d9,11,3,1,76,pd,3,2.0,0.0,27.826,1,1,0.0
0xzatwpgdlc9c9yh507r49d9,12,3,1,35,pd,3,0.0,1.0,23.474,1,1,0.0
0y65ye74hdib59v4cgafca9a,1,3,1,55,pd,2,2.0,0.0,6.067,1,1,0.0
0y65ye74hdib59v4cgafca9a,2,3,1,66,pd,1,1.0,0.0,10.153,1,1,0.0
0y65ye74hdib59v4cgafca9a,3,3,1,30,pd,1,3.0,0.0,6.027,1,1,0.0
0y65ye74hdib59v4cgafca9a,4,3,1,58,md,2,3.0,0.0,7.619,1,1,0.0
0y65ye74hdib59v4cgafca9a,5,3,1,45,pd,3,1.0,0.0,5.418,1,1,0.0
0y65ye74hdib59v4cgafca9a,6,3,1,29,pd,3,3.0,0.0,7.297,1,1,0.0
0y65ye74hdib59v4cgafca9a,7,3,1,17,pd,2,0.0,1.0,6.116,1,1,0.0
0y65ye74hdib59v4cgafca9a,8,3,1,24,pd,3,3.0,0.0,4.723,1,1,0.0
0y65ye74hdib59v4cgafca9a,9,3,1,72,pd,2,0.0,1.0,4.354,1,1,0.0
0y65ye74hdib59v4cgafca9a,10,3,1,64,pd,3,1.0,0.0,3.795,1,1,0.0
0y65ye74hdib59v4cgafca9a,11,3,1,76,pd,3,2.0,0.0,5.963,1,1,0.0
0y65ye74hdib59v4cgafca9a,12,3,1,35,pd,3,2.0,0.0,4.227,1,1,0.0
16r587c254747psrx93n4r9k,1,3,2,45,pd,1,2.0,0.0,11.955,1,1,0.0
16r587c254747psrx93n4r9k,2,3,2,30,pd,2,3.0,0.0,16.582,1,1,0.0
16r587c254747psrx93n4r9k,3,3,2,55,pd,3,0.0,1.0,12.426,1,1,0.0
16r587c254747psrx93n4r9k,4,3,2,29,pd,1,3.0,0.0,7.698,1,1,0.0
16r587c254747psrx93n4r9k,5,3,2,64,pd,1,1.0,0.0,19.295,1,1,0.0
16r587c254747psrx93n4r9k,6,3,2,35,pd,1,0.0,1.0,10.198,1,1,0.0
16r587c254747psrx93n4r9k,7,3,2,24,pd,1,3.0,0.0,13.352,1,1,0.0
16r587c254747psrx93n4r9k,8,3,2,17,pd,3,0.0,1.0,12.118,1,1,0.0
16r587c254747psrx93n4r9k,9,3,2,58,md,3,0.0,1.0,22.307,1,1,0.0
16r587c254747psrx93n4r9k,10,3,2,76,pd,1,2.0,0.0,17.839,1,1,0.0
16r587c254747psrx93n4r9k,11,3,2,72,pd,3,2.0,0.0,15.339,1,1,0.0
16r587c254747psrx93n4r9k,12,3,2,66,pd,2,2.0,0.0,16.13,1,1,0.0
1be65lu7yhotwchl8gvst0jl,1,3,1,55,pd,2,0.0,1.0,12.391,1,1,0.0
1be65lu7yhotwchl8gvst0jl,2,3,1,66,pd,1,0.0,1.0,11.366,1,1,0.0
1be65lu7yhotwchl8gvst0jl,3,3,1,30,pd,1,0.0,1.0,20.006,1,1,0.0
1be65lu7yhotwchl8gvst0jl,4,3,1,58,md,2,0.0,1.0,16.475,1,1,0.0
1be65lu7yhotwchl8gvst0jl,5,3,1,45,pd,3,0.0,1.0,15.019,1,1,0.0
1be65lu7yhotwchl8gvst0jl,6,3,1,29,pd,3,0.0,1.0,17.318,1,1,0.0
1be65lu7yhotwchl8gvst0jl,7,3,1,17,pd,2,0.0,1.0,21.953,1,1,0.0
1be65lu7yhotwchl8gvst0jl,8,3,1,24,pd,3,0.0,1.0,11.872,1,1,0.0
1be65lu7yhotwchl8gvst0jl,9,3,1,72,pd,2,0.0,1.0,9.866,1,1,0.0
1be65lu7yhotwchl8gvst0jl,10,3,1,64,pd,3,0.0,1.0,26.716,1,1,0.0
1be65lu7yhotwchl8gvst0jl,11,3,1,76,pd,3,0.0,1.0,20.38,1,1,0.0
1be65lu7yhotwchl8gvst0jl,12,3,1,35,pd,3,0.0,1.0,16.784,1,1,0.0
1cmg7lirmlytme6rm23kfrkx,1,3,1,55,pd,2,1.0,0.0,6.954,1,1,0.0
1cmg7lirmlytme6rm23kfrkx,2,3,1,66,pd,1,0.0,1.0,5.229,1,1,0.0
1cmg7lirmlytme6rm23kfrkx,3,3,1,30,pd,1,0.0,1.0,6.984,1,1,0.0
1cmg7lirmlytme6rm23kfrkx,4,3,1,58,md,2,3.0,0.0,6.541,0,1,0.0
1cmg7lirmlytme6rm23kfrkx,5,3,1,45,pd,3,0.0,1.0,8.237,1,1,0.0
1cmg7lirmlytme6rm23kfrkx,6,3,1,29,pd,3,0.0,1.0,4.488,1,1,0.0
1cmg7lirmlytme6rm23kfrkx,7,3,1,17,pd,2,0.0,1.0,12.115,1,1,0.0
1cmg7lirmlytme6rm23kfrkx,8,3,1,24,pd,3,0.0,1.0,7.926,1,1,0.0
1cmg7lirmlytme6rm23kfrkx,9,3,1,72,pd,2,1.0,0.0,9.4,1,1,0.0
1cmg7lirmlytme6rm23kfrkx,10,3,1,64,pd,3,3.0,0.0,8.023,1,1,0.0
1cmg7lirmlytme6rm23kfrkx,11,3,1,76,pd,3,0.0,1.0,7.591,1,1,0.0
1cmg7lirmlytme6rm23kfrkx,12,3,1,35,pd,3,3.0,0.0,10.415,1,1,0.0
1du2rpx4zm9oyr4l38kx9gda,1,3,3,45,pd,2,0.0,1.0,12.07,1,1,0.0
1du2rpx4zm9oyr4l38kx9gda,2,3,3,55,pd,1,0.0,1.0,11.603,1,1,0.0
1du2rpx4zm9oyr4l38kx9gda,3,3,3,30,pd,3,3.0,0.0,11.339,1,1,0.0
1du2rpx4zm9oyr4l38kx9gda,4,3,3,58,md,1,0.0,1.0,10.657,1,1,0.0
1du2rpx4zm9oyr4l38kx9gda,5,3,3,17,pd,1,1.0,0.0,15.521,1,1,0.0
1du2rpx4zm9oyr4l38kx9gda,6,3,3,72,pd,1,2.0,0.0,11.242,1,1,0.0
1du2rpx4zm9oyr4l38kx9gda,7,3,3,29,pd,2,0.0,1.0,9.346,1,1,0.0
1du2rpx4zm9oyr4l38kx9gda,8,3,3,76,pd,2,2.0,0.0,10.803,1,1,0.0
1du2rpx4zm9oyr4l38kx9gda,9,3,3,35,pd,2,0.0,1.0,8.664,1,1,0.0
1du2rpx4zm9oyr4l38kx9gda,10,3,3,64,pd,2,1.0,0.0,13.504,1,1,0.0
1du2rpx4zm9oyr4l38kx9gda,11,3,3,66,pd,3,0.0,1.0,10.819,1,1,0.0
1du2rpx4zm9oyr4l38kx9gda,12,3,3,24,pd,2,2.0,0.0,9.795,1,1,0.0
1fb39af23lxd5zvebkgzvjtq,1,3,1,55,pd,2,0.0,1.0,6.657,1,1,0.0
1fb39af23lxd5zvebkgzvjtq,2,3,1,66,pd,1,0.0,1.0,5.888,1,1,0.0
1fb39af23lxd5zvebkgzvjtq,3,3,1,30,pd,1,0.0,1.0,8.8,1,1,0.0
1fb39af23lxd5zvebkgzvjtq,4,3,1,58,md,2,0.0,1.0,17.202,1,1,0.0
1fb39af23lxd5zvebkgzvjtq,5,3,1,45,pd,3,2.0,0.0,10.547,1,1,0.0
1fb39af23lxd5zvebkgzvjtq,6,3,1,29,pd,3,0.0,1.0,14.292,1,1,0.0
1fb39af23lxd5zvebkgzvjtq,7,3,1,17,pd,2,1.0,0.0,14.571,1,1,0.0
1fb39af23lxd5zvebkgzvjtq,8,3,1,24,pd,3,0.0,1.0,12.451,1,1,0.0
1fb39af23lxd5zvebkgzvjtq,9,3,1,72,pd,2,0.0,1.0,17.708,1,1,0.0
1fb39af23lxd5zvebkgzvjtq,10,3,1,64,pd,3,1.0,0.0,13.492,1,1,0.0
1fb39af23lxd5zvebkgzvjtq,11,3,1,76,pd,3,2.0,0.0,10.051,1,1,0.0
1fb39af23lxd5zvebkgzvjtq,12,3,1,35,pd,3,0.0,1.0,21.052,1,1,0.0
1rkzphe3y3v1tllwtrrmws3g,1,3,1,55,pd,2,0.0,1.0,28.95,1,1,0.0
1rkzphe3y3v1tllwtrrmws3g,2,3,1,66,pd,1,0.0,1.0,10.538,1,1,0.0
1rkzphe3y3v1tllwtrrmws3g,3,3,1,30,pd,1,0.0,1.0,25.464,1,1,0.0
1rkzphe3y3v1tllwtrrmws3g,4,3,1,58,md,2,1.0,0.0,20.468,1,1,0.0
1rkzphe3y3v1tllwtrrmws3g,5,3,1,45,pd,3,0.0,1.0,27.646,1,1,0.0
1rkzphe3y3v1tllwtrrmws3g,6,3,1,29,pd,3,0.0,1.0,16.544,1,1,0.0
1rkzphe3y3v1tllwtrrmws3g,7,3,1,17,pd,2,1.0,0.0,27.78,1,1,0.0
1rkzphe3y3v1tllwtrrmws3g,8,3,1,24,pd,3,0.0,1.0,29.799,1,1,0.0
1rkzphe3y3v1tllwtrrmws3g,9,3,1,72,pd,2,0.0,1.0,16.935,1,1,0.0
1rkzphe3y3v1tllwtrrmws3g,10,3,1,64,pd,3,0.0,1.0,25.782,1,1,0.0
1rkzphe3y3v1tllwtrrmws3g,11,3,1,76,pd,3,0.0,1.0,9.843,1,1,0.0
1rkzphe3y3v1tllwtrrmws3g,12,3,1,35,pd,3,0.0,1.0,22.058,1,1,0.0
25ag8leq4xte4p6bd5mc76en,1,3,1,55,pd,2,0.0,1.0,12.546,1,1,0.0
25ag8leq4xte4p6bd5mc76en,2,3,1,66,pd,1,0.0,1.0,11.455,1,1,0.0
25ag8leq4xte4p6bd5mc76en,3,3,1,30,pd,1,0.0,1.0,12.784,1,1,0.0
25ag8leq4xte4p6bd5mc76en,4,3,1,58,md,2,3.0,0.0,29.309,1,1,0.0
25ag8leq4xte4p6bd5mc76en,5,3,1,45,pd,3,0.0,1.0,11.782,1,1,0.0
25ag8leq4xte4p6bd5mc76en,6,3,1,29,pd,3,0.0,1.0,5.525,1,1,0.0
25ag8leq4xte4p6bd5mc76en,7,3,1,17,pd,2,2.0,0.0,9.805,1,1,0.0
25ag8leq4xte4p6bd5mc76en,8,3,1,24,pd,3,0.0,1.0,8.506,1,1,0.0
25ag8leq4xte4p6bd5mc76en,9,3,1,72,pd,2,0.0,1.0,23.54,1,1,0.0
25ag8leq4xte4p6bd5mc76en,10,3,1,64,pd,3,0.0,1.0,11.274,1,1,0.0
25ag8leq4xte4p6bd5mc76en,11,3,1,76,pd,3,3.0,0.0,7.624,1,1,0.0
25ag8leq4xte4p6bd5mc76en,12,3,1,35,pd,3,0.0,1.0,9.392,1,1,0.0
2a49tpjstnyonnrf4g8koc0m,1,3,1,55,pd,2,2.0,0.0,12.071,1,1,0.0
2a49tpjstnyonnrf4g8koc0m,2,3,1,66,pd,1,0.0,1.0,6.157,1,1,0.0
2a49tpjstnyonnrf4g8koc0m,3,3,1,30,pd,1,0.0,1.0,12.204,1,1,0.0
2a49tpjstnyonnrf4g8koc0m,4,3,1,58,md,2,1.0,0.0,9.006,1,1,0.0
2a49tpjstnyonnrf4g8koc0m,5,3,1,45,pd,3,0.0,1.0,10.819,1,1,0.0
2a49tpjstnyonnrf4g8koc0m,6,3,1,29,pd,3,3.0,0.0,11.0,1,1,0.0
2a49tpjstnyonnrf4g8koc0m,7,3,1,17,pd,2,0.0,1.0,10.758,1,1,0.0
2a49tpjstnyonnrf4g8koc0m,8,3,1,24,pd,3,1.0,0.0,13.061,1,1,0.0
2a49tpjstnyonnrf4g8koc0m,9,3,1,72,pd,2,0.0,1.0,11.153,1,1,0.0
2a49tpjstnyonnrf4g8koc0m,10,3,1,64,pd,3,1.0,0.0,11.497,1,1,0.0
2a49tpjstnyonnrf4g8koc0m,11,3,1,76,pd,3,3.0,0.0,14.3,1,1,0.0
2a49tpjstnyonnrf4g8koc0m,12,3,1,35,pd,3,0.0,1.0,11.148,1,1,0.0
2ajy8k3cd8e5h9puf8o17lyo,1,3,3,45,pd,2,0.0,1.0,12.685,1,1,0.0
2ajy8k3cd8e5h9puf8o17lyo,2,3,3,55,pd,1,0.0,1.0,6.302,1,1,0.0
2ajy8k3cd8e5h9puf8o17lyo,3,3,3,30,pd,3,0.0,1.0,7.312,1,1,0.0
2ajy8k3cd8e5h9puf8o17lyo,4,3,3,58,md,1,0.0,1.0,11.77,1,1,0.0
2ajy8k3cd8e5h9puf8o17lyo,5,3,3,17,pd,1,0.0,1.0,6.282,1,1,0.0
2ajy8k3cd8e5h9puf8o17lyo,6,3,3,72,pd,1,0.0,1.0,6.658,1,1,0.0
2ajy8k3cd8e5h9puf8o17lyo,7,3,3,29,pd,2,0.0,1.0,9.967,1,1,0.0
2ajy8k3cd8e5h9puf8o17lyo,8,3,3,76,pd,2,0.0,1.0,22.853,1,1,0.0
2ajy8k3cd8e5h9puf8o17lyo,9,3,3,35,pd,2,0.0,1.0,14.112,1,1,0.0
2ajy8k3cd8e5h9puf8o17lyo,10,3,3,64,pd,2,2.0,0.0,17.07,1,1,0.0
2ajy8k3cd8e5h9puf8o17lyo,11,3,3,66,pd,3,0.0,1.0,11.567,1,1,0.0
2ajy8k3cd8e5h9puf8o17lyo,12,3,3,24,pd,2,0.0,1.0,23.132,1,1,0.0
2doyyzx80ym5y1nn9cuc5dgg,1,3,2,45,pd,1,0.0,1.0,24.378,1,1,0.0
2doyyzx80ym5y1nn9cuc5dgg,2,3,2,30,pd,2,0.0,1.0,18.817,1,1,0.0
2doyyzx80ym5y1nn9cuc5dgg,3,3,2,55,pd,3,0.0,1.0,17.699,1,1,0.0
2doyyzx80ym5y1nn9cuc5dgg,4,3,2,29,pd,1,0.0,1.0,11.73,1,1,0.0
2doyyzx80ym5y1nn9cuc5dgg,5,3,2,64,pd,1,0.0,1.0,22.484,1,1,0.0
2doyyzx80ym5y1nn9cuc5dgg,6,3,2,35,pd,1,0.0,1.0,15.12,1,1,0.0
2doyyzx80ym5y1nn9cuc5dgg,7,3,2,24,pd,1,0.0,1.0,12.65,1,1,0.0
2doyyzx80ym5y1nn9cuc5dgg,8,3,2,17,pd,3,0.0,1.0,25.291,1,1,0.0
2doyyzx80ym5y1nn9cuc5dgg,9,3,2,58,md,3,0.0,1.0,23.866,1,1,0.0
2doyyzx80ym5y1nn9cuc5dgg,10,3,2,76,pd,1,1.0,0.0,22.939,1,1,0.0
2doyyzx80ym5y1nn9cuc5dgg,11,3,2,72,pd,3,0.0,1.0,10.859,1,1,0.0
2doyyzx80ym5y1nn9cuc5dgg,12,3,2,66,pd,2,0.0,1.0,7.898,1,1,0.0
2fdg3adknlqvzqcaveryv2f4,1,3,2,45,pd,1,2.0,0.0,17.356,1,1,0.0
2fdg3adknlqvzqcaveryv2f4,2,3,2,30,pd,2,0.0,1.0,21.287,1,1,0.0
2fdg3adknlqvzqcaveryv2f4,3,3,2,55,pd,3,0.0,1.0,15.779,1,1,0.0
2fdg3adknlqvzqcaveryv2f4,4,3,2,29,pd,1,0.0,1.0,10.813,1,1,0.0
2fdg3adknlqvzqcaveryv2f4,5,3,2,64,pd,1,0.0,1.0,17.87,1,1,0.0
2fdg3adknlqvzqcaveryv2f4,6,3,2,35,pd,1,0.0,1.0,9.616,1,1,0.0
2fdg3adknlqvzqcaveryv2f4,7,3,2,24,pd,1,0.0,1.0,14.448,1,1,0.0
2fdg3adknlqvzqcaveryv2f4,8,3,2,17,pd,3,0.0,1.0,12.555,1,1,0.0
2fdg3adknlqvzqcaveryv2f4,9,3,2,58,md,3,0.0,1.0,19.099,1,1,0.0
2fdg3adknlqvzqcaveryv2f4,10,3,2,76,pd,1,0.0,1.0,18.863,1,1,0.0
2fdg3adknlqvzqcaveryv2f4,11,3,2,72,pd,3,2.0,0.0,14.364,1,1,0.0
2fdg3adknlqvzqcaveryv2f4,12,3,2,66,pd,2,0.0,1.0,22.02,1,1,0.0
2hpq13v4pj9yflupdr03my7p,1,3,3,45,pd,2,0.0,1.0,9.835,1,1,0.0
2hpq13v4pj9yflupdr03my7p,2,3,3,55,pd,1,0.0,1.0,5.322,1,1,0.0
2hpq13v4pj9yflupdr03my7p,3,3,3,30,pd,3,0.0,1.0,7.004,1,1,0.0
2hpq13v4pj9yflupdr03my7p,4,3,3,58,md,1,1.0,0.0,8.574,1,1,0.0
2hpq13v4pj9yflupdr03my7p,5,3,3,17,pd,1,0.0,1.0,7.095,1,1,0.0
2hpq13v4pj9yflupdr03my7p,6,3,3,72,pd,1,0.0,1.0,8.864,1,1,0.0
2hpq13v4pj9yflupdr03my7p,7,3,3,29,pd,2,3.0,0.0,10.115,1,1,0.0
2hpq13v4pj9yflupdr03my7p,8,3,3,76,pd,2,0.0,1.0,5.352,1,1,0.0
2hpq13v4pj9yflupdr03my7p,9,3,3,35,pd,2,0.0,1.0,6.18,1,1,0.0
2hpq13v4pj9yflupdr03my7p,10,3,3,64,pd,2,1.0,0.0,8.724,1,1,0.0
2hpq13v4pj9yflupdr03my7p,11,3,3,66,pd,3,1.0,0.0,8.118,1,1,0.0
2hpq13v4pj9yflupdr03my7p,12,3,3,24,pd,2,1.0,0.0,6.821,1,1,0.0
2imrcuofmk3r36n5luaqtkof,1,3,1,55,pd,2,0.0,1.0,11.711,1,1,0.0
2imrcuofmk3r36n5luaqtkof,2,3,1,66,pd,1,0.0,1.0,7.242,1,1,0.0
2imrcuofmk3r36n5luaqtkof,3,3,1,30,pd,1,0.0,1.0,4.573,1,1,0.0
2imrcuofmk3r36n5luaqtkof,4,3,1,58,md,2,0.0,1.0,12.759,1,1,0.0
2imrcuofmk3r36n5luaqtkof,5,3,1,45,pd,3,0.0,1.0,8.254,1,1,0.0
2imrcuofmk3r36n5luaqtkof,6,3,1,29,pd,3,0.0,1.0,26.795,1,1,0.0
2imrcuofmk3r36n5luaqtkof,7,3,1,17,pd,2,0.0,1.0,15.749,1,1,0.0
2imrcuofmk3r36n5luaqtkof,8,3,1,24,pd,3,0.0,1.0,24.911,1,1,0.0
2imrcuofmk3r36n5luaqtkof,9,3,1,72,pd,2,1.0,0.0,15.273,1,1,0.0
2imrcuofmk3r36n5luaqtkof,10,3,1,64,pd,3,1.0,0.0,21.658,1,1,0.0
2imrcuofmk3r36n5luaqtkof,11,3,1,76,pd,3,1.0,0.0,13.56,1,1,0.0
2imrcuofmk3r36n5luaqtkof,12,3,1,35,pd,3,0.0,1.0,21.49,1,1,0.0
2jlme8pijrvlpefy54ynuym2,1,3,1,55,pd,2,1.0,0.0,27.479,1,1,0.0
2jlme8pijrvlpefy54ynuym2,2,3,1,66,pd,1,0.0,1.0,13.062,1,1,0.0
2jlme8pijrvlpefy54ynuym2,3,3,1,30,pd,1,0.0,1.0,9.466,1,1,0.0
2jlme8pijrvlpefy54ynuym2,4,3,1,58,md,2,1.0,0.0,14.32,1,1,0.0
2jlme8pijrvlpefy54ynuym2,5,3,1,45,pd,3,1.0,0.0,12.343,1,1,0.0
2jlme8pijrvlpefy54ynuym2,6,3,1,29,pd,3,0.0,1.0,18.118,1,1,0.0
2jlme8pijrvlpefy54ynuym2,7,3,1,17,pd,2,0.0,1.0,26.759,1,1,0.0
2jlme8pijrvlpefy54ynuym2,8,3,1,24,pd,3,0.0,1.0,11.357,1,1,0.0
2jlme8pijrvlpefy54ynuym2,9,3,1,72,pd,2,2.0,0.0,12.97,1,1,0.0
2jlme8pijrvlpefy54ynuym2,10,3,1,64,pd,3,0.0,1.0,21.713,1,1,0.0
2jlme8pijrvlpefy54ynuym2,11,3,1,76,pd,3,0.0,1.0,12.319,1,1,0.0
2jlme8pijrvlpefy54ynuym2,12,3,1,35,pd,3,0.0,1.0,18.328,1,1,0.0
2lv7bshw3ztkhd2hpg8vy7ls,1,3,3,45,pd,2,0.0,1.0,29.733,1,1,0.0
2lv7bshw3ztkhd2hpg8vy7ls,2,3,3,55,pd,1,0.0,1.0,17.388,1,1,0.0
2lv7bshw3ztkhd2hpg8vy7ls,3,3,3,30,pd,3,2.0,0.0,25.657,1,1,0.0
2lv7bshw3ztkhd2hpg8vy7ls,4,3,3,58,md,1,0.0,1.0,23.548,1,1,0.0
2lv7bshw3ztkhd2hpg8vy7ls,5,3,3,17,pd,1,0.0,1.0,18.667,1,1,0.0
2lv7bshw3ztkhd2hpg8vy7ls,6,3,3,72,pd,1,0.0,1.0,11.35,1,1,0.0
2lv7bshw3ztkhd2hpg8vy7ls,7,3,3,29,pd,2,0.0,1.0,18.721,1,1,0.0
2lv7bshw3ztkhd2hpg8vy7ls,8,3,3,76,pd,2,1.0,0.0,29.327,1,1,0.0
2lv7bshw3ztkhd2hpg8vy7ls,9,3,3,35,pd,2,0.0,1.0,16.04,1,1,0.0
2lv7bshw3ztkhd2hpg8vy7ls,10,3,3,64,pd,2,0.0,1.0,21.302,1,1,0.0
2lv7bshw3ztkhd2hpg8vy7ls,11,3,3,66,pd,3,1.0,0.0,21.485,1,1,0.0
2lv7bshw3ztkhd2hpg8vy7ls,12,3,3,24,pd,2,2.0,0.0,27.611,1,1,0.0
2p6npsmiutpl2uy7hh6cmuqp,1,3,2,45,pd,1,0.0,1.0,6.864,1,1,0.0
2p6npsmiutpl2uy7hh6cmuqp,2,3,2,30,pd,2,0.0,1.0,12.534,1,1,0.0
2p6npsmiutpl2uy7hh6cmuqp,3,3,2,55,pd,3,0.0,1.0,11.66,1,1,0.0
2p6npsmiutpl2uy7hh6cmuqp,4,3,2,29,pd,1,0.0,1.0,8.38,1,1,0.0
2p6npsmiutpl2uy7hh6cmuqp,5,3,2,64,pd,1,0.0,1.0,10.606,1,1,0.0
2p6npsmiutpl2uy7hh6cmuqp,6,3,2,35,pd,1,0.0,1.0,12.432,1,1,0.0
2p6npsmiutpl2uy7hh6cmuqp,7,3,2,24,pd,1,0.0,1.0,7.938,1,1,0.0
2p6npsmiutpl2uy7hh6cmuqp,8,3,2,17,pd,3,0.0,1.0,7.631,1,1,0.0
2p6npsmiutpl2uy7hh6cmuqp,9,3,2,58,md,3,0.0,1.0,13.257,1,1,0.0
2p6npsmiutpl2uy7hh6cmuqp,10,3,2,76,pd,1,1.0,0.0,17.041,1,1,0.0
2p6npsmiutpl2uy7hh6cmuqp,11,3,2,72,pd,3,0.0,1.0,10.672,1,1,0.0
2p6npsmiutpl2uy7hh6cmuqp,12,3,2,66,pd,2,0.0,1.0,12.556,1,1,0.0
2u17wfoovfto4iks011dibw7,1,3,2,45,pd,1,0.0,1.0,15.324,1,1,0.0
2u17wfoovfto4iks011dibw7,2,3,2,30,pd,2,0.0,1.0,15.713,1,1,0.0
2u17wfoovfto4iks011dibw7,3,3,2,55,pd,3,0.0,1.0,8.063,1,1,0.0
2u17wfoovfto4iks011dibw7,4,3,2,29,pd,1,0.0,1.0,9.498,1,1,0.0
2u17wfoovfto4iks011dibw7,5,3,2,64,pd,1,0.0,1.0,13.354,1,1,0.0
2u17wfoovfto4iks011dibw7,6,3,2,35,pd,1,0.0,1.0,9.76,1,1,0.0
2u17wfoovfto4iks011dibw7,7,3,2,24,pd,1,3.0,0.0,24.378,1,1,0.0
2u17wfoovfto4iks011dibw7,8,3,2,17,pd,3,0.0,1.0,23.882,1,1,0.0
2u17wfoovfto4iks011dibw7,9,3,2,58,md,3,0.0,1.0,13.968,1,1,0.0
2u17wfoovfto4iks011dibw7,10,3,2,76,pd,1,1.0,0.0,10.777,1,1,0.0
2u17wfoovfto4iks011dibw7,11,3,2,72,pd,3,0.0,1.0,15.353,1,1,0.0
2u17wfoovfto4iks011dibw7,12,3,2,66,pd,2,0.0,1.0,5.266,1,1,0.0
2ydcu5breoenaqer3phmkei3,1,3,1,55,pd,2,1.0,0.0,7.466,1,1,0.0
2ydcu5breoenaqer3phmkei3,2,3,1,66,pd,1,0.0,1.0,6.018,1,1,0.0
2ydcu5breoenaqer3phmkei3,3,3,1,30,pd,1,3.0,0.0,6.73,1,1,0.0
2ydcu5breoenaqer3phmkei3,4,3,1,58,md,2,0.0,1.0,6.896,1,1,0.0
2ydcu5breoenaqer3phmkei3,5,3,1,45,pd,3,0.0,1.0,12.753,1,1,0.0
2ydcu5breoenaqer3phmkei3,6,3,1,29,pd,3,0.0,1.0,3.489,1,1,0.0
2ydcu5breoenaqer3phmkei3,7,3,1,17,pd,2,0.0,1.0,7.279,1,1,0.0
2ydcu5breoenaqer3phmkei3,8,3,1,24,pd,3,2.0,0.0,7.616,1,1,0.0
2ydcu5breoenaqer3phmkei3,9,3,1,72,pd,2,0.0,1.0,9.265,1,1,0.0
2ydcu5breoenaqer3phmkei3,10,3,1,64,pd,3,0.0,1.0,5.332,1,1,0.0
2ydcu5breoenaqer3phmkei3,11,3,1,76,pd,3,3.0,0.0,9.113,1,1,0.0
2ydcu5breoenaqer3phmkei3,12,3,1,35,pd,3,0.0,1.0,7.105,1,1,0.0
36t8q1lrjomfk5vzpk6n47vp,1,3,1,55,pd,2,0.0,1.0,15.157,1,1,0.0
36t8q1lrjomfk5vzpk6n47vp,2,3,1,66,pd,1,0.0,1.0,12.177,1,1,0.0
36t8q1lrjomfk5vzpk6n47vp,3,3,1,30,pd,1,0.0,1.0,22.379,1,1,0.0
36t8q1lrjomfk5vzpk6n47vp,4,3,1,58,md,2,1.0,0.0,26.177,1,1,0.0
36t8q1lrjomfk5vzpk6n47vp,5,3,1,45,pd,3,0.0,1.0,17.598,1,1,0.0
36t8q1lrjomfk5vzpk6n47vp,6,3,1,29,pd,3,0.0,1.0,13.81,1,1,0.0
36t8q1lrjomfk5vzpk6n47vp,7,3,1,17,pd,2,0.0,1.0,18.166,1,1,0.0
36t8q1lrjomfk5vzpk6n47vp,8,3,1,24,pd,3,2.0,0.0,12.045,1,1,0.0
36t8q1lrjomfk5vzpk6n47vp,9,3,1,72,pd,2,2.0,0.0,24.534,1,1,0.0
36t8q1lrjomfk5vzpk6n47vp,10,3,1,64,pd,3,0.0,1.0,4.465,1,1,0.0
36t8q1lrjomfk5vzpk6n47vp,11,3,1,76,pd,3,2.0,0.0,6.958,1,1,0.0
36t8q1lrjomfk5vzpk6n47vp,12,3,1,35,pd,3,3.0,0.0,15.079,1,1,0.0
3z65j3k5x0e6gfdasssf2ddo,1,3,3,45,pd,2,0.0,1.0,11.147,1,1,0.0
3z65j3k5x0e6gfdasssf2ddo,2,3,3,55,pd,1,0.0,1.0,14.092,1,1,0.0
3z65j3k5x0e6gfdasssf2ddo,3,3,3,30,pd,3,0.0,1.0,15.776,1,1,0.0
3z65j3k5x0e6gfdasssf2ddo,4,3,3,58,md,1,0.0,1.0,11.695,1,1,0.0
3z65j3k5x0e6gfdasssf2ddo,5,3,3,17,pd,1,0.0,1.0,17.909,1,1,0.0
3z65j3k5x0e6gfdasssf2ddo,6,3,3,72,pd,1,0.0,1.0,8.967,1,1,0.0
3z65j3k5x0e6gfdasssf2ddo,7,3,3,29,pd,2,0.0,1.0,7.421,1,1,0.0
3z65j3k5x0e6gfdasssf2ddo,8,3,3,76,pd,2,0.0,1.0,21.773,1,1,0.0
3z65j3k5x0e6gfdasssf2ddo,9,3,3,35,pd,2,0.0,1.0,8.964,1,1,0.0
3z65j3k5x0e6gfdasssf2ddo,10,3,3,64,pd,2,0.0,1.0,11.527,1,1,0.0
3z65j3k5x0e6gfdasssf2ddo,11,3,3,66,pd,3,,,,1,1,0.0
3z65j3k5x0e6gfdasssf2ddo,12,3,3,24,pd,2,0.0,1.0,12.321,1,1,0.0
49ymqsd9j5092q04edq7w6gm,1,3,3,45,pd,2,0.0,1.0,25.045,1,1,0.0
49ymqsd9j5092q04edq7w6gm,2,3,3,55,pd,1,2.0,0.0,26.564,1,1,0.0
49ymqsd9j5092q04edq7w6gm,3,3,3,30,pd,3,0.0,1.0,16.444,1,1,0.0
49ymqsd9j5092q04edq7w6gm,4,3,3,58,md,1,0.0,1.0,18.27,1,1,0.0
49ymqsd9j5092q04edq7w6gm,5,3,3,17,pd,1,2.0,0.0,23.67,1,1,0.0
49ymqsd9j5092q04edq7w6gm,6,3,3,72,pd,1,2.0,0.0,23.053,1,1,0.0
49ymqsd9j5092q04edq7w6gm,7,3,3,29,pd,2,3.0,0.0,25.471,1,1,0.0
49ymqsd9j5092q04edq7w6gm,8,3,3,76,pd,2,0.0,1.0,15.596,1,1,0.0
49ymqsd9j5092q04edq7w6gm,9,3,3,35,pd,2,3.0,0.0,28.716,1,1,0.0
49ymqsd9j5092q04edq7w6gm,10,3,3,64,pd,2,1.0,0.0,8.802,1,1,0.0
49ymqsd9j5092q04edq7w6gm,11,3,3,66,pd,3,1.0,0.0,14.506,1,1,0.0
49ymqsd9j5092q04edq7w6gm,12,3,3,24,pd,2,2.0,0.0,12.583,1,1,0.0
4befqnrylgwx3gxshaax7hwa,1,3,1,55,pd,2,0.0,1.0,8.478,1,1,0.0
4befqnrylgwx3gxshaax7hwa,2,3,1,66,pd,1,0.0,1.0,5.999,1,1,0.0
4befqnrylgwx3gxshaax7hwa,3,3,1,30,pd,1,0.0,1.0,4.53,1,1,0.0
4befqnrylgwx3gxshaax7hwa,4,3,1,58,md,2,0.0,1.0,10.409,1,1,0.0
4befqnrylgwx3gxshaax7hwa,5,3,1,45,pd,3,0.0,1.0,10.568,1,1,0.0
4befqnrylgwx3gxshaax7hwa,6,3,1,29,pd,3,0.0,1.0,8.339,1,1,0.0
4befqnrylgwx3gxshaax7hwa,7,3,1,17,pd,2,0.0,1.0,24.93,1,1,0.0
4befqnrylgwx3gxshaax7hwa,8,3,1,24,pd,3,0.0,1.0,18.085,1,1,0.0
4befqnrylgwx3gxshaax7hwa,9,3,1,72,pd,2,0.0,1.0,6.968,1,1,0.0
4befqnrylgwx3gxshaax7hwa,10,3,1,64,pd,3,2.0,0.0,13.754,1,1,0.0
4befqnrylgwx3gxshaax7hwa,11,3,1,76,pd,3,2.0,0.0,5.242,1,1,0.0
4befqnrylgwx3gxshaax7hwa,12,3,1,35,pd,3,0.0,1.0,5.39,1,1,0.0
4lo2jkap3pxbifsbagvf3h7j,1,3,2,45,pd,1,2.0,0.0,10.477,1,1,0.0
4lo2jkap3pxbifsbagvf3h7j,2,3,2,30,pd,2,0.0,1.0,17.258,1,1,0.0
4lo2jkap3pxbifsbagvf3h7j,3,3,2,55,pd,3,0.0,1.0,5.546,1,1,0.0
4lo2jkap3pxbifsbagvf3h7j,4,3,2,29,pd,1,2.0,0.0,10.668,1,1,0.0
4lo2jkap3pxbifsbagvf3h7j,5,3,2,64,pd,1,0.0,1.0,9.428,1,1,0.0
4lo2jkap3pxbifsbagvf3h7j,6,3,2,35,pd,1,0.0,1.0,11.547,1,1,0.0
4lo2jkap3pxbifsbagvf3h7j,7,3,2,24,pd,1,0.0,1.0,11.524,1,1,0.0
4lo2jkap3pxbifsbagvf3h7j,8,3,2,17,pd,3,0.0,1.0,18.34,1,1,0.0
4lo2jkap3pxbifsbagvf3h7j,9,3,2,58,md,3,0.0,1.0,11.028,1,1,0.0
4lo2jkap3pxbifsbagvf3h7j,10,3,2,76,pd,1,3.0,0.0,19.516,1,1,0.0
4lo2jkap3pxbifsbagvf3h7j,11,3,2,72,pd,3,2.0,0.0,10.484,1,1,0.0
4lo2jkap3pxbifsbagvf3h7j,12,3,2,66,pd,2,1.0,0.0,22.317,1,1,0.0
5dj0z4d9nqg0ibe4b8kmckej,1,3,1,55,pd,2,1.0,0.0,13.757,1,1,0.0
5dj0z4d9nqg0ibe4b8kmckej,2,3,1,66,pd,1,0.0,1.0,9.556,1,1,0.0
5dj0z4d9nqg0ibe4b8kmckej,3,3,1,30,pd,1,0.0,1.0,16.067,1,1,0.0
5dj0z4d9nqg0ibe4b8kmckej,4,3,1,58,md,2,0.0,1.0,14.173,1,1,0.0
5dj0z4d9nqg0ibe4b8kmckej,5,3,1,45,pd,3,0.0,1.0,15.009,1,1,0.0
5dj0z4d9nqg0ibe4b8kmckej,6,3,1,29,pd,3,0.0,1.0,19.483,1,1,0.0
5dj0z4d9nqg0ibe4b8kmckej,7,3,1,17,pd,2,,,,1,1,0.0
5dj0z4d9nqg0ibe4b8kmckej,8,3,1,24,pd,3,0.0,1.0,9.991,1,1,0.0
5dj0z4d9nqg0ibe4b8kmckej,9,3,1,72,pd,2,0.0,1.0,21.834,1,1,0.0
5dj0z4d9nqg0ibe4b8kmckej,10,3,1,64,pd,3,0.0,1.0,16.069,1,1,0.0
5dj0z4d9nqg0ibe4b8kmckej,11,3,1,76,pd,3,0.0,1.0,14.137,1,1,0.0
5dj0z4d9nqg0ibe4b8kmckej,12,3,1,35,pd,3,0.0,1.0,28.936,1,1,0.0
5dx4h0naks6kja60m6uaz1tb,1,3,2,45,pd,1,0.0,1.0,23.929,1,1,0.0
5dx4h0naks6kja60m6uaz1tb,2,3,2,30,pd,2,0.0,1.0,19.728,1,1,0.0
5dx4h0naks6kja60m6uaz1tb,3,3,2,55,pd,3,1.0,0.0,23.441,1,1,0.0
5dx4h0naks6kja60m6uaz1tb,4,3,2,29,pd,1,0.0,1.0,23.888,1,1,0.0
5dx4h0naks6kja60m6uaz1tb,5,3,2,64,pd,1,0.0,1.0,23.448,1,1,0.0
5dx4h0naks6kja60m6uaz1tb,6,3,2,35,pd,1,0.0,1.0,10.814,1,1,0.0
5dx4h0naks6kja60m6uaz1tb,7,3,2,24,pd,1,0.0,1.0,13.974,1,1,0.0
5dx4h0naks6kja60m6uaz1tb,8,3,2,17,pd,3,1.0,0.0,28.881,1,1,0.0
5dx4h0naks6kja60m6uaz1tb,9,3,2,58,md,3,1.0,0.0,26.373,1,1,0.0
5dx4h0naks6kja60m6uaz1tb,10,3,2,76,pd,1,0.0,1.0,26.132,1,1,0.0
5dx4h0naks6kja60m6uaz1tb,11,3,2,72,pd,3,1.0,0.0,28.676,1,1,0.0
5dx4h0naks6kja60m6uaz1tb,12,3,2,66,pd,2,0.0,1.0,22.227,1,1,0.0
5jehrrix0jp71xf04ines46e,1,3,3,45,pd,2,0.0,1.0,10.956,1,1,0.0
5jehrrix0jp71xf04ines46e,2,3,3,55,pd,1,2.0,0.0,8.396,1,1,0.0
5jehrrix0jp71xf04ines46e,3,3,3,30,pd,3,2.0,0.0,22.428,1,1,0.0
5jehrrix0jp71xf04ines46e,4,3,3,58,md,1,0.0,1.0,25.445,1,1,0.0
5jehrrix0jp71xf04ines46e,5,3,3,17,pd,1,1.0,0.0,22.034,1,1,0.0
5jehrrix0jp71xf04ines46e,6,3,3,72,pd,1,3.0,0.0,23.605,1,1,0.0
5jehrrix0jp71xf04ines46e,7,3,3,29,pd,2,3.0,0.0,25.539,1,1,0.0
5jehrrix0jp71xf04ines46e,8,3,3,76,pd,2,0.0,1.0,25.356,1,1,0.0
5jehrrix0jp71xf04ines46e,9,3,3,35,pd,2,0.0,1.0,21.698,1,1,0.0
5jehrrix0jp71xf04ines46e,10,3,3,64,pd,2,2.0,0.0,7.212,1,1,0.0
5jehrrix0jp71xf04ines46e,11,3,3,66,pd,3,2.0,0.0,5.46,1,1,0.0
5jehrrix0jp71xf04ines46e,12,3,3,24,pd,2,1.0,0.0,5.284,1,1,0.0
5jyqnu1ltb66722yzsldztcv,1,3,2,45,pd,1,0.0,1.0,9.5,1,1,0.0
5jyqnu1ltb66722yzsldztcv,2,3,2,30,pd,2,0.0,1.0,22.624,1,1,0.0
5jyqnu1ltb66722yzsldztcv,3,3,2,55,pd,3,0.0,1.0,16.336,1,1,0.0
5jyqnu1ltb66722yzsldztcv,4,3,2,29,pd,1,0.0,1.0,25.004,1,1,0.0
5jyqnu1ltb66722yzsldztcv,5,3,2,64,pd,1,0.0,1.0,14.166,1,1,0.0
5jyqnu1ltb66722yzsldztcv,6,3,2,35,pd,1,1.0,0.0,10.544,1,1,0.0
5jyqnu1ltb66722yzsldztcv,7,3,2,24,pd,1,2.0,0.0,13.057,1,1,0.0
5jyqnu1ltb66722yzsldztcv,8,3,2,17,pd,3,,,,1,1,0.0
5jyqnu1ltb66722yzsldztcv,9,3,2,58,md,3,1.0,0.0,13.932,1,1,0.0
5jyqnu1ltb66722yzsldztcv,10,3,2,76,pd,1,0.0,1.0,6.929,1,1,0.0
5jyqnu1ltb66722yzsldztcv,11,3,2,72,pd,3,3.0,0.0,7.921,1,1,0.0
5jyqnu1ltb66722yzsldztcv,12,3,2,66,pd,2,2.0,0.0,15.328,1,1,4.0
5lhsgo4nsy5chl7poenx8glj,1,3,3,45,pd,2,0.0,1.0,9.649,0,1,0.0
5lhsgo4nsy5chl7poenx8glj,2,3,3,55,pd,1,0.0,1.0,11.274,0,1,0.0
5lhsgo4nsy5chl7poenx8glj,3,3,3,30,pd,3,0.0,1.0,19.949,0,1,0.0
5lhsgo4nsy5chl7poenx8glj,4,3,3,58,md,1,0.0,1.0,10.501,0,1,0.0
5lhsgo4nsy5chl7poenx8glj,5,3,3,17,pd,1,0.0,1.0,18.342,0,1,0.0
5lhsgo4nsy5chl7poenx8glj,6,3,3,72,pd,1,0.0,1.0,19.021,0,1,0.0
5lhsgo4nsy5chl7poenx8glj,7,3,3,29,pd,2,0.0,1.0,28.555,0,1,0.0
5lhsgo4nsy5chl7poenx8glj,8,3,3,76,pd,2,0.0,1.0,19.48,0,1,0.0
5lhsgo4nsy5chl7poenx8glj,9,3,3,35,pd,2,2.0,0.0,5.452,0,1,0.0
5lhsgo4nsy5chl7poenx8glj,10,3,3,64,pd,2,3.0,0.0,19.034,0,1,0.0
5lhsgo4nsy5chl7poenx8glj,11,3,3,66,pd,3,0.0,1.0,26.134,0,1,0.0
5lhsgo4nsy5chl7poenx8glj,12,3,3,24,pd,2,3.0,0.0,8.104,0,1,0.0
5nrm5hqpgawjakat3lrpqddc,1,3,2,45,pd,1,2.0,0.0,8.696,1,1,0.0
5nrm5hqpgawjakat3lrpqddc,2,3,2,30,pd,2,0.0,1.0,12.749,1,1,0.0
5nrm5hqpgawjakat3lrpqddc,3,3,2,55,pd,3,0.0,1.0,19.602,1,1,0.0
5nrm5hqpgawjakat3lrpqddc,4,3,2,29,pd,1,0.0,1.0,6.422,1,1,0.0
5nrm5hqpgawjakat3lrpqddc,5,3,2,64,pd,1,0.0,1.0,13.236,1,1,0.0
5nrm5hqpgawjakat3lrpqddc,6,3,2,35,pd,1,3.0,0.0,12.483,1,1,0.0
5nrm5hqpgawjakat3lrpqddc,7,3,2,24,pd,1,0.0,1.0,10.479,1,1,0.0
5nrm5hqpgawjakat3lrpqddc,8,3,2,17,pd,3,0.0,1.0,24.19,1,1,0.0
5nrm5hqpgawjakat3lrpqddc,9,3,2,58,md,3,0.0,1.0,15.132,1,1,0.0
5nrm5hqpgawjakat3lrpqddc,10,3,2,76,pd,1,2.0,0.0,14.385,1,1,0.0
5nrm5hqpgawjakat3lrpqddc,11,3,2,72,pd,3,2.0,0.0,9.4,1,1,0.0
5nrm5hqpgawjakat3lrpqddc,12,3,2,66,pd,2,2.0,0.0,7.423,1,1,0.0
5z17417xklar8vlhao0hmh81,1,3,2,45,pd,1,0.0,1.0,14.193,1,1,0.0
5z17417xklar8vlhao0hmh81,2,3,2,30,pd,2,0.0,1.0,21.74,1,1,0.0
5z17417xklar8vlhao0hmh81,3,3,2,55,pd,3,0.0,1.0,11.451,1,1,0.0
5z17417xklar8vlhao0hmh81,4,3,2,29,pd,1,0.0,1.0,21.826,1,1,0.0
5z17417xklar8vlhao0hmh81,5,3,2,64,pd,1,1.0,0.0,21.57,1,1,0.0
5z17417xklar8vlhao0hmh81,6,3,2,35,pd,1,0.0,1.0,22.257,1,1,0.0
5z17417xklar8vlhao0hmh81,7,3,2,24,pd,1,0.0,1.0,8.665,1,1,0.0
5z17417xklar8vlhao0hmh81,8,3,2,17,pd,3,1.0,0.0,29.94,1,1,0.0
5z17417xklar8vlhao0hmh81,9,3,2,58,md,3,0.0,1.0,12.361,1,1,0.0
5z17417xklar8vlhao0hmh81,10,3,2,76,pd,1,2.0,0.0,27.82,1,1,0.0
5z17417xklar8vlhao0hmh81,11,3,2,72,pd,3,2.0,0.0,16.322,1,1,0.0
5z17417xklar8vlhao0hmh81,12,3,2,66,pd,2,0.0,1.0,15.027,1,1,0.0
62z9cnxo71p0docgan22lux0,1,3,3,45,pd,2,0.0,1.0,6.262,1,1,0.0
62z9cnxo71p0docgan22lux0,2,3,3,55,pd,1,0.0,1.0,9.131,1,1,0.0
62z9cnxo71p0docgan22lux0,3,3,3,30,pd,3,2.0,0.0,29.528,1,1,0.0
62z9cnxo71p0docgan22lux0,4,3,3,58,md,1,3.0,0.0,25.968,1,1,0.0
62z9cnxo71p0docgan22lux0,5,3,3,17,pd,1,0.0,1.0,18.899,1,1,0.0
62z9cnxo71p0docgan22lux0,6,3,3,72,pd,1,0.0,1.0,10.812,1,1,0.0
62z9cnxo71p0docgan22lux0,7,3,3,29,pd,2,0.0,1.0,28.429,1,1,0.0
62z9cnxo71p0docgan22lux0,8,3,3,76,pd,2,1.0,0.0,25.568,1,1,0.0
62z9cnxo71p0docgan22lux0,9,3,3,35,pd,2,0.0,1.0,21.44,1,1,0.0
62z9cnxo71p0docgan22lux0,10,3,3,64,pd,2,2.0,0.0,19.173,1,1,0.0
62z9cnxo71p0docgan22lux0,11,3,3,66,pd,3,1.0,0.0,25.821,1,1,0.0
62z9cnxo71p0docgan22lux0,12,3,3,24,pd,2,2.0,0.0,15.441,1,1,0.0
63cb08yaktqmqkixxkihvnm1,1,3,1,55,pd,2,1.0,0.0,11.959,1,1,0.0
63cb08yaktqmqkixxkihvnm1,2,3,1,66,pd,1,2.0,0.0,7.162,0,1,0.0
63cb08yaktqmqkixxkihvnm1,3,3,1,30,pd,1,3.0,0.0,6.329,1,1,0.0
63cb08yaktqmqkixxkihvnm1,4,3,1,58,md,2,0.0,1.0,3.818,1,1,0.0
63cb08yaktqmqkixxkihvnm1,5,3,1,45,pd,3,2.0,0.0,8.911,1,1,0.0
63cb08yaktqmqkixxkihvnm1,6,3,1,29,pd,3,0.0,1.0,6.504,1,1,0.0
63cb08yaktqmqkixxkihvnm1,7,3,1,17,pd,2,2.0,0.0,1.971,0,1,0.0
63cb08yaktqmqkixxkihvnm1,8,3,1,24,pd,3,3.0,0.0,6.199,0,1,0.0
63cb08yaktqmqkixxkihvnm1,9,3,1,72,pd,2,3.0,0.0,4.407,1,1,0.0
63cb08yaktqmqkixxkihvnm1,10,3,1,64,pd,3,1.0,0.0,1.832,1,1,0.0
63cb08yaktqmqkixxkihvnm1,11,3,1,76,pd,3,0.0,1.0,3.365,1,1,0.0
63cb08yaktqmqkixxkihvnm1,12,3,1,35,pd,3,1.0,0.0,4.262,1,1,0.0
64l3mcrhtvft9ihly8wv8qil,1,3,3,45,pd,2,0.0,1.0,12.987,1,1,0.0
64l3mcrhtvft9ihly8wv8qil,2,3,3,55,pd,1,0.0,1.0,12.2,1,1,0.0
64l3mcrhtvft9ihly8wv8qil,3,3,3,30,pd,3,0.0,1.0,24.202,1,1,0.0
64l3mcrhtvft9ihly8wv8qil,4,3,3,58,md,1,,,,1,1,0.0
64l3mcrhtvft9ihly8wv8qil,5,3,3,17,pd,1,1.0,0.0,13.624,1,1,0.0
64l3mcrhtvft9ihly8wv8qil,6,3,3,72,pd,1,0.0,1.0,15.147,1,1,0.0
64l3mcrhtvft9ihly8wv8qil,7,3,3,29,pd,2,0.0,1.0,12.248,1,1,0.0
64l3mcrhtvft9ihly8wv8qil,8,3,3,76,pd,2,2.0,0.0,13.693,1,1,0.0
64l3mcrhtvft9ihly8wv8qil,9,3,3,35,pd,2,3.0,0.0,11.646,1,1,0.0
64l3mcrhtvft9ihly8wv8qil,10,3,3,64,pd,2,0.0,1.0,19.206,1,1,0.0
64l3mcrhtvft9ihly8wv8qil,11,3,3,66,pd,3,0.0,1.0,17.668,1,1,0.0
64l3mcrhtvft9ihly8wv8qil,12,3,3,24,pd,2,0.0,1.0,16.849,1,1,0.0
6aa7cq97dyyx549e15dk59zg,1,3,2,45,pd,1,0.0,1.0,6.363,1,1,0.0
6aa7cq97dyyx549e15dk59zg,2,3,2,30,pd,2,2.0,0.0,9.096,1,1,0.0
6aa7cq97dyyx549e15dk59zg,3,3,2,55,pd,3,0.0,1.0,6.918,1,1,0.0
6aa7cq97dyyx549e15dk59zg,4,3,2,29,pd,1,2.0,0.0,8.848,1,1,0.0
6aa7cq97dyyx549e15dk59zg,5,3,2,64,pd,1,1.0,0.0,10.394,1,1,0.0
6aa7cq97dyyx549e15dk59zg,6,3,2,35,pd,1,0.0,1.0,5.675,1,1,0.0
6aa7cq97dyyx549e15dk59zg,7,3,2,24,pd,1,2.0,0.0,11.951,1,1,0.0
6aa7cq97dyyx549e15dk59zg,8,3,2,17,pd,3,0.0,1.0,13.182,1,1,0.0
6aa7cq97dyyx549e15dk59zg,9,3,2,58,md,3,0.0,1.0,14.375,1,1,0.0
6aa7cq97dyyx549e15dk59zg,10,3,2,76,pd,1,2.0,0.0,5.884,1,1,0.0
6aa7cq97dyyx549e15dk59zg,11,3,2,72,pd,3,3.0,0.0,9.201,1,1,0.0
6aa7cq97dyyx549e15dk59zg,12,3,2,66,pd,2,0.0,1.0,15.066,1,1,0.0
6f3aa5rt3iprarsp7i9ms0ny,1,3,2,45,pd,1,2.0,0.0,4.94,1,1,0.0
6f3aa5rt3iprarsp7i9ms0ny,2,3,2,30,pd,2,2.0,0.0,7.619,1,1,0.0
6f3aa5rt3iprarsp7i9ms0ny,3,3,2,55,pd,3,0.0,1.0,13.4,1,1,0.0
6f3aa5rt3iprarsp7i9ms0ny,4,3,2,29,pd,1,0.0,1.0,6.382,1,1,0.0
6f3aa5rt3iprarsp7i9ms0ny,5,3,2,64,pd,1,,,,1,1,0.0
6f3aa5rt3iprarsp7i9ms0ny,6,3,2,35,pd,1,3.0,0.0,19.426,1,1,0.0
6f3aa5rt3iprarsp7i9ms0ny,7,3,2,24,pd,1,2.0,0.0,7.953,1,1,0.0
6f3aa5rt3iprarsp7i9ms0ny,8,3,2,17,pd,3,1.0,0.0,9.713,1,1,0.0
6f3aa5rt3iprarsp7i9ms0ny,9,3,2,58,md,3,1.0,0.0,6.85,1,1,0.0
6f3aa5rt3iprarsp7i9ms0ny,10,3,2,76,pd,1,3.0,0.0,6.466,1,1,0.0
6f3aa5rt3iprarsp7i9ms0ny,11,3,2,72,pd,3,3.0,0.0,1.092,1,1,0.0
6f3aa5rt3iprarsp7i9ms0ny,12,3,2,66,pd,2,2.0,0.0,10.796,1,1,0.0
6m8k1rargwqblxixzy1zwlhn,1,3,3,45,pd,2,0.0,1.0,14.382,1,1,0.0
6m8k1rargwqblxixzy1zwlhn,2,3,3,55,pd,1,0.0,1.0,26.91,1,1,0.0
6m8k1rargwqblxixzy1zwlhn,3,3,3,30,pd,3,0.0,1.0,23.099,1,1,0.0
6m8k1rargwqblxixzy1zwlhn,4,3,3,58,md,1,0.0,1.0,24.147,1,1,0.0
6m8k1rargwqblxixzy1zwlhn,5,3,3,17,pd,1,,,,1,1,0.0
6m8k1rargwqblxixzy1zwlhn,6,3,3,72,pd,1,0.0,1.0,22.838,1,1,0.0
6m8k1rargwqblxixzy1zwlhn,7,3,3,29,pd,2,0.0,1.0,10.334,1,1,0.0
6m8k1rargwqblxixzy1zwlhn,8,3,3,76,pd,2,0.0,1.0,28.372,1,1,0.0
6m8k1rargwqblxixzy1zwlhn,9,3,3,35,pd,2,1.0,0.0,28.323,1,1,0.0
6m8k1rargwqblxixzy1zwlhn,10,3,3,64,pd,2,2.0,0.0,26.881,1,1,0.0
6m8k1rargwqblxixzy1zwlhn,11,3,3,66,pd,3,0.0,1.0,22.129,1,1,0.0
6m8k1rargwqblxixzy1zwlhn,12,3,3,24,pd,2,0.0,1.0,12.334,1,1,0.0
7hx2rsgv0o3slq9s0g8nm0c9,1,3,3,45,pd,2,0.0,1.0,15.415,1,1,0.0
7hx2rsgv0o3slq9s0g8nm0c9,2,3,3,55,pd,1,0.0,1.0,10.356,1,1,0.0
7hx2rsgv0o3slq9s0g8nm0c9,3,3,3,30,pd,3,0.0,1.0,16.88,1,1,0.0
7hx2rsgv0o3slq9s0g8nm0c9,4,3,3,58,md,1,0.0,1.0,9.6,1,1,0.0
7hx2rsgv0o3slq9s0g8nm0c9,5,3,3,17,pd,1,0.0,1.0,14.042,1,1,0.0
7hx2rsgv0o3slq9s0g8nm0c9,6,3,3,72,pd,1,3.0,0.0,16.94,1,1,0.0
7hx2rsgv0o3slq9s0g8nm0c9,7,3,3,29,pd,2,0.0,1.0,16.028,1,1,0.0
7hx2rsgv0o3slq9s0g8nm0c9,8,3,3,76,pd,2,0.0,1.0,21.23,1,1,0.0
7hx2rsgv0o3slq9s0g8nm0c9,9,3,3,35,pd,2,1.0,0.0,17.099,1,1,0.0
7hx2rsgv0o3slq9s0g8nm0c9,10,3,3,64,pd,2,0.0,1.0,16.969,1,1,0.0
7hx2rsgv0o3slq9s0g8nm0c9,11,3,3,66,pd,3,1.0,0.0,16.7,1,1,0.0
7hx2rsgv0o3slq9s0g8nm0c9,12,3,3,24,pd,2,3.0,0.0,20.521,1,1,0.0
7iletsx2bi9hpppitgum2ffi,1,3,1,55,pd,2,0.0,1.0,12.018,1,1,0.0
7iletsx2bi9hpppitgum2ffi,2,3,1,66,pd,1,0.0,1.0,8.857,1,1,0.0
7iletsx2bi9hpppitgum2ffi,3,3,1,30,pd,1,0.0,1.0,9.284,1,1,0.0
7iletsx2bi9hpppitgum2ffi,4,3,1,58,md,2,3.0,0.0,18.247,1,1,0.0
7iletsx2bi9hpppitgum2ffi,5,3,1,45,pd,3,0.0,1.0,15.577,1,1,0.0
7iletsx2bi9hpppitgum2ffi,6,3,1,29,pd,3,,,,1,1,0.0
7iletsx2bi9hpppitgum2ffi,7,3,1,17,pd,2,1.0,0.0,9.252,1,1,0.0
7iletsx2bi9hpppitgum2ffi,8,3,1,24,pd,3,2.0,0.0,7.53,1,1,0.0
7iletsx2bi9hpppitgum2ffi,9,3,1,72,pd,2,1.0,0.0,9.782,1,1,0.0
7iletsx2bi9hpppitgum2ffi,10,3,1,64,pd,3,3.0,0.0,8.804,1,1,0.0
7iletsx2bi9hpppitgum2ffi,11,3,1,76,pd,3,0.0,1.0,6.734,1,1,0.0
7iletsx2bi9hpppitgum2ffi,12,3,1,35,pd,3,0.0,1.0,3.275,1,1,0.0
7z8csc7zfih5pfeor0kfyt2v,1,3,2,45,pd,1,0.0,1.0,9.477,1,1,0.0
7z8csc7zfih5pfeor0kfyt2v,2,3,2,30,pd,2,0.0,1.0,10.66,1,1,0.0
7z8csc7zfih5pfeor0kfyt2v,3,3,2,55,pd,3,0.0,1.0,13.669,1,1,0.0
7z8csc7zfih5pfeor0kfyt2v,4,3,2,29,pd,1,0.0,1.0,13.059,1,1,0.0
7z8csc7zfih5pfeor0kfyt2v,5,3,2,64,pd,1,0.0,1.0,12.58,1,1,0.0
7z8csc7zfih5pfeor0kfyt2v,6,3,2,35,pd,1,0.0,1.0,10.316,1,1,0.0
7z8csc7zfih5pfeor0kfyt2v,7,3,2,24,pd,1,0.0,1.0,13.9,1,1,0.0
7z8csc7zfih5pfeor0kfyt2v,8,3,2,17,pd,3,0.0,1.0,23.085,1,1,0.0
7z8csc7zfih5pfeor0kfyt2v,9,3,2,58,md,3,0.0,1.0,17.756,1,1,0.0
7z8csc7zfih5pfeor0kfyt2v,10,3,2,76,pd,1,0.0,1.0,26.973,1,1,0.0
7z8csc7zfih5pfeor0kfyt2v,11,3,2,72,pd,3,0.0,1.0,10.412,1,1,0.0
7z8csc7zfih5pfeor0kfyt2v,12,3,2,66,pd,2,0.0,1.0,15.909,1,1,0.0
83d65pn4d2raivkvi6hb8fhc,1,3,2,45,pd,1,0.0,1.0,18.737,1,1,0.0
83d65pn4d2raivkvi6hb8fhc,2,3,2,30,pd,2,0.0,1.0,16.493,1,1,0.0
83d65pn4d2raivkvi6hb8fhc,3,3,2,55,pd,3,0.0,1.0,16.874,1,1,0.0
83d65pn4d2raivkvi6hb8fhc,4,3,2,29,pd,1,0.0,1.0,13.429,1,1,0.0
83d65pn4d2raivkvi6hb8fhc,5,3,2,64,pd,1,0.0,1.0,20.403,1,1,0.0
83d65pn4d2raivkvi6hb8fhc,6,3,2,35,pd,1,0.0,1.0,9.731,1,1,0.0
83d65pn4d2raivkvi6hb8fhc,7,3,2,24,pd,1,0.0,1.0,13.512,1,1,0.0
83d65pn4d2raivkvi6hb8fhc,8,3,2,17,pd,3,0.0,1.0,28.651,1,1,0.0
83d65pn4d2raivkvi6hb8fhc,9,3,2,58,md,3,0.0,1.0,28.552,1,1,0.0
83d65pn4d2raivkvi6hb8fhc,10,3,2,76,pd,1,0.0,1.0,21.017,1,1,0.0
83d65pn4d2raivkvi6hb8fhc,11,3,2,72,pd,3,2.0,0.0,18.887,1,1,0.0
83d65pn4d2raivkvi6hb8fhc,12,3,2,66,pd,2,2.0,0.0,17.889,1,1,0.0
904us1xo4en5ejund7wj7xcz,1,3,2,45,pd,1,0.0,1.0,10.389,1,1,0.0
904us1xo4en5ejund7wj7xcz,2,3,2,30,pd,2,0.0,1.0,13.706,1,1,0.0
904us1xo4en5ejund7wj7xcz,3,3,2,55,pd,3,0.0,1.0,9.952,1,1,0.0
904us1xo4en5ejund7wj7xcz,4,3,2,29,pd,1,0.0,1.0,13.675,1,1,0.0
904us1xo4en5ejund7wj7xcz,5,3,2,64,pd,1,0.0,1.0,17.172,1,1,0.0
904us1xo4en5ejund7wj7xcz,6,3,2,35,pd,1,0.0,1.0,8.873,1,1,0.0
904us1xo4en5ejund7wj7xcz,7,3,2,24,pd,1,0.0,1.0,23.079,1,1,0.0
904us1xo4en5ejund7wj7xcz,8,3,2,17,pd,3,0.0,1.0,24.513,1,1,0.0
904us1xo4en5ejund7wj7xcz,9,3,2,58,md,3,1.0,0.0,26.148,1,1,0.0
904us1xo4en5ejund7wj7xcz,10,3,2,76,pd,1,0.0,1.0,29.578,1,1,0.0
904us1xo4en5ejund7wj7xcz,11,3,2,72,pd,3,0.0,1.0,14.398,1,1,0.0
904us1xo4en5ejund7wj7xcz,12,3,2,66,pd,2,0.0,1.0,15.621,1,1,0.0
9aw9gl5jqv46t2q1flf417d0,1,3,1,55,pd,2,0.0,1.0,21.232,1,1,0.0
9aw9gl5jqv46t2q1flf417d0,2,3,1,66,pd,1,0.0,1.0,13.24,1,1,0.0
9aw9gl5jqv46t2q1flf417d0,3,3,1,30,pd,1,0.0,1.0,10.424,1,1,0.0
9aw9gl5jqv46t2q1flf417d0,4,3,1,58,md,2,1.0,0.0,24.953,1,1,0.0
9aw9gl5jqv46t2q1flf417d0,5,3,1,45,pd,3,0.0,1.0,26.607,1,1,0.0
9aw9gl5jqv46t2q1flf417d0,6,3,1,29,pd,3,0.0,1.0,7.35,1,1,0.0
9aw9gl5jqv46t2q1flf417d0,7,3,1,17,pd,2,0.0,1.0,21.401,1,1,0.0
9aw9gl5jqv46t2q1flf417d0,8,3,1,24,pd,3,0.0,1.0,9.581,1,1,0.0
9aw9gl5jqv46t2q1flf417d0,9,3,1,72,pd,2,0.0,1.0,15.594,1,1,0.0
9aw9gl5jqv46t2q1flf417d0,10,3,1,64,pd,3,0.0,1.0,25.516,1,1,0.0
9aw9gl5jqv46t2q1flf417d0,11,3,1,76,pd,3,0.0,1.0,16.805,1,1,0.0
9aw9gl5jqv46t2q1flf417d0,12,3,1,35,pd,3,0.0,1.0,17.585,1,1,0.0
9tz3b7sj8khwmyl6fj7nucqi,1,3,2,45,pd,1,0.0,1.0,10.448,1,1,0.0
9tz3b7sj8khwmyl6fj7nucqi,2,3,2,30,pd,2,2.0,0.0,15.305,1,1,0.0
9tz3b7sj8khwmyl6fj7nucqi,3,3,2,55,pd,3,0.0,1.0,9.906,1,1,0.0
9tz3b7sj8khwmyl6fj7nucqi,4,3,2,29,pd,1,0.0,1.0,12.008,1,1,0.0
9tz3b7sj8khwmyl6fj7nucqi,5,3,2,64,pd,1,0.0,1.0,23.221,1,1,0.0
9tz3b7sj8khwmyl6fj7nucqi,6,3,2,35,pd,1,0.0,1.0,14.49,1,1,0.0
9tz3b7sj8khwmyl6fj7nucqi,7,3,2,24,pd,1,1.0,0.0,22.048,1,1,0.0
9tz3b7sj8khwmyl6fj7nucqi,8,3,2,17,pd,3,0.0,1.0,18.697,1,1,0.0
9tz3b7sj8khwmyl6fj7nucqi,9,3,2,58,md,3,2.0,0.0,16.83,1,1,0.0
9tz3b7sj8khwmyl6fj7nucqi,10,3,2,76,pd,1,3.0,0.0,20.412,1,1,0.0
9tz3b7sj8khwmyl6fj7nucqi,11,3,2,72,pd,3,2.0,0.0,21.087,1,1,0.0
9tz3b7sj8khwmyl6fj7nucqi,12,3,2,66,pd,2,2.0,0.0,23.55,1,1,0.0
ab156hhj39pbdfdmqex7354t,1,3,2,45,pd,1,0.0,1.0,11.468,1,1,0.0
ab156hhj39pbdfdmqex7354t,2,3,2,30,pd,2,0.0,1.0,10.131,1,1,0.0
ab156hhj39pbdfdmqex7354t,3,3,2,55,pd,3,0.0,1.0,11.684,1,1,0.0
ab156hhj39pbdfdmqex7354t,4,3,2,29,pd,1,0.0,1.0,8.156,1,1,0.0
ab156hhj39pbdfdmqex7354t,5,3,2,64,pd,1,0.0,1.0,18.884,1,1,0.0
ab156hhj39pbdfdmqex7354t,6,3,2,35,pd,1,0.0,1.0,10.378,1,1,0.0
ab156hhj39pbdfdmqex7354t,7,3,2,24,pd,1,0.0,1.0,12.796,1,1,0.0
ab156hhj39pbdfdmqex7354t,8,3,2,17,pd,3,0.0,1.0,11.906,1,1,0.0
ab156hhj39pbdfdmqex7354t,9,3,2,58,md,3,1.0,0.0,9.411,1,1,0.0
ab156hhj39pbdfdmqex7354t,10,3,2,76,pd,1,0.0,1.0,16.168,1,1,0.0
ab156hhj39pbdfdmqex7354t,11,3,2,72,pd,3,0.0,1.0,8.028,1,1,0.0
ab156hhj39pbdfdmqex7354t,12,3,2,66,pd,2,2.0,0.0,15.499,1,1,0.0
ae9x8jlpq2by67vm77fdw21b,1,3,1,55,pd,2,1.0,0.0,17.716,1,1,0.0
ae9x8jlpq2by67vm77fdw21b,2,3,1,66,pd,1,2.0,0.0,17.887,1,1,0.0
ae9x8jlpq2by67vm77fdw21b,3,3,1,30,pd,1,0.0,1.0,8.372,1,1,0.0
ae9x8jlpq2by67vm77fdw21b,4,3,1,58,md,2,3.0,0.0,10.292,1,1,0.0
ae9x8jlpq2by67vm77fdw21b,5,3,1,45,pd,3,0.0,1.0,8.365,1,1,0.0
ae9x8jlpq2by67vm77fdw21b,6,3,1,29,pd,3,0.0,1.0,14.073,1,1,0.0
ae9x8jlpq2by67vm77fdw21b,7,3,1,17,pd,2,1.0,0.0,16.366,1,1,0.0
ae9x8jlpq2by67vm77fdw21b,8,3,1,24,pd,3,3.0,0.0,13.551,1,1,0.0
ae9x8jlpq2by67vm77fdw21b,9,3,1,72,pd,2,0.0,1.0,18.402,1,1,0.0
ae9x8jlpq2by67vm77fdw21b,10,3,1,64,pd,3,0.0,1.0,21.304,1,1,0.0
ae9x8jlpq2by67vm77fdw21b,11,3,1,76,pd,3,1.0,0.0,11.035,1,1,0.0
ae9x8jlpq2by67vm77fdw21b,12,3,1,35,pd,3,3.0,0.0,13.562,1,1,0.0
aek1qwmstue08jfqva0nuctd,1,3,1,55,pd,2,1.0,0.0,13.131,1,1,0.0
aek1qwmstue08jfqva0nuctd,2,3,1,66,pd,1,0.0,1.0,9.268,1,1,0.0
aek1qwmstue08jfqva0nuctd,3,3,1,30,pd,1,0.0,1.0,12.684,1,1,0.0
aek1qwmstue08jfqva0nuctd,4,3,1,58,md,2,0.0,1.0,15.5,1,1,0.0
aek1qwmstue08jfqva0nuctd,5,3,1,45,pd,3,0.0,1.0,17.531,1,1,0.0
aek1qwmstue08jfqva0nuctd,6,3,1,29,pd,3,0.0,1.0,15.686,1,1,0.0
aek1qwmstue08jfqva0nuctd,7,3,1,17,pd,2,1.0,0.0,27.996,1,1,0.0
aek1qwmstue08jfqva0nuctd,8,3,1,24,pd,3,0.0,1.0,12.185,1,1,0.0
aek1qwmstue08jfqva0nuctd,9,3,1,72,pd,2,0.0,1.0,25.898,1,1,0.0
aek1qwmstue08jfqva0nuctd,10,3,1,64,pd,3,0.0,1.0,26.736,1,1,0.0
aek1qwmstue08jfqva0nuctd,11,3,1,76,pd,3,3.0,0.0,27.756,1,1,0.0
aek1qwmstue08jfqva0nuctd,12,3,1,35,pd,3,1.0,0.0,28.046,1,1,0.0
ahu64kinfjnyyollp82777wn,1,3,3,45,pd,2,0.0,1.0,9.584,1,1,0.0
ahu64kinfjnyyollp82777wn,2,3,3,55,pd,1,0.0,1.0,9.355,1,1,0.0
ahu64kinfjnyyollp82777wn,3,3,3,30,pd,3,0.0,1.0,14.55,1,1,0.0
ahu64kinfjnyyollp82777wn,4,3,3,58,md,1,0.0,1.0,14.7,1,1,0.0
ahu64kinfjnyyollp82777wn,5,3,3,17,pd,1,1.0,0.0,21.494,1,1,0.0
ahu64kinfjnyyollp82777wn,6,3,3,72,pd,1,0.0,1.0,16.418,1,1,0.0
ahu64kinfjnyyollp82777wn,7,3,3,29,pd,2,0.0,1.0,22.119,1,1,0.0
ahu64kinfjnyyollp82777wn,8,3,3,76,pd,2,0.0,1.0,25.047,1,1,0.0
ahu64kinfjnyyollp82777wn,9,3,3,35,pd,2,0.0,1.0,28.99,1,1,0.0
ahu64kinfjnyyollp82777wn,10,3,3,64,pd,2,0.0,1.0,29.713,1,1,0.0
ahu64kinfjnyyollp82777wn,11,3,3,66,pd,3,0.0,1.0,27.537,1,1,0.0
ahu64kinfjnyyollp82777wn,12,3,3,24,pd,2,0.0,1.0,22.108,1,1,0.0
aj7e9j320ju26mkz3sc7btj1,1,3,1,55,pd,2,0.0,1.0,16.214,1,1,0.0
aj7e9j320ju26mkz3sc7btj1,2,3,1,66,pd,1,0.0,1.0,12.401,1,1,0.0
aj7e9j320ju26mkz3sc7btj1,3,3,1,30,pd,1,0.0,1.0,12.613,1,1,0.0
aj7e9j320ju26mkz3sc7btj1,4,3,1,58,md,2,1.0,0.0,14.238,1,1,0.0
aj7e9j320ju26mkz3sc7btj1,5,3,1,45,pd,3,0.0,1.0,20.911,1,1,0.0
aj7e9j320ju26mkz3sc7btj1,6,3,1,29,pd,3,0.0,1.0,18.151,1,1,0.0
aj7e9j320ju26mkz3sc7btj1,7,3,1,17,pd,2,1.0,0.0,25.248,1,1,0.0
aj7e9j320ju26mkz3sc7btj1,8,3,1,24,pd,3,0.0,1.0,19.963,1,1,0.0
aj7e9j320ju26mkz3sc7btj1,9,3,1,72,pd,2,0.0,1.0,15.925,1,1,0.0
aj7e9j320ju26mkz3sc7btj1,10,3,1,64,pd,3,0.0,1.0,20.683,1,1,0.0
aj7e9j320ju26mkz3sc7btj1,11,3,1,76,pd,3,0.0,1.0,15.242,1,1,0.0
aj7e9j320ju26mkz3sc7btj1,12,3,1,35,pd,3,0.0,1.0,28.061,1,1,0.0
aw5ty2rivqrj6l4fcekm8bzp,1,3,1,55,pd,2,0.0,1.0,11.299,1,1,0.0
aw5ty2rivqrj6l4fcekm8bzp,2,3,1,66,pd,1,0.0,1.0,5.13,1,1,0.0
aw5ty2rivqrj6l4fcekm8bzp,3,3,1,30,pd,1,0.0,1.0,6.336,1,1,0.0
aw5ty2rivqrj6l4fcekm8bzp,4,3,1,58,md,2,1.0,0.0,10.438,1,1,0.0
aw5ty2rivqrj6l4fcekm8bzp,5,3,1,45,pd,3,0.0,1.0,8.018,1,1,0.0
aw5ty2rivqrj6l4fcekm8bzp,6,3,1,29,pd,3,0.0,1.0,7.004,1,1,0.0
aw5ty2rivqrj6l4fcekm8bzp,7,3,1,17,pd,2,0.0,1.0,11.653,1,1,0.0
aw5ty2rivqrj6l4fcekm8bzp,8,3,1,24,pd,3,0.0,1.0,8.906,1,1,0.0
aw5ty2rivqrj6l4fcekm8bzp,9,3,1,72,pd,2,2.0,0.0,14.884,1,1,0.0
aw5ty2rivqrj6l4fcekm8bzp,10,3,1,64,pd,3,2.0,0.0,13.999,1,1,0.0
aw5ty2rivqrj6l4fcekm8bzp,11,3,1,76,pd,3,0.0,1.0,12.113,1,1,0.0
aw5ty2rivqrj6l4fcekm8bzp,12,3,1,35,pd,3,0.0,1.0,13.525,1,1,0.0
b5frji5hv5d7xietvx944qzz,1,3,1,55,pd,2,2.0,0.0,19.423,1,1,0.0
b5frji5hv5d7xietvx944qzz,2,3,1,66,pd,1,0.0,1.0,11.525,1,1,0.0
b5frji5hv5d7xietvx944qzz,3,3,1,30,pd,1,3.0,0.0,8.31,1,1,0.0
b5frji5hv5d7xietvx944qzz,4,3,1,58,md,2,3.0,0.0,14.98,1,1,0.0
b5frji5hv5d7xietvx944qzz,5,3,1,45,pd,3,0.0,1.0,10.716,1,1,0.0
b5frji5hv5d7xietvx944qzz,6,3,1,29,pd,3,3.0,0.0,14.957,1,1,0.0
b5frji5hv5d7xietvx944qzz,7,3,1,17,pd,2,0.0,1.0,16.645,1,1,0.0
b5frji5hv5d7xietvx944qzz,8,3,1,24,pd,3,1.0,0.0,13.845,1,1,0.0
b5frji5hv5d7xietvx944qzz,9,3,1,72,pd,2,3.0,0.0,18.996,1,1,0.0
b5frji5hv5d7xietvx944qzz,10,3,1,64,pd,3,1.0,0.0,20.131,1,1,0.0
b5frji5hv5d7xietvx944qzz,11,3,1,76,pd,3,3.0,0.0,16.665,1,1,0.0
b5frji5hv5d7xietvx944qzz,12,3,1,35,pd,3,0.0,1.0,23.812,1,1,0.0
bet3v8jup1a9hzxfgo41uivh,1,3,1,55,pd,2,0.0,1.0,7.873,1,1,0.0
bet3v8jup1a9hzxfgo41uivh,2,3,1,66,pd,1,0.0,1.0,6.661,1,1,0.0
bet3v8jup1a9hzxfgo41uivh,3,3,1,30,pd,1,3.0,0.0,7.658,1,1,0.0
bet3v8jup1a9hzxfgo41uivh,4,3,1,58,md,2,3.0,0.0,9.814,1,1,0.0
bet3v8jup1a9hzxfgo41uivh,5,3,1,45,pd,3,0.0,1.0,24.909,1,1,0.0
bet3v8jup1a9hzxfgo41uivh,6,3,1,29,pd,3,0.0,1.0,18.074,1,1,0.0
bet3v8jup1a9hzxfgo41uivh,7,3,1,17,pd,2,0.0,1.0,17.764,1,1,0.0
bet3v8jup1a9hzxfgo41uivh,8,3,1,24,pd,3,3.0,0.0,16.579,1,1,0.0
bet3v8jup1a9hzxfgo41uivh,9,3,1,72,pd,2,0.0,1.0,11.935,1,1,0.0
bet3v8jup1a9hzxfgo41uivh,10,3,1,64,pd,3,0.0,1.0,17.172,1,1,0.0
bet3v8jup1a9hzxfgo41uivh,11,3,1,76,pd,3,0.0,1.0,5.962,1,1,0.0
bet3v8jup1a9hzxfgo41uivh,12,3,1,35,pd,3,0.0,1.0,26.783,1,1,0.0
bl14rdmw7m65wh8n7bxmwjbg,1,3,3,45,pd,2,1.0,0.0,9.398,0,1,0.0
bl14rdmw7m65wh8n7bxmwjbg,2,3,3,55,pd,1,3.0,0.0,5.888,0,1,0.0
bl14rdmw7m65wh8n7bxmwjbg,3,3,3,30,pd,3,1.0,0.0,6.223,0,1,0.0
bl14rdmw7m65wh8n7bxmwjbg,4,3,3,58,md,1,0.0,1.0,1.257,0,1,0.0
bl14rdmw7m65wh8n7bxmwjbg,5,3,3,17,pd,1,0.0,1.0,12.244,1,1,0.0
bl14rdmw7m65wh8n7bxmwjbg,6,3,3,72,pd,1,0.0,1.0,19.058,1,1,0.0
bl14rdmw7m65wh8n7bxmwjbg,7,3,3,29,pd,2,0.0,1.0,7.984,1,1,0.0
bl14rdmw7m65wh8n7bxmwjbg,8,3,3,76,pd,2,0.0,1.0,12.381,1,1,0.0
bl14rdmw7m65wh8n7bxmwjbg,9,3,3,35,pd,2,0.0,1.0,16.963,1,1,0.0
bl14rdmw7m65wh8n7bxmwjbg,10,3,3,64,pd,2,0.0,1.0,17.083,0,1,0.0
bl14rdmw7m65wh8n7bxmwjbg,11,3,3,66,pd,3,2.0,0.0,14.644,1,1,0.0
bl14rdmw7m65wh8n7bxmwjbg,12,3,3,24,pd,2,0.0,1.0,12.894,1,1,0.0
bm25wtb8h4y0rcrunpse40us,1,3,3,45,pd,2,0.0,1.0,14.019,1,1,0.0
bm25wtb8h4y0rcrunpse40us,2,3,3,55,pd,1,0.0,1.0,25.009,1,1,0.0
bm25wtb8h4y0rcrunpse40us,3,3,3,30,pd,3,0.0,1.0,10.401,1,1,0.0
bm25wtb8h4y0rcrunpse40us,4,3,3,58,md,1,0.0,1.0,25.974,1,1,0.0
bm25wtb8h4y0rcrunpse40us,5,3,3,17,pd,1,0.0,1.0,14.355,1,1,0.0
bm25wtb8h4y0rcrunpse40us,6,3,3,72,pd,1,0.0,1.0,18.714,1,1,0.0
bm25wtb8h4y0rcrunpse40us,7,3,3,29,pd,2,0.0,1.0,25.356,1,1,0.0
bm25wtb8h4y0rcrunpse40us,8,3,3,76,pd,2,0.0,1.0,25.015,1,1,0.0
bm25wtb8h4y0rcrunpse40us,9,3,3,35,pd,2,0.0,1.0,9.442,1,1,0.0
bm25wtb8h4y0rcrunpse40us,10,3,3,64,pd,2,0.0,1.0,27.489,1,1,0.0
bm25wtb8h4y0rcrunpse40us,11,3,3,66,pd,3,3.0,0.0,15.976,1,1,0.0
bm25wtb8h4y0rcrunpse40us,12,3,3,24,pd,2,0.0,1.0,24.316,1,1,0.0
bsfky5izk36x46djd023jeph,1,3,3,45,pd,2,0.0,1.0,25.259,1,1,0.0
bsfky5izk36x46djd023jeph,2,3,3,55,pd,1,0.0,1.0,14.957,1,1,0.0
bsfky5izk36x46djd023jeph,3,3,3,30,pd,3,0.0,1.0,13.809,1,1,0.0
bsfky5izk36x46djd023jeph,4,3,3,58,md,1,1.0,0.0,25.67,1,1,0.0
bsfky5izk36x46djd023jeph,5,3,3,17,pd,1,0.0,1.0,26.271,1,1,0.0
bsfky5izk36x46djd023jeph,6,3,3,72,pd,1,0.0,1.0,9.987,1,1,0.0
bsfky5izk36x46djd023jeph,7,3,3,29,pd,2,0.0,1.0,27.448,1,1,0.0
bsfky5izk36x46djd023jeph,8,3,3,76,pd,2,0.0,1.0,28.889,1,1,0.0
bsfky5izk36x46djd023jeph,9,3,3,35,pd,2,0.0,1.0,20.869,1,1,0.0
bsfky5izk36x46djd023jeph,10,3,3,64,pd,2,0.0,1.0,26.591,1,1,0.0
bsfky5izk36x46djd023jeph,11,3,3,66,pd,3,1.0,0.0,24.017,1,1,0.0
bsfky5izk36x46djd023jeph,12,3,3,24,pd,2,2.0,0.0,16.792,1,1,0.0
bu4s3z49jmgzr5do2tt8oyrn,1,3,2,45,pd,1,0.0,1.0,9.42,1,1,0.0
bu4s3z49jmgzr5do2tt8oyrn,2,3,2,30,pd,2,3.0,0.0,6.138,1,1,0.0
bu4s3z49jmgzr5do2tt8oyrn,3,3,2,55,pd,3,0.0,1.0,12.17,1,1,0.0
bu4s3z49jmgzr5do2tt8oyrn,4,3,2,29,pd,1,0.0,1.0,15.849,1,1,0.0
bu4s3z49jmgzr5do2tt8oyrn,5,3,2,64,pd,1,0.0,1.0,13.918,1,1,0.0
bu4s3z49jmgzr5do2tt8oyrn,6,3,2,35,pd,1,1.0,0.0,11.626,1,1,0.0
bu4s3z49jmgzr5do2tt8oyrn,7,3,2,24,pd,1,0.0,1.0,14.854,1,1,0.0
bu4s3z49jmgzr5do2tt8oyrn,8,3,2,17,pd,3,2.0,0.0,13.654,1,1,0.0
bu4s3z49jmgzr5do2tt8oyrn,9,3,2,58,md,3,2.0,0.0,10.331,1,1,0.0
bu4s3z49jmgzr5do2tt8oyrn,10,3,2,76,pd,1,1.0,0.0,5.858,1,1,0.0
bu4s3z49jmgzr5do2tt8oyrn,11,3,2,72,pd,3,1.0,0.0,1.136,1,1,0.0
bu4s3z49jmgzr5do2tt8oyrn,12,3,2,66,pd,2,2.0,0.0,1.885,1,1,0.0
c03pm99dn7ipw62mgzlg04ye,1,3,1,55,pd,2,0.0,1.0,17.72,1,1,0.0
c03pm99dn7ipw62mgzlg04ye,2,3,1,66,pd,1,0.0,1.0,12.66,1,1,0.0
c03pm99dn7ipw62mgzlg04ye,3,3,1,30,pd,1,0.0,1.0,10.221,1,1,0.0
c03pm99dn7ipw62mgzlg04ye,4,3,1,58,md,2,0.0,1.0,16.335,1,1,0.0
c03pm99dn7ipw62mgzlg04ye,5,3,1,45,pd,3,0.0,1.0,13.91,1,1,0.0
c03pm99dn7ipw62mgzlg04ye,6,3,1,29,pd,3,0.0,1.0,11.005,1,1,0.0
c03pm99dn7ipw62mgzlg04ye,7,3,1,17,pd,2,0.0,1.0,19.989,1,1,0.0
c03pm99dn7ipw62mgzlg04ye,8,3,1,24,pd,3,0.0,1.0,18.181,1,1,0.0
c03pm99dn7ipw62mgzlg04ye,9,3,1,72,pd,2,0.0,1.0,11.088,1,1,0.0
c03pm99dn7ipw62mgzlg04ye,10,3,1,64,pd,3,2.0,0.0,27.978,1,1,0.0
c03pm99dn7ipw62mgzlg04ye,11,3,1,76,pd,3,3.0,0.0,9.361,1,1,0.0
c03pm99dn7ipw62mgzlg04ye,12,3,1,35,pd,3,0.0,1.0,16.678,1,1,0.0
c0tws9gfdtfu6u9i5qrcddsz,1,3,2,45,pd,1,0.0,1.0,13.09,1,1,0.0
c0tws9gfdtfu6u9i5qrcddsz,2,3,2,30,pd,2,0.0,1.0,13.415,1,1,0.0
c0tws9gfdtfu6u9i5qrcddsz,3,3,2,55,pd,3,0.0,1.0,15.338,1,1,0.0
c0tws9gfdtfu6u9i5qrcddsz,4,3,2,29,pd,1,0.0,1.0,15.485,1,1,0.0
c0tws9gfdtfu6u9i5qrcddsz,5,3,2,64,pd,1,0.0,1.0,17.485,1,1,0.0
c0tws9gfdtfu6u9i5qrcddsz,6,3,2,35,pd,1,0.0,1.0,19.415,1,1,0.0
c0tws9gfdtfu6u9i5qrcddsz,7,3,2,24,pd,1,0.0,1.0,17.336,1,1,0.0
c0tws9gfdtfu6u9i5qrcddsz,8,3,2,17,pd,3,0.0,1.0,28.415,1,1,0.0
c0tws9gfdtfu6u9i5qrcddsz,9,3,2,58,md,3,1.0,0.0,12.135,1,1,0.0
c0tws9gfdtfu6u9i5qrcddsz,10,3,2,76,pd,1,0.0,1.0,29.687,1,1,0.0
c0tws9gfdtfu6u9i5qrcddsz,11,3,2,72,pd,3,0.0,1.0,28.423,1,1,0.0
c0tws9gfdtfu6u9i5qrcddsz,12,3,2,66,pd,2,0.0,1.0,20.179,1,1,0.0
ck4zb9uvfwb2zd9tvm2nnppc,1,3,1,55,pd,2,0.0,1.0,5.713,1,1,0.0
ck4zb9uvfwb2zd9tvm2nnppc,2,3,1,66,pd,1,1.0,0.0,7.041,1,1,0.0
ck4zb9uvfwb2zd9tvm2nnppc,3,3,1,30,pd,1,0.0,1.0,8.362,1,1,0.0
ck4zb9uvfwb2zd9tvm2nnppc,4,3,1,58,md,2,0.0,1.0,9.353,1,1,0.0
ck4zb9uvfwb2zd9tvm2nnppc,5,3,1,45,pd,3,2.0,0.0,9.787,1,1,0.0
ck4zb9uvfwb2zd9tvm2nnppc,6,3,1,29,pd,3,1.0,0.0,7.016,1,1,0.0
ck4zb9uvfwb2zd9tvm2nnppc,7,3,1,17,pd,2,0.0,1.0,8.527,1,1,0.0
ck4zb9uvfwb2zd9tvm2nnppc,8,3,1,24,pd,3,1.0,0.0,4.257,1,1,0.0
ck4zb9uvfwb2zd9tvm2nnppc,9,3,1,72,pd,2,3.0,0.0,7.154,1,1,0.0
ck4zb9uvfwb2zd9tvm2nnppc,10,3,1,64,pd,3,0.0,1.0,5.104,1,1,0.0
ck4zb9uvfwb2zd9tvm2nnppc,11,3,1,76,pd,3,0.0,1.0,5.007,1,1,0.0
ck4zb9uvfwb2zd9tvm2nnppc,12,3,1,35,pd,3,3.0,0.0,4.842,1,1,0.0
cpi0rc606txwbnzng8csbehh,1,3,3,45,pd,2,0.0,1.0,10.652,1,1,0.0
cpi0rc606txwbnzng8csbehh,2,3,3,55,pd,1,0.0,1.0,6.588,1,1,0.0
cpi0rc606txwbnzng8csbehh,3,3,3,30,pd,3,0.0,1.0,7.351,1,1,0.0
cpi0rc606txwbnzng8csbehh,4,3,3,58,md,1,0.0,1.0,12.182,1,1,0.0
cpi0rc606txwbnzng8csbehh,5,3,3,17,pd,1,1.0,0.0,20.863,1,1,0.0
cpi0rc606txwbnzng8csbehh,6,3,3,72,pd,1,0.0,1.0,20.066,1,1,0.0
cpi0rc606txwbnzng8csbehh,7,3,3,29,pd,2,0.0,1.0,19.739,1,1,0.0
cpi0rc606txwbnzng8csbehh,8,3,3,76,pd,2,0.0,1.0,21.351,1,1,0.0
cpi0rc606txwbnzng8csbehh,9,3,3,35,pd,2,0.0,1.0,22.552,1,1,0.0
cpi0rc606txwbnzng8csbehh,10,3,3,64,pd,2,0.0,1.0,24.699,1,1,0.0
cpi0rc606txwbnzng8csbehh,11,3,3,66,pd,3,0.0,1.0,18.769,1,1,0.0
cpi0rc606txwbnzng8csbehh,12,3,3,24,pd,2,2.0,0.0,16.683,1,1,0.0
cqvci3ad1gu7wfbhvolbec6j,1,3,3,45,pd,2,0.0,1.0,5.709,1,1,0.0
cqvci3ad1gu7wfbhvolbec6j,2,3,3,55,pd,1,0.0,1.0,7.365,1,1,0.0
cqvci3ad1gu7wfbhvolbec6j,3,3,3,30,pd,3,0.0,1.0,11.945,1,1,0.0
cqvci3ad1gu7wfbhvolbec6j,4,3,3,58,md,1,0.0,1.0,9.964,1,1,0.0
cqvci3ad1gu7wfbhvolbec6j,5,3,3,17,pd,1,1.0,0.0,7.651,1,1,0.0
cqvci3ad1gu7wfbhvolbec6j,6,3,3,72,pd,1,2.0,0.0,3.287,1,1,0.0
cqvci3ad1gu7wfbhvolbec6j,7,3,3,29,pd,2,0.0,1.0,8.449,1,1,0.0
cqvci3ad1gu7wfbhvolbec6j,8,3,3,76,pd,2,0.0,1.0,7.639,1,1,0.0
cqvci3ad1gu7wfbhvolbec6j,9,3,3,35,pd,2,1.0,0.0,13.711,1,1,0.0
cqvci3ad1gu7wfbhvolbec6j,10,3,3,64,pd,2,3.0,0.0,9.439,1,1,0.0
cqvci3ad1gu7wfbhvolbec6j,11,3,3,66,pd,3,0.0,1.0,6.363,1,1,0.0
cqvci3ad1gu7wfbhvolbec6j,12,3,3,24,pd,2,2.0,0.0,9.007,1,1,0.0
dlj50w7jk456t27r2dk796nj,1,3,2,45,pd,1,0.0,1.0,9.816,1,1,0.0
dlj50w7jk456t27r2dk796nj,2,3,2,30,pd,2,0.0,1.0,13.195,1,1,0.0
dlj50w7jk456t27r2dk796nj,3,3,2,55,pd,3,0.0,1.0,7.076,1,1,0.0
dlj50w7jk456t27r2dk796nj,4,3,2,29,pd,1,0.0,1.0,4.746,1,1,0.0
dlj50w7jk456t27r2dk796nj,5,3,2,64,pd,1,3.0,0.0,4.422,1,1,0.0
dlj50w7jk456t27r2dk796nj,6,3,2,35,pd,1,0.0,1.0,5.189,1,1,0.0
dlj50w7jk456t27r2dk796nj,7,3,2,24,pd,1,0.0,1.0,2.054,1,1,0.0
dlj50w7jk456t27r2dk796nj,8,3,2,17,pd,3,1.0,0.0,5.464,1,1,0.0
dlj50w7jk456t27r2dk796nj,9,3,2,58,md,3,0.0,1.0,7.531,1,1,0.0
dlj50w7jk456t27r2dk796nj,10,3,2,76,pd,1,0.0,1.0,9.675,1,1,0.0
dlj50w7jk456t27r2dk796nj,11,3,2,72,pd,3,3.0,0.0,7.775,1,1,0.0
dlj50w7jk456t27r2dk796nj,12,3,2,66,pd,2,1.0,0.0,10.908,1,1,0.0
dqc8kf548l4tra17tjdor5im,1,3,1,55,pd,2,0.0,1.0,9.682,0,1,0.0
dqc8kf548l4tra17tjdor5im,2,3,1,66,pd,1,0.0,1.0,7.206,0,1,0.0
dqc8kf548l4tra17tjdor5im,3,3,1,30,pd,1,0.0,1.0,17.735,0,1,0.0
dqc8kf548l4tra17tjdor5im,4,3,1,58,md,2,1.0,0.0,13.416,0,1,0.0
dqc8kf548l4tra17tjdor5im,5,3,1,45,pd,3,3.0,0.0,22.263,0,1,0.0
dqc8kf548l4tra17tjdor5im,6,3,1,29,pd,3,0.0,1.0,17.615,0,1,0.0
dqc8kf548l4tra17tjdor5im,7,3,1,17,pd,2,0.0,1.0,28.335,0,1,0.0
dqc8kf548l4tra17tjdor5im,8,3,1,24,pd,3,3.0,0.0,11.503,0,1,0.0
dqc8kf548l4tra17tjdor5im,9,3,1,72,pd,2,0.0,1.0,19.199,0,1,0.0
dqc8kf548l4tra17tjdor5im,10,3,1,64,pd,3,1.0,0.0,19.263,0,1,0.0
dqc8kf548l4tra17tjdor5im,11,3,1,76,pd,3,1.0,0.0,26.624,0,1,0.0
dqc8kf548l4tra17tjdor5im,12,3,1,35,pd,3,2.0,0.0,29.535,0,1,0.0
dt5mvy4s5ooheslxv4zb4b09,1,3,2,45,pd,1,0.0,1.0,12.921,1,1,0.0
dt5mvy4s5ooheslxv4zb4b09,2,3,2,30,pd,2,0.0,1.0,14.008,1,1,0.0
dt5mvy4s5ooheslxv4zb4b09,3,3,2,55,pd,3,0.0,1.0,8.685,1,1,0.0
dt5mvy4s5ooheslxv4zb4b09,4,3,2,29,pd,1,0.0,1.0,10.45,1,1,0.0
dt5mvy4s5ooheslxv4zb4b09,5,3,2,64,pd,1,0.0,1.0,23.412,1,1,0.0
dt5mvy4s5ooheslxv4zb4b09,6,3,2,35,pd,1,0.0,1.0,7.047,1,1,0.0
dt5mvy4s5ooheslxv4zb4b09,7,3,2,24,pd,1,0.0,1.0,12.432,1,1,0.0
dt5mvy4s5ooheslxv4zb4b09,8,3,2,17,pd,3,0.0,1.0,28.177,1,1,0.0
dt5mvy4s5ooheslxv4zb4b09,9,3,2,58,md,3,0.0,1.0,12.385,1,1,0.0
dt5mvy4s5ooheslxv4zb4b09,10,3,2,76,pd,1,2.0,0.0,9.97,1,1,0.0
dt5mvy4s5ooheslxv4zb4b09,11,3,2,72,pd,3,0.0,1.0,17.45,1,1,0.0
dt5mvy4s5ooheslxv4zb4b09,12,3,2,66,pd,2,0.0,1.0,11.101,1,1,0.0
e4m1oih7yz88rmgt5goj92z1,1,3,2,45,pd,1,0.0,1.0,6.625,1,1,0.0
e4m1oih7yz88rmgt5goj92z1,2,3,2,30,pd,2,0.0,1.0,11.909,1,1,0.0
e4m1oih7yz88rmgt5goj92z1,3,3,2,55,pd,3,0.0,1.0,10.222,1,1,0.0
e4m1oih7yz88rmgt5goj92z1,4,3,2,29,pd,1,0.0,1.0,10.109,1,1,0.0
e4m1oih7yz88rmgt5goj92z1,5,3,2,64,pd,1,1.0,0.0,18.17,1,1,0.0
e4m1oih7yz88rmgt5goj92z1,6,3,2,35,pd,1,0.0,1.0,9.768,1,1,0.0
e4m1oih7yz88rmgt5goj92z1,7,3,2,24,pd,1,0.0,1.0,8.935,1,1,0.0
e4m1oih7yz88rmgt5goj92z1,8,3,2,17,pd,3,0.0,1.0,16.031,1,1,0.0
e4m1oih7yz88rmgt5goj92z1,9,3,2,58,md,3,0.0,1.0,11.466,1,1,0.0
e4m1oih7yz88rmgt5goj92z1,10,3,2,76,pd,1,0.0,1.0,23.299,1,1,0.0
e4m1oih7yz88rmgt5goj92z1,11,3,2,72,pd,3,0.0,1.0,10.378,1,1,0.0
e4m1oih7yz88rmgt5goj92z1,12,3,2,66,pd,2,0.0,1.0,15.679,1,1,0.0
egnf0ajjtiunovlwgk4mb3ec,1,3,3,45,pd,2,0.0,1.0,11.925,1,1,0.0
egnf0ajjtiunovlwgk4mb3ec,2,3,3,55,pd,1,0.0,1.0,6.075,1,1,0.0
egnf0ajjtiunovlwgk4mb3ec,3,3,3,30,pd,3,0.0,1.0,5.944,1,1,0.0
egnf0ajjtiunovlwgk4mb3ec,4,3,3,58,md,1,0.0,1.0,5.314,1,1,0.0
egnf0ajjtiunovlwgk4mb3ec,5,3,3,17,pd,1,0.0,1.0,13.993,1,1,0.0
egnf0ajjtiunovlwgk4mb3ec,6,3,3,72,pd,1,0.0,1.0,17.714,1,1,0.0
egnf0ajjtiunovlwgk4mb3ec,7,3,3,29,pd,2,0.0,1.0,9.842,1,1,0.0
egnf0ajjtiunovlwgk4mb3ec,8,3,3,76,pd,2,0.0,1.0,14.218,1,1,0.0
egnf0ajjtiunovlwgk4mb3ec,9,3,3,35,pd,2,0.0,1.0,12.498,1,1,0.0
egnf0ajjtiunovlwgk4mb3ec,10,3,3,64,pd,2,2.0,0.0,19.593,1,1,0.0
egnf0ajjtiunovlwgk4mb3ec,11,3,3,66,pd,3,0.0,1.0,16.778,1,1,0.0
egnf0ajjtiunovlwgk4mb3ec,12,3,3,24,pd,2,0.0,1.0,18.258,1,1,0.0
eol7onsaj3kk3rj2qephzji5,1,3,3,45,pd,2,0.0,1.0,11.65,1,1,0.0
eol7onsaj3kk3rj2qephzji5,2,3,3,55,pd,1,0.0,1.0,7.047,1,1,0.0
eol7onsaj3kk3rj2qephzji5,3,3,3,30,pd,3,0.0,1.0,5.568,1,1,0.0
eol7onsaj3kk3rj2qephzji5,4,3,3,58,md,1,0.0,1.0,8.744,1,1,0.0
eol7onsaj3kk3rj2qephzji5,5,3,3,17,pd,1,0.0,1.0,13.899,1,1,0.0
eol7onsaj3kk3rj2qephzji5,6,3,3,72,pd,1,0.0,1.0,9.591,1,1,0.0
eol7onsaj3kk3rj2qephzji5,7,3,3,29,pd,2,0.0,1.0,7.539,1,1,0.0
eol7onsaj3kk3rj2qephzji5,8,3,3,76,pd,2,0.0,1.0,17.534,1,1,0.0
eol7onsaj3kk3rj2qephzji5,9,3,3,35,pd,2,0.0,1.0,11.34,1,1,0.0
eol7onsaj3kk3rj2qephzji5,10,3,3,64,pd,2,0.0,1.0,21.277,1,1,0.0
eol7onsaj3kk3rj2qephzji5,11,3,3,66,pd,3,0.0,1.0,15.42,1,1,0.0
eol7onsaj3kk3rj2qephzji5,12,3,3,24,pd,2,0.0,1.0,11.748,1,1,0.0
fc4n9bak7f6v4vs1hnfzis64,1,3,3,45,pd,2,2.0,0.0,11.597,1,1,0.0
fc4n9bak7f6v4vs1hnfzis64,2,3,3,55,pd,1,0.0,1.0,8.269,1,1,0.0
fc4n9bak7f6v4vs1hnfzis64,3,3,3,30,pd,3,0.0,1.0,7.39,1,1,0.0
fc4n9bak7f6v4vs1hnfzis64,4,3,3,58,md,1,1.0,0.0,7.187,1,1,0.0
fc4n9bak7f6v4vs1hnfzis64,5,3,3,17,pd,1,0.0,1.0,10.479,1,1,0.0
fc4n9bak7f6v4vs1hnfzis64,6,3,3,72,pd,1,3.0,0.0,12.837,1,1,0.0
fc4n9bak7f6v4vs1hnfzis64,7,3,3,29,pd,2,3.0,0.0,14.024,1,1,0.0
fc4n9bak7f6v4vs1hnfzis64,8,3,3,76,pd,2,0.0,1.0,12.953,1,1,0.0
fc4n9bak7f6v4vs1hnfzis64,9,3,3,35,pd,2,3.0,0.0,14.569,1,1,0.0
fc4n9bak7f6v4vs1hnfzis64,10,3,3,64,pd,2,3.0,0.0,4.725,1,1,0.0
fc4n9bak7f6v4vs1hnfzis64,11,3,3,66,pd,3,1.0,0.0,13.342,1,1,0.0
fc4n9bak7f6v4vs1hnfzis64,12,3,3,24,pd,2,2.0,0.0,13.322,1,1,0.0
fh8fuwctemnety664boysq6l,1,3,2,45,pd,1,0.0,1.0,12.986,1,1,0.0
fh8fuwctemnety664boysq6l,2,3,2,30,pd,2,0.0,1.0,16.998,1,1,0.0
fh8fuwctemnety664boysq6l,3,3,2,55,pd,3,0.0,1.0,7.566,1,1,0.0
fh8fuwctemnety664boysq6l,4,3,2,29,pd,1,3.0,0.0,10.951,1,1,0.0
fh8fuwctemnety664boysq6l,5,3,2,64,pd,1,2.0,0.0,12.958,1,1,0.0
fh8fuwctemnety664boysq6l,6,3,2,35,pd,1,0.0,1.0,12.614,1,1,0.0
fh8fuwctemnety664boysq6l,7,3,2,24,pd,1,0.0,1.0,8.117,1,1,0.0
fh8fuwctemnety664boysq6l,8,3,2,17,pd,3,1.0,0.0,16.027,1,1,0.0
fh8fuwctemnety664boysq6l,9,3,2,58,md,3,0.0,1.0,17.021,1,1,0.0
fh8fuwctemnety664boysq6l,10,3,2,76,pd,1,0.0,1.0,14.436,1,1,0.0
fh8fuwctemnety664boysq6l,11,3,2,72,pd,3,2.0,0.0,21.105,1,1,0.0
fh8fuwctemnety664boysq6l,12,3,2,66,pd,2,1.0,0.0,19.274,1,1,0.0
fp80a7dmu67cidx6sb7ongc1,1,3,2,45,pd,1,0.0,1.0,5.764,1,1,0.0
fp80a7dmu67cidx6sb7ongc1,2,3,2,30,pd,2,3.0,0.0,15.259,1,1,0.0
fp80a7dmu67cidx6sb7ongc1,3,3,2,55,pd,3,0.0,1.0,9.57,1,1,0.0
fp80a7dmu67cidx6sb7ongc1,4,3,2,29,pd,1,0.0,1.0,16.02,1,1,0.0
fp80a7dmu67cidx6sb7ongc1,5,3,2,64,pd,1,0.0,1.0,25.015,1,1,0.0
fp80a7dmu67cidx6sb7ongc1,6,3,2,35,pd,1,0.0,1.0,19.78,1,1,0.0
fp80a7dmu67cidx6sb7ongc1,7,3,2,24,pd,1,0.0,1.0,7.164,1,1,0.0
fp80a7dmu67cidx6sb7ongc1,8,3,2,17,pd,3,0.0,1.0,12.08,1,1,0.0
fp80a7dmu67cidx6sb7ongc1,9,3,2,58,md,3,0.0,1.0,8.103,1,1,0.0
fp80a7dmu67cidx6sb7ongc1,10,3,2,76,pd,1,0.0,1.0,13.413,1,1,0.0
fp80a7dmu67cidx6sb7ongc1,11,3,2,72,pd,3,0.0,1.0,18.918,1,1,0.0
fp80a7dmu67cidx6sb7ongc1,12,3,2,66,pd,2,0.0,1.0,20.532,1,1,0.0
gmyxexjsg4bsurgjr93e1oj3,1,3,3,45,pd,2,2.0,0.0,16.838,1,1,0.0
gmyxexjsg4bsurgjr93e1oj3,2,3,3,55,pd,1,0.0,1.0,14.954,1,1,0.0
gmyxexjsg4bsurgjr93e1oj3,3,3,3,30,pd,3,0.0,1.0,9.803,1,1,0.0
gmyxexjsg4bsurgjr93e1oj3,4,3,3,58,md,1,0.0,1.0,16.504,1,1,0.0
gmyxexjsg4bsurgjr93e1oj3,5,3,3,17,pd,1,2.0,0.0,18.914,1,1,0.0
gmyxexjsg4bsurgjr93e1oj3,6,3,3,72,pd,1,2.0,0.0,25.606,1,1,0.0
gmyxexjsg4bsurgjr93e1oj3,7,3,3,29,pd,2,0.0,1.0,16.801,1,1,0.0
gmyxexjsg4bsurgjr93e1oj3,8,3,3,76,pd,2,1.0,0.0,24.185,1,1,0.0
gmyxexjsg4bsurgjr93e1oj3,9,3,3,35,pd,2,0.0,1.0,14.381,1,1,0.0
gmyxexjsg4bsurgjr93e1oj3,10,3,3,64,pd,2,0.0,1.0,3.694,1,1,0.0
gmyxexjsg4bsurgjr93e1oj3,11,3,3,66,pd,3,2.0,0.0,0.765,1,1,0.0
gmyxexjsg4bsurgjr93e1oj3,12,3,3,24,pd,2,2.0,0.0,1.216,1,1,0.0
gqhhkjgkdyhmkyt0qntzi50k,1,3,2,45,pd,1,0.0,1.0,11.795,1,1,0.0
gqhhkjgkdyhmkyt0qntzi50k,2,3,2,30,pd,2,0.0,1.0,13.643,1,1,0.0
gqhhkjgkdyhmkyt0qntzi50k,3,3,2,55,pd,3,0.0,1.0,13.983,1,1,0.0
gqhhkjgkdyhmkyt0qntzi50k,4,3,2,29,pd,1,0.0,1.0,11.617,1,1,0.0
gqhhkjgkdyhmkyt0qntzi50k,5,3,2,64,pd,1,0.0,1.0,11.981,1,1,0.0
gqhhkjgkdyhmkyt0qntzi50k,6,3,2,35,pd,1,0.0,1.0,12.34,1,1,0.0
gqhhkjgkdyhmkyt0qntzi50k,7,3,2,24,pd,1,0.0,1.0,10.613,1,1,0.0
gqhhkjgkdyhmkyt0qntzi50k,8,3,2,17,pd,3,1.0,0.0,17.914,1,1,0.0
gqhhkjgkdyhmkyt0qntzi50k,9,3,2,58,md,3,0.0,1.0,9.354,1,1,0.0
gqhhkjgkdyhmkyt0qntzi50k,10,3,2,76,pd,1,1.0,0.0,22.445,1,1,0.0
gqhhkjgkdyhmkyt0qntzi50k,11,3,2,72,pd,3,0.0,1.0,5.257,1,1,0.0
gqhhkjgkdyhmkyt0qntzi50k,12,3,2,66,pd,2,0.0,1.0,27.197,1,1,0.0
grkwreduujj7cinoxpqeh4sd,1,3,1,55,pd,2,0.0,1.0,10.638,1,1,0.0
grkwreduujj7cinoxpqeh4sd,2,3,1,66,pd,1,0.0,1.0,5.443,1,1,0.0
grkwreduujj7cinoxpqeh4sd,3,3,1,30,pd,1,0.0,1.0,11.155,1,1,0.0
grkwreduujj7cinoxpqeh4sd,4,3,1,58,md,2,1.0,0.0,10.868,1,1,0.0
grkwreduujj7cinoxpqeh4sd,5,3,1,45,pd,3,0.0,1.0,18.798,1,1,3.0
grkwreduujj7cinoxpqeh4sd,6,3,1,29,pd,3,0.0,1.0,11.154,1,1,0.0
grkwreduujj7cinoxpqeh4sd,7,3,1,17,pd,2,0.0,1.0,20.67,1,1,1.0
grkwreduujj7cinoxpqeh4sd,8,3,1,24,pd,3,0.0,1.0,16.71,1,1,1.0
grkwreduujj7cinoxpqeh4sd,9,3,1,72,pd,2,0.0,1.0,25.059,1,1,1.0
grkwreduujj7cinoxpqeh4sd,10,3,1,64,pd,3,0.0,1.0,22.822,1,1,1.0
grkwreduujj7cinoxpqeh4sd,11,3,1,76,pd,3,,,,1,1,7.0
grkwreduujj7cinoxpqeh4sd,12,3,1,35,pd,3,0.0,1.0,20.189,1,1,2.0
grn07af0b93w9u7y17p2ee7k,1,3,2,45,pd,1,0.0,1.0,12.495,1,1,0.0
grn07af0b93w9u7y17p2ee7k,2,3,2,30,pd,2,0.0,1.0,10.074,1,1,0.0
grn07af0b93w9u7y17p2ee7k,3,3,2,55,pd,3,0.0,1.0,7.772,1,1,0.0
grn07af0b93w9u7y17p2ee7k,4,3,2,29,pd,1,0.0,1.0,7.873,1,1,0.0
grn07af0b93w9u7y17p2ee7k,5,3,2,64,pd,1,0.0,1.0,13.118,1,1,0.0
grn07af0b93w9u7y17p2ee7k,6,3,2,35,pd,1,0.0,1.0,9.566,1,1,0.0
grn07af0b93w9u7y17p2ee7k,7,3,2,24,pd,1,0.0,1.0,17.86,1,1,0.0
grn07af0b93w9u7y17p2ee7k,8,3,2,17,pd,3,0.0,1.0,14.518,1,1,0.0
grn07af0b93w9u7y17p2ee7k,9,3,2,58,md,3,1.0,0.0,9.448,1,1,0.0
grn07af0b93w9u7y17p2ee7k,10,3,2,76,pd,1,0.0,1.0,17.725,1,1,0.0
grn07af0b93w9u7y17p2ee7k,11,3,2,72,pd,3,0.0,1.0,14.753,1,1,0.0
grn07af0b93w9u7y17p2ee7k,12,3,2,66,pd,2,0.0,1.0,9.203,1,1,0.0
h99fpjuxskud4vzslm7gmd5i,1,3,3,45,pd,2,0.0,1.0,13.473,1,1,0.0
h99fpjuxskud4vzslm7gmd5i,2,3,3,55,pd,1,0.0,1.0,10.763,1,1,0.0
h99fpjuxskud4vzslm7gmd5i,3,3,3,30,pd,3,0.0,1.0,13.367,1,1,0.0
h99fpjuxskud4vzslm7gmd5i,4,3,3,58,md,1,0.0,1.0,6.806,1,1,0.0
h99fpjuxskud4vzslm7gmd5i,5,3,3,17,pd,1,0.0,1.0,16.49,1,1,0.0
h99fpjuxskud4vzslm7gmd5i,6,3,3,72,pd,1,0.0,1.0,6.462,1,1,0.0
h99fpjuxskud4vzslm7gmd5i,7,3,3,29,pd,2,0.0,1.0,7.718,1,1,0.0
h99fpjuxskud4vzslm7gmd5i,8,3,3,76,pd,2,0.0,1.0,5.826,1,1,0.0
h99fpjuxskud4vzslm7gmd5i,9,3,3,35,pd,2,0.0,1.0,17.523,1,1,0.0
h99fpjuxskud4vzslm7gmd5i,10,3,3,64,pd,2,1.0,0.0,12.606,1,1,0.0
h99fpjuxskud4vzslm7gmd5i,11,3,3,66,pd,3,0.0,1.0,13.056,1,1,0.0
h99fpjuxskud4vzslm7gmd5i,12,3,3,24,pd,2,2.0,0.0,7.371,1,1,0.0
hvur9ekefossv62xhobefe8u,1,3,1,55,pd,2,0.0,1.0,6.024,1,1,0.0
hvur9ekefossv62xhobefe8u,2,3,1,66,pd,1,0.0,1.0,4.955,1,1,0.0
hvur9ekefossv62xhobefe8u,3,3,1,30,pd,1,0.0,1.0,8.063,1,1,0.0
hvur9ekefossv62xhobefe8u,4,3,1,58,md,2,1.0,0.0,8.899,1,1,0.0
hvur9ekefossv62xhobefe8u,5,3,1,45,pd,3,0.0,1.0,10.715,1,1,0.0
hvur9ekefossv62xhobefe8u,6,3,1,29,pd,3,0.0,1.0,8.648,1,1,0.0
hvur9ekefossv62xhobefe8u,7,3,1,17,pd,2,0.0,1.0,14.108,1,1,0.0
hvur9ekefossv62xhobefe8u,8,3,1,24,pd,3,0.0,1.0,12.039,1,1,0.0
hvur9ekefossv62xhobefe8u,9,3,1,72,pd,2,0.0,1.0,13.776,1,1,0.0
hvur9ekefossv62xhobefe8u,10,3,1,64,pd,3,0.0,1.0,20.176,1,1,0.0
hvur9ekefossv62xhobefe8u,11,3,1,76,pd,3,0.0,1.0,25.561,1,1,0.0
hvur9ekefossv62xhobefe8u,12,3,1,35,pd,3,0.0,1.0,26.048,1,1,0.0
hzbjblm6bm66f3dc3j5m9aar,1,3,3,45,pd,2,0.0,1.0,12.929,1,1,0.0
hzbjblm6bm66f3dc3j5m9aar,2,3,3,55,pd,1,0.0,1.0,5.604,1,1,0.0
hzbjblm6bm66f3dc3j5m9aar,3,3,3,30,pd,3,0.0,1.0,8.745,1,1,0.0
hzbjblm6bm66f3dc3j5m9aar,4,3,3,58,md,1,0.0,1.0,10.542,1,1,0.0
hzbjblm6bm66f3dc3j5m9aar,5,3,3,17,pd,1,1.0,0.0,21.153,1,1,2.0
hzbjblm6bm66f3dc3j5m9aar,6,3,3,72,pd,1,0.0,1.0,15.964,1,1,0.0
hzbjblm6bm66f3dc3j5m9aar,7,3,3,29,pd,2,0.0,1.0,7.954,1,1,0.0
hzbjblm6bm66f3dc3j5m9aar,8,3,3,76,pd,2,0.0,1.0,14.297,1,1,0.0
hzbjblm6bm66f3dc3j5m9aar,9,3,3,35,pd,2,0.0,1.0,19.896,1,1,0.0
hzbjblm6bm66f3dc3j5m9aar,10,3,3,64,pd,2,0.0,1.0,15.979,1,1,0.0
hzbjblm6bm66f3dc3j5m9aar,11,3,3,66,pd,3,0.0,1.0,12.937,1,1,0.0
hzbjblm6bm66f3dc3j5m9aar,12,3,3,24,pd,2,0.0,1.0,14.445,1,1,0.0
i9f8j69k50kjmc8fkb3m65yb,1,3,3,45,pd,2,0.0,1.0,15.57,1,1,0.0
i9f8j69k50kjmc8fkb3m65yb,2,3,3,55,pd,1,0.0,1.0,21.989,1,1,0.0
i9f8j69k50kjmc8fkb3m65yb,3,3,3,30,pd,3,0.0,1.0,25.321,1,1,0.0
i9f8j69k50kjmc8fkb3m65yb,4,3,3,58,md,1,0.0,1.0,15.708,1,1,0.0
i9f8j69k50kjmc8fkb3m65yb,5,3,3,17,pd,1,1.0,0.0,17.122,1,1,0.0
i9f8j69k50kjmc8fkb3m65yb,6,3,3,72,pd,1,0.0,1.0,16.603,1,1,0.0
i9f8j69k50kjmc8fkb3m65yb,7,3,3,29,pd,2,0.0,1.0,9.285,1,1,0.0
i9f8j69k50kjmc8fkb3m65yb,8,3,3,76,pd,2,0.0,1.0,15.191,1,1,0.0
i9f8j69k50kjmc8fkb3m65yb,9,3,3,35,pd,2,0.0,1.0,14.214,1,1,0.0
i9f8j69k50kjmc8fkb3m65yb,10,3,3,64,pd,2,0.0,1.0,18.68,1,1,0.0
i9f8j69k50kjmc8fkb3m65yb,11,3,3,66,pd,3,1.0,0.0,25.646,1,1,0.0
i9f8j69k50kjmc8fkb3m65yb,12,3,3,24,pd,2,0.0,1.0,14.725,1,1,0.0
iafsiffrx2pmq7ciimzesy9t,1,3,3,45,pd,2,0.0,1.0,12.409,1,1,0.0
iafsiffrx2pmq7ciimzesy9t,2,3,3,55,pd,1,1.0,0.0,6.413,1,1,0.0
iafsiffrx2pmq7ciimzesy9t,3,3,3,30,pd,3,2.0,0.0,11.125,1,1,0.0
iafsiffrx2pmq7ciimzesy9t,4,3,3,58,md,1,3.0,0.0,0.887,1,1,0.0
iafsiffrx2pmq7ciimzesy9t,5,3,3,17,pd,1,0.0,1.0,8.063,1,1,0.0
iafsiffrx2pmq7ciimzesy9t,6,3,3,72,pd,1,1.0,0.0,2.993,1,1,0.0
iafsiffrx2pmq7ciimzesy9t,7,3,3,29,pd,2,0.0,1.0,0.967,1,1,0.0
iafsiffrx2pmq7ciimzesy9t,8,3,3,76,pd,2,2.0,0.0,2.663,1,1,0.0
iafsiffrx2pmq7ciimzesy9t,9,3,3,35,pd,2,3.0,0.0,1.102,1,1,0.0
iafsiffrx2pmq7ciimzesy9t,10,3,3,64,pd,2,3.0,0.0,1.047,1,1,0.0
iafsiffrx2pmq7ciimzesy9t,11,3,3,66,pd,3,2.0,0.0,5.16,1,1,0.0
iafsiffrx2pmq7ciimzesy9t,12,3,3,24,pd,2,0.0,1.0,18.772,1,1,0.0
icb15dfgx9tcrcyoer6n0c5o,1,3,3,45,pd,2,0.0,1.0,11.053,1,1,0.0
icb15dfgx9tcrcyoer6n0c5o,2,3,3,55,pd,1,0.0,1.0,11.19,1,1,0.0
icb15dfgx9tcrcyoer6n0c5o,3,3,3,30,pd,3,0.0,1.0,9.179,1,1,0.0
icb15dfgx9tcrcyoer6n0c5o,4,3,3,58,md,1,0.0,1.0,15.528,1,1,0.0
icb15dfgx9tcrcyoer6n0c5o,5,3,3,17,pd,1,0.0,1.0,29.783,1,1,0.0
icb15dfgx9tcrcyoer6n0c5o,6,3,3,72,pd,1,0.0,1.0,11.253,1,1,0.0
icb15dfgx9tcrcyoer6n0c5o,7,3,3,29,pd,2,0.0,1.0,14.913,1,1,0.0
icb15dfgx9tcrcyoer6n0c5o,8,3,3,76,pd,2,0.0,1.0,11.518,1,1,0.0
icb15dfgx9tcrcyoer6n0c5o,9,3,3,35,pd,2,0.0,1.0,29.835,1,1,0.0
icb15dfgx9tcrcyoer6n0c5o,10,3,3,64,pd,2,0.0,1.0,29.736,1,1,0.0
icb15dfgx9tcrcyoer6n0c5o,11,3,3,66,pd,3,0.0,1.0,9.917,1,1,0.0
icb15dfgx9tcrcyoer6n0c5o,12,3,3,24,pd,2,0.0,1.0,25.448,1,1,0.0
id3di6mf3qw1dvig1dm2sk9t,1,3,3,45,pd,2,,,,1,1,0.0
id3di6mf3qw1dvig1dm2sk9t,2,3,3,55,pd,1,,,,1,1,0.0
id3di6mf3qw1dvig1dm2sk9t,3,3,3,30,pd,3,3.0,0.0,16.515,1,1,0.0
id3di6mf3qw1dvig1dm2sk9t,4,3,3,58,md,1,3.0,0.0,10.189,1,1,0.0
id3di6mf3qw1dvig1dm2sk9t,5,3,3,17,pd,1,0.0,1.0,15.638,1,1,0.0
id3di6mf3qw1dvig1dm2sk9t,6,3,3,72,pd,1,,,,1,1,0.0
id3di6mf3qw1dvig1dm2sk9t,7,3,3,29,pd,2,0.0,1.0,1.515,1,1,0.0
id3di6mf3qw1dvig1dm2sk9t,8,3,3,76,pd,2,2.0,0.0,10.228,1,1,0.0
id3di6mf3qw1dvig1dm2sk9t,9,3,3,35,pd,2,3.0,0.0,11.181,1,1,0.0
id3di6mf3qw1dvig1dm2sk9t,10,3,3,64,pd,2,1.0,0.0,21.447,1,1,0.0
id3di6mf3qw1dvig1dm2sk9t,11,3,3,66,pd,3,2.0,0.0,18.422,1,1,0.0
id3di6mf3qw1dvig1dm2sk9t,12,3,3,24,pd,2,0.0,1.0,10.173,1,1,0.0
ifzee8k3cqw1c1sp679ha0pt,1,3,3,45,pd,2,0.0,1.0,9.008,1,1,0.0
ifzee8k3cqw1c1sp679ha0pt,2,3,3,55,pd,1,0.0,1.0,14.883,1,1,0.0
ifzee8k3cqw1c1sp679ha0pt,3,3,3,30,pd,3,0.0,1.0,5.488,1,1,0.0
ifzee8k3cqw1c1sp679ha0pt,4,3,3,58,md,1,0.0,1.0,11.937,1,1,0.0
ifzee8k3cqw1c1sp679ha0pt,5,3,3,17,pd,1,0.0,1.0,19.424,1,1,0.0
ifzee8k3cqw1c1sp679ha0pt,6,3,3,72,pd,1,0.0,1.0,15.237,1,1,0.0
ifzee8k3cqw1c1sp679ha0pt,7,3,3,29,pd,2,0.0,1.0,5.616,1,1,0.0
ifzee8k3cqw1c1sp679ha0pt,8,3,3,76,pd,2,0.0,1.0,10.667,1,1,0.0
ifzee8k3cqw1c1sp679ha0pt,9,3,3,35,pd,2,0.0,1.0,8.253,1,1,0.0
ifzee8k3cqw1c1sp679ha0pt,10,3,3,64,pd,2,0.0,1.0,12.678,1,1,0.0
ifzee8k3cqw1c1sp679ha0pt,11,3,3,66,pd,3,0.0,1.0,4.107,1,1,0.0
ifzee8k3cqw1c1sp679ha0pt,12,3,3,24,pd,2,0.0,1.0,10.397,1,1,0.0
ik2p3bz9hemu7m01piqlf3o3,1,3,3,45,pd,2,0.0,1.0,14.412,1,1,0.0
ik2p3bz9hemu7m01piqlf3o3,2,3,3,55,pd,1,1.0,0.0,10.247,1,1,0.0
ik2p3bz9hemu7m01piqlf3o3,3,3,3,30,pd,3,0.0,1.0,7.608,1,1,0.0
ik2p3bz9hemu7m01piqlf3o3,4,3,3,58,md,1,2.0,0.0,13.318,1,1,0.0
ik2p3bz9hemu7m01piqlf3o3,5,3,3,17,pd,1,1.0,0.0,7.544,1,1,0.0
ik2p3bz9hemu7m01piqlf3o3,6,3,3,72,pd,1,0.0,1.0,13.157,1,1,0.0
ik2p3bz9hemu7m01piqlf3o3,7,3,3,29,pd,2,0.0,1.0,12.794,1,1,0.0
ik2p3bz9hemu7m01piqlf3o3,8,3,3,76,pd,2,2.0,0.0,11.986,1,1,0.0
ik2p3bz9hemu7m01piqlf3o3,9,3,3,35,pd,2,0.0,1.0,2.385,1,1,0.0
ik2p3bz9hemu7m01piqlf3o3,10,3,3,64,pd,2,0.0,1.0,1.201,1,1,0.0
ik2p3bz9hemu7m01piqlf3o3,11,3,3,66,pd,3,1.0,0.0,1.139,1,1,0.0
ik2p3bz9hemu7m01piqlf3o3,12,3,3,24,pd,2,1.0,0.0,1.84,1,1,0.0
ilnis4ke0tk939iw3yp0nz20,1,3,3,45,pd,2,1.0,0.0,6.491,1,1,0.0
ilnis4ke0tk939iw3yp0nz20,2,3,3,55,pd,1,0.0,1.0,10.742,1,1,0.0
ilnis4ke0tk939iw3yp0nz20,3,3,3,30,pd,3,3.0,0.0,6.248,1,1,0.0
ilnis4ke0tk939iw3yp0nz20,4,3,3,58,md,1,3.0,0.0,6.663,1,1,0.0
ilnis4ke0tk939iw3yp0nz20,5,3,3,17,pd,1,2.0,0.0,10.125,1,1,0.0
ilnis4ke0tk939iw3yp0nz20,6,3,3,72,pd,1,2.0,0.0,8.868,1,1,0.0
ilnis4ke0tk939iw3yp0nz20,7,3,3,29,pd,2,3.0,0.0,10.775,1,1,0.0
ilnis4ke0tk939iw3yp0nz20,8,3,3,76,pd,2,3.0,0.0,7.007,1,1,0.0
ilnis4ke0tk939iw3yp0nz20,9,3,3,35,pd,2,2.0,0.0,6.06,1,1,0.0
ilnis4ke0tk939iw3yp0nz20,10,3,3,64,pd,2,3.0,0.0,6.287,1,1,0.0
ilnis4ke0tk939iw3yp0nz20,11,3,3,66,pd,3,0.0,1.0,7.696,1,1,0.0
ilnis4ke0tk939iw3yp0nz20,12,3,3,24,pd,2,2.0,0.0,4.487,1,1,0.0
imghzciz91a1mzo4vl38xsse,1,3,3,45,pd,2,0.0,1.0,8.012,1,1,0.0
imghzciz91a1mzo4vl38xsse,2,3,3,55,pd,1,0.0,1.0,7.746,1,1,0.0
imghzciz91a1mzo4vl38xsse,3,3,3,30,pd,3,0.0,1.0,16.693,1,1,0.0
imghzciz91a1mzo4vl38xsse,4,3,3,58,md,1,3.0,0.0,13.415,1,1,0.0
imghzciz91a1mzo4vl38xsse,5,3,3,17,pd,1,0.0,1.0,10.908,1,1,0.0
imghzciz91a1mzo4vl38xsse,6,3,3,72,pd,1,0.0,1.0,9.249,1,1,0.0
imghzciz91a1mzo4vl38xsse,7,3,3,29,pd,2,0.0,1.0,11.021,1,1,0.0
imghzciz91a1mzo4vl38xsse,8,3,3,76,pd,2,0.0,1.0,18.525,1,1,0.0
imghzciz91a1mzo4vl38xsse,9,3,3,35,pd,2,0.0,1.0,12.937,1,1,0.0
imghzciz91a1mzo4vl38xsse,10,3,3,64,pd,2,3.0,0.0,22.527,1,1,0.0
imghzciz91a1mzo4vl38xsse,11,3,3,66,pd,3,1.0,0.0,27.939,1,1,0.0
imghzciz91a1mzo4vl38xsse,12,3,3,24,pd,2,0.0,1.0,20.178,1,1,0.0
jgtgqyg5g1f9z98a3kl89b1m,1,3,2,45,pd,1,0.0,1.0,11.13,1,1,0.0
jgtgqyg5g1f9z98a3kl89b1m,2,3,2,30,pd,2,0.0,1.0,7.975,1,1,0.0
jgtgqyg5g1f9z98a3kl89b1m,3,3,2,55,pd,3,1.0,0.0,16.564,1,1,0.0
jgtgqyg5g1f9z98a3kl89b1m,4,3,2,29,pd,1,0.0,1.0,6.128,1,1,0.0
jgtgqyg5g1f9z98a3kl89b1m,5,3,2,64,pd,1,0.0,1.0,17.152,1,1,0.0
jgtgqyg5g1f9z98a3kl89b1m,6,3,2,35,pd,1,0.0,1.0,8.422,1,1,0.0
jgtgqyg5g1f9z98a3kl89b1m,7,3,2,24,pd,1,0.0,1.0,7.812,1,1,0.0
jgtgqyg5g1f9z98a3kl89b1m,8,3,2,17,pd,3,0.0,1.0,19.984,1,1,0.0
jgtgqyg5g1f9z98a3kl89b1m,9,3,2,58,md,3,0.0,1.0,12.595,1,1,0.0
jgtgqyg5g1f9z98a3kl89b1m,10,3,2,76,pd,1,0.0,1.0,28.366,1,1,0.0
jgtgqyg5g1f9z98a3kl89b1m,11,3,2,72,pd,3,0.0,1.0,9.612,1,1,0.0
jgtgqyg5g1f9z98a3kl89b1m,12,3,2,66,pd,2,0.0,1.0,14.86,1,1,0.0
jh2in08c6axpytckmmy87x2h,1,3,2,45,pd,1,0.0,1.0,8.27,1,1,0.0
jh2in08c6axpytckmmy87x2h,2,3,2,30,pd,2,2.0,0.0,17.051,1,1,0.0
jh2in08c6axpytckmmy87x2h,3,3,2,55,pd,3,0.0,1.0,17.131,1,1,0.0
jh2in08c6axpytckmmy87x2h,4,3,2,29,pd,1,2.0,0.0,14.723,1,1,0.0
jh2in08c6axpytckmmy87x2h,5,3,2,64,pd,1,2.0,0.0,28.364,1,1,2.0
jh2in08c6axpytckmmy87x2h,6,3,2,35,pd,1,0.0,1.0,11.444,1,1,0.0
jh2in08c6axpytckmmy87x2h,7,3,2,24,pd,1,3.0,0.0,14.307,1,1,0.0
jh2in08c6axpytckmmy87x2h,8,3,2,17,pd,3,1.0,0.0,12.572,1,1,0.0
jh2in08c6axpytckmmy87x2h,9,3,2,58,md,3,1.0,0.0,11.202,1,1,0.0
jh2in08c6axpytckmmy87x2h,10,3,2,76,pd,1,0.0,1.0,3.283,1,1,0.0
jh2in08c6axpytckmmy87x2h,11,3,2,72,pd,3,2.0,0.0,22.372,1,1,0.0
jh2in08c6axpytckmmy87x2h,12,3,2,66,pd,2,2.0,0.0,16.636,1,1,0.0
k3cjeyoi5a4i1n77qy4j2rpj,1,3,2,45,pd,1,2.0,0.0,15.336,1,1,0.0
k3cjeyoi5a4i1n77qy4j2rpj,2,3,2,30,pd,2,2.0,0.0,15.678,1,1,0.0
k3cjeyoi5a4i1n77qy4j2rpj,3,3,2,55,pd,3,0.0,1.0,8.402,1,1,0.0
k3cjeyoi5a4i1n77qy4j2rpj,4,3,2,29,pd,1,0.0,1.0,5.652,1,1,0.0
k3cjeyoi5a4i1n77qy4j2rpj,5,3,2,64,pd,1,0.0,1.0,8.347,1,1,0.0
k3cjeyoi5a4i1n77qy4j2rpj,6,3,2,35,pd,1,2.0,0.0,6.816,1,1,0.0
k3cjeyoi5a4i1n77qy4j2rpj,7,3,2,24,pd,1,0.0,1.0,7.064,1,1,0.0
k3cjeyoi5a4i1n77qy4j2rpj,8,3,2,17,pd,3,0.0,1.0,17.621,1,1,0.0
k3cjeyoi5a4i1n77qy4j2rpj,9,3,2,58,md,3,0.0,1.0,11.569,1,1,0.0
k3cjeyoi5a4i1n77qy4j2rpj,10,3,2,76,pd,1,0.0,1.0,11.695,1,1,0.0
k3cjeyoi5a4i1n77qy4j2rpj,11,3,2,72,pd,3,2.0,0.0,12.701,1,1,0.0
k3cjeyoi5a4i1n77qy4j2rpj,12,3,2,66,pd,2,0.0,1.0,10.646,1,1,0.0
k8pxuud4y1w41ytj7lpvc3lc,1,3,3,45,pd,2,2.0,0.0,12.013,1,1,0.0
k8pxuud4y1w41ytj7lpvc3lc,2,3,3,55,pd,1,0.0,1.0,6.977,1,1,0.0
k8pxuud4y1w41ytj7lpvc3lc,3,3,3,30,pd,3,3.0,0.0,10.446,1,1,0.0
k8pxuud4y1w41ytj7lpvc3lc,4,3,3,58,md,1,0.0,1.0,15.114,1,1,0.0
k8pxuud4y1w41ytj7lpvc3lc,5,3,3,17,pd,1,0.0,1.0,16.901,1,1,0.0
k8pxuud4y1w41ytj7lpvc3lc,6,3,3,72,pd,1,2.0,0.0,18.291,1,1,0.0
k8pxuud4y1w41ytj7lpvc3lc,7,3,3,29,pd,2,3.0,0.0,25.649,1,1,0.0
k8pxuud4y1w41ytj7lpvc3lc,8,3,3,76,pd,2,2.0,0.0,15.386,1,1,0.0
k8pxuud4y1w41ytj7lpvc3lc,9,3,3,35,pd,2,0.0,1.0,17.237,1,1,0.0
k8pxuud4y1w41ytj7lpvc3lc,10,3,3,64,pd,2,3.0,0.0,28.496,1,1,0.0
k8pxuud4y1w41ytj7lpvc3lc,11,3,3,66,pd,3,1.0,0.0,29.186,1,1,0.0
k8pxuud4y1w41ytj7lpvc3lc,12,3,3,24,pd,2,0.0,1.0,23.169,1,1,0.0
ka14cnda7tfm6db0ezj0aedx,1,3,1,55,pd,2,,,,1,1,0.0
ka14cnda7tfm6db0ezj0aedx,2,3,1,66,pd,1,0.0,1.0,10.243,1,1,0.0
ka14cnda7tfm6db0ezj0aedx,3,3,1,30,pd,1,0.0,1.0,23.469,1,1,0.0
ka14cnda7tfm6db0ezj0aedx,4,3,1,58,md,2,1.0,0.0,25.508,1,1,0.0
ka14cnda7tfm6db0ezj0aedx,5,3,1,45,pd,3,1.0,0.0,5.418,1,1,0.0
ka14cnda7tfm6db0ezj0aedx,6,3,1,29,pd,3,0.0,1.0,14.501,1,1,0.0
ka14cnda7tfm6db0ezj0aedx,7,3,1,17,pd,2,1.0,0.0,24.346,1,1,0.0
ka14cnda7tfm6db0ezj0aedx,8,3,1,24,pd,3,2.0,0.0,27.83,1,1,0.0
ka14cnda7tfm6db0ezj0aedx,9,3,1,72,pd,2,2.0,0.0,20.215,1,1,0.0
ka14cnda7tfm6db0ezj0aedx,10,3,1,64,pd,3,1.0,0.0,26.844,1,1,0.0
ka14cnda7tfm6db0ezj0aedx,11,3,1,76,pd,3,3.0,0.0,2.698,1,1,0.0
ka14cnda7tfm6db0ezj0aedx,12,3,1,35,pd,3,2.0,0.0,3.61,1,1,0.0
kgcy8fc8chqi2vfruj3ryb9z,1,3,1,55,pd,2,0.0,1.0,9.251,1,1,0.0
kgcy8fc8chqi2vfruj3ryb9z,2,3,1,66,pd,1,0.0,1.0,12.902,1,1,0.0
kgcy8fc8chqi2vfruj3ryb9z,3,3,1,30,pd,1,0.0,1.0,9.123,1,1,0.0
kgcy8fc8chqi2vfruj3ryb9z,4,3,1,58,md,2,0.0,1.0,17.328,1,1,0.0
kgcy8fc8chqi2vfruj3ryb9z,5,3,1,45,pd,3,1.0,0.0,9.955,1,1,0.0
kgcy8fc8chqi2vfruj3ryb9z,6,3,1,29,pd,3,0.0,1.0,14.525,1,1,0.0
kgcy8fc8chqi2vfruj3ryb9z,7,3,1,17,pd,2,0.0,1.0,28.039,1,1,0.0
kgcy8fc8chqi2vfruj3ryb9z,8,3,1,24,pd,3,3.0,0.0,19.467,1,1,0.0
kgcy8fc8chqi2vfruj3ryb9z,9,3,1,72,pd,2,0.0,1.0,17.238,1,1,0.0
kgcy8fc8chqi2vfruj3ryb9z,10,3,1,64,pd,3,1.0,0.0,13.662,1,1,0.0
kgcy8fc8chqi2vfruj3ryb9z,11,3,1,76,pd,3,1.0,0.0,22.017,1,1,0.0
kgcy8fc8chqi2vfruj3ryb9z,12,3,1,35,pd,3,0.0,1.0,24.496,1,1,0.0
khxiwhzqzepa46hcz4rybm3p,1,3,3,45,pd,2,1.0,0.0,3.719,1,1,0.0
khxiwhzqzepa46hcz4rybm3p,2,3,3,55,pd,1,0.0,1.0,9.068,1,1,0.0
khxiwhzqzepa46hcz4rybm3p,3,3,3,30,pd,3,0.0,1.0,9.062,1,1,0.0
khxiwhzqzepa46hcz4rybm3p,4,3,3,58,md,1,0.0,1.0,8.995,1,1,0.0
khxiwhzqzepa46hcz4rybm3p,5,3,3,17,pd,1,0.0,1.0,7.704,1,1,0.0
khxiwhzqzepa46hcz4rybm3p,6,3,3,72,pd,1,0.0,1.0,5.623,1,1,0.0
khxiwhzqzepa46hcz4rybm3p,7,3,3,29,pd,2,0.0,1.0,6.409,1,1,0.0
khxiwhzqzepa46hcz4rybm3p,8,3,3,76,pd,2,2.0,0.0,5.514,1,1,0.0
khxiwhzqzepa46hcz4rybm3p,9,3,3,35,pd,2,0.0,1.0,5.144,1,1,0.0
khxiwhzqzepa46hcz4rybm3p,10,3,3,64,pd,2,2.0,0.0,4.616,1,1,0.0
khxiwhzqzepa46hcz4rybm3p,11,3,3,66,pd,3,0.0,1.0,6.272,1,1,0.0
khxiwhzqzepa46hcz4rybm3p,12,3,3,24,pd,2,3.0,0.0,4.879,1,1,0.0
kkrrcz9oztj8tfvo6cf35n2y,1,3,2,45,pd,1,2.0,0.0,8.567,1,1,0.0
kkrrcz9oztj8tfvo6cf35n2y,2,3,2,30,pd,2,0.0,1.0,9.414,1,1,0.0
kkrrcz9oztj8tfvo6cf35n2y,3,3,2,55,pd,3,0.0,1.0,6.931,1,1,0.0
kkrrcz9oztj8tfvo6cf35n2y,4,3,2,29,pd,1,0.0,1.0,6.852,1,1,0.0
kkrrcz9oztj8tfvo6cf35n2y,5,3,2,64,pd,1,0.0,1.0,10.024,1,1,0.0
kkrrcz9oztj8tfvo6cf35n2y,6,3,2,35,pd,1,0.0,1.0,10.798,1,1,0.0
kkrrcz9oztj8tfvo6cf35n2y,7,3,2,24,pd,1,0.0,1.0,7.553,1,1,0.0
kkrrcz9oztj8tfvo6cf35n2y,8,3,2,17,pd,3,0.0,1.0,10.308,1,1,0.0
kkrrcz9oztj8tfvo6cf35n2y,9,3,2,58,md,3,0.0,1.0,9.507,1,1,0.0
kkrrcz9oztj8tfvo6cf35n2y,10,3,2,76,pd,1,0.0,1.0,9.02,1,1,0.0
kkrrcz9oztj8tfvo6cf35n2y,11,3,2,72,pd,3,0.0,1.0,6.282,1,1,0.0
kkrrcz9oztj8tfvo6cf35n2y,12,3,2,66,pd,2,3.0,0.0,10.995,1,1,0.0
kx834pa56n2j1sij32zu1qii,1,3,3,45,pd,2,0.0,1.0,9.785,1,1,0.0
kx834pa56n2j1sij32zu1qii,2,3,3,55,pd,1,0.0,1.0,17.929,1,1,0.0
kx834pa56n2j1sij32zu1qii,3,3,3,30,pd,3,0.0,1.0,24.33,1,1,2.0
kx834pa56n2j1sij32zu1qii,4,3,3,58,md,1,1.0,0.0,15.743,1,1,0.0
kx834pa56n2j1sij32zu1qii,5,3,3,17,pd,1,0.0,1.0,13.56,1,1,0.0
kx834pa56n2j1sij32zu1qii,6,3,3,72,pd,1,0.0,1.0,9.905,1,1,0.0
kx834pa56n2j1sij32zu1qii,7,3,3,29,pd,2,0.0,1.0,27.572,1,1,0.0
kx834pa56n2j1sij32zu1qii,8,3,3,76,pd,2,0.0,1.0,20.937,1,1,0.0
kx834pa56n2j1sij32zu1qii,9,3,3,35,pd,2,0.0,1.0,29.408,1,1,0.0
kx834pa56n2j1sij32zu1qii,10,3,3,64,pd,2,2.0,0.0,29.387,1,1,0.0
kx834pa56n2j1sij32zu1qii,11,3,3,66,pd,3,0.0,1.0,26.236,1,1,0.0
kx834pa56n2j1sij32zu1qii,12,3,3,24,pd,2,2.0,0.0,17.08,1,1,0.0
l6m44ya9hf1jsm05qwyu8n1s,1,3,1,55,pd,2,0.0,1.0,4.428,1,1,0.0
l6m44ya9hf1jsm05qwyu8n1s,2,3,1,66,pd,1,0.0,1.0,4.652,1,1,0.0
l6m44ya9hf1jsm05qwyu8n1s,3,3,1,30,pd,1,0.0,1.0,6.58,1,1,0.0
l6m44ya9hf1jsm05qwyu8n1s,4,3,1,58,md,2,1.0,0.0,8.772,1,1,0.0
l6m44ya9hf1jsm05qwyu8n1s,5,3,1,45,pd,3,0.0,1.0,5.66,1,1,0.0
l6m44ya9hf1jsm05qwyu8n1s,6,3,1,29,pd,3,3.0,0.0,9.972,1,1,0.0
l6m44ya9hf1jsm05qwyu8n1s,7,3,1,17,pd,2,1.0,0.0,17.051,1,1,0.0
l6m44ya9hf1jsm05qwyu8n1s,8,3,1,24,pd,3,0.0,1.0,13.965,1,1,0.0
l6m44ya9hf1jsm05qwyu8n1s,9,3,1,72,pd,2,0.0,1.0,10.92,1,1,0.0
l6m44ya9hf1jsm05qwyu8n1s,10,3,1,64,pd,3,0.0,1.0,12.901,1,1,0.0
l6m44ya9hf1jsm05qwyu8n1s,11,3,1,76,pd,3,2.0,0.0,13.645,1,1,0.0
l6m44ya9hf1jsm05qwyu8n1s,12,3,1,35,pd,3,1.0,0.0,14.668,1,1,0.0
lcumyg3r2l43ji3yzajenmkx,1,3,3,45,pd,2,0.0,1.0,14.389,1,1,0.0
lcumyg3r2l43ji3yzajenmkx,2,3,3,55,pd,1,0.0,1.0,7.693,1,1,0.0
lcumyg3r2l43ji3yzajenmkx,3,3,3,30,pd,3,0.0,1.0,19.608,1,1,0.0
lcumyg3r2l43ji3yzajenmkx,4,3,3,58,md,1,0.0,1.0,8.285,1,1,0.0
lcumyg3r2l43ji3yzajenmkx,5,3,3,17,pd,1,2.0,0.0,25.281,1,1,0.0
lcumyg3r2l43ji3yzajenmkx,6,3,3,72,pd,1,1.0,0.0,20.56,1,1,0.0
lcumyg3r2l43ji3yzajenmkx,7,3,3,29,pd,2,0.0,1.0,11.972,1,1,0.0
lcumyg3r2l43ji3yzajenmkx,8,3,3,76,pd,2,0.0,1.0,7.268,1,1,0.0
lcumyg3r2l43ji3yzajenmkx,9,3,3,35,pd,2,0.0,1.0,22.109,1,1,0.0
lcumyg3r2l43ji3yzajenmkx,10,3,3,64,pd,2,0.0,1.0,13.383,1,1,0.0
lcumyg3r2l43ji3yzajenmkx,11,3,3,66,pd,3,0.0,1.0,24.557,1,1,0.0
lcumyg3r2l43ji3yzajenmkx,12,3,3,24,pd,2,0.0,1.0,19.095,1,1,0.0
lgzvkqrqs46d2jeqth187kt6,1,3,1,55,pd,2,0.0,1.0,25.676,1,1,0.0
lgzvkqrqs46d2jeqth187kt6,2,3,1,66,pd,1,0.0,1.0,9.275,1,1,0.0
lgzvkqrqs46d2jeqth187kt6,3,3,1,30,pd,1,0.0,1.0,13.415,1,1,0.0
lgzvkqrqs46d2jeqth187kt6,4,3,1,58,md,2,0.0,1.0,19.439,1,1,0.0
lgzvkqrqs46d2jeqth187kt6,5,3,1,45,pd,3,,,,1,1,0.0
lgzvkqrqs46d2jeqth187kt6,6,3,1,29,pd,3,0.0,1.0,19.789,1,1,0.0
lgzvkqrqs46d2jeqth187kt6,7,3,1,17,pd,2,0.0,1.0,13.562,1,1,0.0
lgzvkqrqs46d2jeqth187kt6,8,3,1,24,pd,3,0.0,1.0,16.237,1,1,0.0
lgzvkqrqs46d2jeqth187kt6,9,3,1,72,pd,2,2.0,0.0,21.989,1,1,0.0
lgzvkqrqs46d2jeqth187kt6,10,3,1,64,pd,3,0.0,1.0,14.871,1,1,0.0
lgzvkqrqs46d2jeqth187kt6,11,3,1,76,pd,3,3.0,0.0,28.152,1,1,0.0
lgzvkqrqs46d2jeqth187kt6,12,3,1,35,pd,3,0.0,1.0,20.261,1,1,0.0
lnb4mnnq884abhki3y40vyn5,1,3,2,45,pd,1,0.0,1.0,11.566,1,1,0.0
lnb4mnnq884abhki3y40vyn5,2,3,2,30,pd,2,0.0,1.0,21.168,1,1,0.0
lnb4mnnq884abhki3y40vyn5,3,3,2,55,pd,3,0.0,1.0,18.866,1,1,0.0
lnb4mnnq884abhki3y40vyn5,4,3,2,29,pd,1,0.0,1.0,16.874,1,1,0.0
lnb4mnnq884abhki3y40vyn5,5,3,2,64,pd,1,0.0,1.0,28.05,1,1,0.0
lnb4mnnq884abhki3y40vyn5,6,3,2,35,pd,1,0.0,1.0,7.85,1,1,0.0
lnb4mnnq884abhki3y40vyn5,7,3,2,24,pd,1,0.0,1.0,9.967,1,1,0.0
lnb4mnnq884abhki3y40vyn5,8,3,2,17,pd,3,2.0,0.0,22.487,1,1,0.0
lnb4mnnq884abhki3y40vyn5,9,3,2,58,md,3,0.0,1.0,15.979,1,1,0.0
lnb4mnnq884abhki3y40vyn5,10,3,2,76,pd,1,0.0,1.0,21.677,1,1,0.0
lnb4mnnq884abhki3y40vyn5,11,3,2,72,pd,3,0.0,1.0,10.903,1,1,0.0
lnb4mnnq884abhki3y40vyn5,12,3,2,66,pd,2,0.0,1.0,17.591,1,1,0.0
lzihg9s21ur09mrjq4k2cwq4,1,3,3,45,pd,2,0.0,1.0,12.7,1,1,0.0
lzihg9s21ur09mrjq4k2cwq4,2,3,3,55,pd,1,0.0,1.0,14.09,1,1,0.0
lzihg9s21ur09mrjq4k2cwq4,3,3,3,30,pd,3,0.0,1.0,16.176,1,1,0.0
lzihg9s21ur09mrjq4k2cwq4,4,3,3,58,md,1,0.0,1.0,15.308,1,1,0.0
lzihg9s21ur09mrjq4k2cwq4,5,3,3,17,pd,1,0.0,1.0,23.452,1,1,0.0
lzihg9s21ur09mrjq4k2cwq4,6,3,3,72,pd,1,0.0,1.0,13.791,1,1,0.0
lzihg9s21ur09mrjq4k2cwq4,7,3,3,29,pd,2,0.0,1.0,23.316,1,1,0.0
lzihg9s21ur09mrjq4k2cwq4,8,3,3,76,pd,2,0.0,1.0,23.106,1,1,0.0
lzihg9s21ur09mrjq4k2cwq4,9,3,3,35,pd,2,0.0,1.0,21.944,1,1,0.0
lzihg9s21ur09mrjq4k2cwq4,10,3,3,64,pd,2,2.0,0.0,27.794,1,1,0.0
lzihg9s21ur09mrjq4k2cwq4,11,3,3,66,pd,3,0.0,1.0,26.679,1,1,0.0
lzihg9s21ur09mrjq4k2cwq4,12,3,3,24,pd,2,0.0,1.0,29.876,1,1,0.0
m17k2y6bdzttrg9u5nksilc7,1,3,2,45,pd,1,2.0,0.0,4.917,1,1,0.0
m17k2y6bdzttrg9u5nksilc7,2,3,2,30,pd,2,3.0,0.0,8.441,1,1,0.0
m17k2y6bdzttrg9u5nksilc7,3,3,2,55,pd,3,0.0,1.0,8.822,1,1,0.0
m17k2y6bdzttrg9u5nksilc7,4,3,2,29,pd,1,2.0,0.0,7.145,1,1,0.0
m17k2y6bdzttrg9u5nksilc7,5,3,2,64,pd,1,0.0,1.0,9.152,1,1,0.0
m17k2y6bdzttrg9u5nksilc7,6,3,2,35,pd,1,2.0,0.0,7.248,1,1,0.0
m17k2y6bdzttrg9u5nksilc7,7,3,2,24,pd,1,2.0,0.0,8.591,1,1,0.0
m17k2y6bdzttrg9u5nksilc7,8,3,2,17,pd,3,0.0,1.0,6.101,1,1,0.0
m17k2y6bdzttrg9u5nksilc7,9,3,2,58,md,3,1.0,0.0,6.39,1,1,0.0
m17k2y6bdzttrg9u5nksilc7,10,3,2,76,pd,1,3.0,0.0,3.595,1,1,0.0
m17k2y6bdzttrg9u5nksilc7,11,3,2,72,pd,3,0.0,1.0,5.584,1,1,0.0
m17k2y6bdzttrg9u5nksilc7,12,3,2,66,pd,2,0.0,1.0,4.873,1,1,0.0
m3eq3hhc22veibijwms22et7,1,3,1,55,pd,2,3.0,0.0,9.232,1,1,0.0
m3eq3hhc22veibijwms22et7,2,3,1,66,pd,1,0.0,1.0,4.883,1,1,0.0
m3eq3hhc22veibijwms22et7,3,3,1,30,pd,1,0.0,1.0,10.807,1,1,0.0
m3eq3hhc22veibijwms22et7,4,3,1,58,md,2,1.0,0.0,7.659,1,1,0.0
m3eq3hhc22veibijwms22et7,5,3,1,45,pd,3,0.0,1.0,4.94,1,1,0.0
m3eq3hhc22veibijwms22et7,6,3,1,29,pd,3,0.0,1.0,5.14,1,1,0.0
m3eq3hhc22veibijwms22et7,7,3,1,17,pd,2,0.0,1.0,8.049,1,1,0.0
m3eq3hhc22veibijwms22et7,8,3,1,24,pd,3,3.0,0.0,6.691,1,1,0.0
m3eq3hhc22veibijwms22et7,9,3,1,72,pd,2,0.0,1.0,4.963,1,1,0.0
m3eq3hhc22veibijwms22et7,10,3,1,64,pd,3,2.0,0.0,4.737,1,1,0.0
m3eq3hhc22veibijwms22et7,11,3,1,76,pd,3,3.0,0.0,3.933,1,1,0.0
m3eq3hhc22veibijwms22et7,12,3,1,35,pd,3,2.0,0.0,7.034,1,1,0.0
m8ezoj16iut6jnfcv0cloyrs,1,3,1,55,pd,2,0.0,1.0,11.905,1,1,0.0
m8ezoj16iut6jnfcv0cloyrs,2,3,1,66,pd,1,0.0,1.0,4.784,1,1,0.0
m8ezoj16iut6jnfcv0cloyrs,3,3,1,30,pd,1,0.0,1.0,8.905,1,1,0.0
m8ezoj16iut6jnfcv0cloyrs,4,3,1,58,md,2,1.0,0.0,8.173,1,1,0.0
m8ezoj16iut6jnfcv0cloyrs,5,3,1,45,pd,3,1.0,0.0,8.891,1,1,0.0
m8ezoj16iut6jnfcv0cloyrs,6,3,1,29,pd,3,0.0,1.0,10.677,1,1,0.0
m8ezoj16iut6jnfcv0cloyrs,7,3,1,17,pd,2,1.0,0.0,13.048,1,1,0.0
m8ezoj16iut6jnfcv0cloyrs,8,3,1,24,pd,3,3.0,0.0,13.683,1,1,0.0
m8ezoj16iut6jnfcv0cloyrs,9,3,1,72,pd,2,0.0,1.0,13.433,1,1,0.0
m8ezoj16iut6jnfcv0cloyrs,10,3,1,64,pd,3,0.0,1.0,9.809,1,1,0.0
m8ezoj16iut6jnfcv0cloyrs,11,3,1,76,pd,3,1.0,0.0,13.651,1,1,0.0
m8ezoj16iut6jnfcv0cloyrs,12,3,1,35,pd,3,3.0,0.0,21.939,1,1,0.0
mce8ffaz0jhibwi2l8ftnsk7,1,3,3,45,pd,2,0.0,1.0,16.874,1,1,0.0
mce8ffaz0jhibwi2l8ftnsk7,2,3,3,55,pd,1,0.0,1.0,28.584,1,1,0.0
mce8ffaz0jhibwi2l8ftnsk7,3,3,3,30,pd,3,0.0,1.0,25.498,1,1,0.0
mce8ffaz0jhibwi2l8ftnsk7,4,3,3,58,md,1,1.0,0.0,11.192,1,1,0.0
mce8ffaz0jhibwi2l8ftnsk7,5,3,3,17,pd,1,0.0,1.0,15.024,1,1,0.0
mce8ffaz0jhibwi2l8ftnsk7,6,3,3,72,pd,1,0.0,1.0,11.245,1,1,0.0
mce8ffaz0jhibwi2l8ftnsk7,7,3,3,29,pd,2,0.0,1.0,16.072,1,1,0.0
mce8ffaz0jhibwi2l8ftnsk7,8,3,3,76,pd,2,1.0,0.0,25.446,1,1,0.0
mce8ffaz0jhibwi2l8ftnsk7,9,3,3,35,pd,2,0.0,1.0,12.448,1,1,0.0
mce8ffaz0jhibwi2l8ftnsk7,10,3,3,64,pd,2,0.0,1.0,17.053,1,1,0.0
mce8ffaz0jhibwi2l8ftnsk7,11,3,3,66,pd,3,0.0,1.0,15.041,1,1,0.0
mce8ffaz0jhibwi2l8ftnsk7,12,3,3,24,pd,2,0.0,1.0,14.917,1,1,0.0
mfaomhbw04yx9mipttpsveyn,1,3,1,55,pd,2,2.0,0.0,16.849,1,1,0.0
mfaomhbw04yx9mipttpsveyn,2,3,1,66,pd,1,0.0,1.0,14.372,1,1,0.0
mfaomhbw04yx9mipttpsveyn,3,3,1,30,pd,1,3.0,0.0,13.319,1,1,0.0
mfaomhbw04yx9mipttpsveyn,4,3,1,58,md,2,1.0,0.0,13.375,1,1,0.0
mfaomhbw04yx9mipttpsveyn,5,3,1,45,pd,3,0.0,1.0,15.813,1,1,0.0
mfaomhbw04yx9mipttpsveyn,6,3,1,29,pd,3,0.0,1.0,20.849,1,1,0.0
mfaomhbw04yx9mipttpsveyn,7,3,1,17,pd,2,0.0,1.0,26.336,1,1,0.0
mfaomhbw04yx9mipttpsveyn,8,3,1,24,pd,3,0.0,1.0,22.392,1,1,0.0
mfaomhbw04yx9mipttpsveyn,9,3,1,72,pd,2,0.0,1.0,20.761,1,1,0.0
mfaomhbw04yx9mipttpsveyn,10,3,1,64,pd,3,1.0,0.0,6.566,1,1,0.0
mfaomhbw04yx9mipttpsveyn,11,3,1,76,pd,3,0.0,1.0,16.808,1,1,0.0
mfaomhbw04yx9mipttpsveyn,12,3,1,35,pd,3,1.0,0.0,23.786,1,1,0.0
mnqxftxd0fdijb3g3d25k8o4,1,3,2,45,pd,1,0.0,1.0,21.961,1,1,0.0
mnqxftxd0fdijb3g3d25k8o4,2,3,2,30,pd,2,,,,1,1,0.0
mnqxftxd0fdijb3g3d25k8o4,3,3,2,55,pd,3,3.0,0.0,18.535,1,1,0.0
mnqxftxd0fdijb3g3d25k8o4,4,3,2,29,pd,1,0.0,1.0,21.154,1,1,0.0
mnqxftxd0fdijb3g3d25k8o4,5,3,2,64,pd,1,0.0,1.0,20.912,1,1,0.0
mnqxftxd0fdijb3g3d25k8o4,6,3,2,35,pd,1,1.0,0.0,17.808,1,1,0.0
mnqxftxd0fdijb3g3d25k8o4,7,3,2,24,pd,1,0.0,1.0,17.255,1,1,0.0
mnqxftxd0fdijb3g3d25k8o4,8,3,2,17,pd,3,0.0,1.0,14.971,1,1,0.0
mnqxftxd0fdijb3g3d25k8o4,9,3,2,58,md,3,1.0,0.0,13.894,1,1,0.0
mnqxftxd0fdijb3g3d25k8o4,10,3,2,76,pd,1,2.0,0.0,15.058,1,1,0.0
mnqxftxd0fdijb3g3d25k8o4,11,3,2,72,pd,3,2.0,0.0,18.147,1,1,0.0
mnqxftxd0fdijb3g3d25k8o4,12,3,2,66,pd,2,1.0,0.0,18.737,1,1,0.0
mpameguxsrwa38o55i7kignl,1,3,2,45,pd,1,1.0,0.0,5.799,0,1,0.0
mpameguxsrwa38o55i7kignl,2,3,2,30,pd,2,1.0,0.0,6.383,0,1,0.0
mpameguxsrwa38o55i7kignl,3,3,2,55,pd,3,3.0,0.0,11.271,1,1,0.0
mpameguxsrwa38o55i7kignl,4,3,2,29,pd,1,0.0,1.0,12.314,1,1,0.0
mpameguxsrwa38o55i7kignl,5,3,2,64,pd,1,1.0,0.0,11.892,1,1,0.0
mpameguxsrwa38o55i7kignl,6,3,2,35,pd,1,0.0,1.0,10.842,1,1,0.0
mpameguxsrwa38o55i7kignl,7,3,2,24,pd,1,3.0,0.0,11.955,1,1,0.0
mpameguxsrwa38o55i7kignl,8,3,2,17,pd,3,1.0,0.0,16.458,1,1,0.0
mpameguxsrwa38o55i7kignl,9,3,2,58,md,3,0.0,1.0,13.284,1,1,0.0
mpameguxsrwa38o55i7kignl,10,3,2,76,pd,1,0.0,1.0,14.252,1,1,0.0
mpameguxsrwa38o55i7kignl,11,3,2,72,pd,3,1.0,0.0,5.224,1,1,0.0
mpameguxsrwa38o55i7kignl,12,3,2,66,pd,2,2.0,0.0,6.589,1,1,0.0
mrtt5iud3614iymva7gxuaeo,1,3,2,45,pd,1,2.0,0.0,19.387,1,1,0.0
mrtt5iud3614iymva7gxuaeo,2,3,2,30,pd,2,2.0,0.0,12.703,1,1,0.0
mrtt5iud3614iymva7gxuaeo,3,3,2,55,pd,3,1.0,0.0,7.572,1,1,0.0
mrtt5iud3614iymva7gxuaeo,4,3,2,29,pd,1,1.0,0.0,13.545,1,1,0.0
mrtt5iud3614iymva7gxuaeo,5,3,2,64,pd,1,0.0,1.0,13.053,1,1,0.0
mrtt5iud3614iymva7gxuaeo,6,3,2,35,pd,1,2.0,0.0,5.193,1,1,0.0
mrtt5iud3614iymva7gxuaeo,7,3,2,24,pd,1,0.0,1.0,7.604,1,1,0.0
mrtt5iud3614iymva7gxuaeo,8,3,2,17,pd,3,1.0,0.0,12.061,1,1,0.0
mrtt5iud3614iymva7gxuaeo,9,3,2,58,md,3,0.0,1.0,11.369,1,1,0.0
mrtt5iud3614iymva7gxuaeo,10,3,2,76,pd,1,2.0,0.0,5.94,1,1,0.0
mrtt5iud3614iymva7gxuaeo,11,3,2,72,pd,3,0.0,1.0,15.729,1,1,0.0
mrtt5iud3614iymva7gxuaeo,12,3,2,66,pd,2,1.0,0.0,3.195,1,1,0.0
n0tjhn39vpoezs9wjk0gntyf,1,3,1,55,pd,2,0.0,1.0,16.197,1,1,0.0
n0tjhn39vpoezs9wjk0gntyf,2,3,1,66,pd,1,0.0,1.0,17.947,1,1,0.0
n0tjhn39vpoezs9wjk0gntyf,3,3,1,30,pd,1,0.0,1.0,13.712,1,1,0.0
n0tjhn39vpoezs9wjk0gntyf,4,3,1,58,md,2,1.0,0.0,14.133,1,1,0.0
n0tjhn39vpoezs9wjk0gntyf,5,3,1,45,pd,3,0.0,1.0,21.689,1,1,0.0
n0tjhn39vpoezs9wjk0gntyf,6,3,1,29,pd,3,3.0,0.0,24.095,1,1,0.0
n0tjhn39vpoezs9wjk0gntyf,7,3,1,17,pd,2,0.0,1.0,30.576,1,1,0.0
n0tjhn39vpoezs9wjk0gntyf,8,3,1,24,pd,3,3.0,0.0,9.478,1,1,0.0
n0tjhn39vpoezs9wjk0gntyf,9,3,1,72,pd,2,0.0,1.0,15.581,1,1,0.0
n0tjhn39vpoezs9wjk0gntyf,10,3,1,64,pd,3,1.0,0.0,22.91,1,1,0.0
n0tjhn39vpoezs9wjk0gntyf,11,3,1,76,pd,3,0.0,1.0,24.534,1,1,0.0
n0tjhn39vpoezs9wjk0gntyf,12,3,1,35,pd,3,0.0,1.0,26.648,1,1,0.0
n6eyi6k1oosxo133kugr9f9d,1,3,1,55,pd,2,0.0,1.0,27.007,1,1,0.0
n6eyi6k1oosxo133kugr9f9d,2,3,1,66,pd,1,0.0,1.0,7.59,1,1,0.0
n6eyi6k1oosxo133kugr9f9d,3,3,1,30,pd,1,0.0,1.0,12.009,1,1,0.0
n6eyi6k1oosxo133kugr9f9d,4,3,1,58,md,2,0.0,1.0,25.659,1,1,0.0
n6eyi6k1oosxo133kugr9f9d,5,3,1,45,pd,3,0.0,1.0,17.359,1,1,0.0
n6eyi6k1oosxo133kugr9f9d,6,3,1,29,pd,3,0.0,1.0,18.959,1,1,0.0
n6eyi6k1oosxo133kugr9f9d,7,3,1,17,pd,2,0.0,1.0,23.283,1,1,0.0
n6eyi6k1oosxo133kugr9f9d,8,3,1,24,pd,3,1.0,0.0,18.863,1,1,0.0
n6eyi6k1oosxo133kugr9f9d,9,3,1,72,pd,2,,,,1,1,0.0
n6eyi6k1oosxo133kugr9f9d,10,3,1,64,pd,3,2.0,0.0,7.122,1,1,0.0
n6eyi6k1oosxo133kugr9f9d,11,3,1,76,pd,3,0.0,1.0,7.519,1,1,0.0
n6eyi6k1oosxo133kugr9f9d,12,3,1,35,pd,3,2.0,0.0,2.68,1,1,0.0
ni3u1j0yq0w15u4va0pbif6q,1,3,2,45,pd,1,2.0,0.0,24.236,1,1,0.0
ni3u1j0yq0w15u4va0pbif6q,2,3,2,30,pd,2,2.0,0.0,29.276,1,1,0.0
ni3u1j0yq0w15u4va0pbif6q,3,3,2,55,pd,3,0.0,1.0,26.78,1,1,0.0
ni3u1j0yq0w15u4va0pbif6q,4,3,2,29,pd,1,0.0,1.0,13.475,1,1,0.0
ni3u1j0yq0w15u4va0pbif6q,5,3,2,64,pd,1,0.0,1.0,23.787,1,1,0.0
ni3u1j0yq0w15u4va0pbif6q,6,3,2,35,pd,1,0.0,1.0,11.604,1,1,0.0
ni3u1j0yq0w15u4va0pbif6q,7,3,2,24,pd,1,0.0,1.0,19.516,1,1,0.0
ni3u1j0yq0w15u4va0pbif6q,8,3,2,17,pd,3,1.0,0.0,26.394,1,1,0.0
ni3u1j0yq0w15u4va0pbif6q,9,3,2,58,md,3,3.0,0.0,15.826,1,1,0.0
ni3u1j0yq0w15u4va0pbif6q,10,3,2,76,pd,1,1.0,0.0,27.388,1,1,0.0
ni3u1j0yq0w15u4va0pbif6q,11,3,2,72,pd,3,,,,1,1,0.0
ni3u1j0yq0w15u4va0pbif6q,12,3,2,66,pd,2,0.0,1.0,22.856,1,1,0.0
no9etujarmhhxqnd88zig7hw,1,3,1,55,pd,2,0.0,1.0,8.454,1,1,0.0
no9etujarmhhxqnd88zig7hw,2,3,1,66,pd,1,0.0,1.0,6.219,1,1,0.0
no9etujarmhhxqnd88zig7hw,3,3,1,30,pd,1,3.0,0.0,4.9,1,1,0.0
no9etujarmhhxqnd88zig7hw,4,3,1,58,md,2,1.0,0.0,20.252,1,1,0.0
no9etujarmhhxqnd88zig7hw,5,3,1,45,pd,3,0.0,1.0,14.313,1,1,0.0
no9etujarmhhxqnd88zig7hw,6,3,1,29,pd,3,0.0,1.0,12.249,1,1,0.0
no9etujarmhhxqnd88zig7hw,7,3,1,17,pd,2,,,,1,1,0.0
no9etujarmhhxqnd88zig7hw,8,3,1,24,pd,3,0.0,1.0,13.321,1,1,0.0
no9etujarmhhxqnd88zig7hw,9,3,1,72,pd,2,0.0,1.0,15.858,1,1,0.0
no9etujarmhhxqnd88zig7hw,10,3,1,64,pd,3,0.0,1.0,21.478,1,1,0.0
no9etujarmhhxqnd88zig7hw,11,3,1,76,pd,3,2.0,0.0,16.171,1,1,0.0
no9etujarmhhxqnd88zig7hw,12,3,1,35,pd,3,1.0,0.0,16.778,1,1,0.0
nvpselq4oo94p257gc1a25iw,1,3,1,55,pd,2,0.0,1.0,8.319,1,1,0.0
nvpselq4oo94p257gc1a25iw,2,3,1,66,pd,1,0.0,1.0,9.487,1,1,0.0
nvpselq4oo94p257gc1a25iw,3,3,1,30,pd,1,0.0,1.0,8.246,1,1,0.0
nvpselq4oo94p257gc1a25iw,4,3,1,58,md,2,1.0,0.0,11.408,1,1,0.0
nvpselq4oo94p257gc1a25iw,5,3,1,45,pd,3,0.0,1.0,8.964,1,1,0.0
nvpselq4oo94p257gc1a25iw,6,3,1,29,pd,3,0.0,1.0,14.362,1,1,0.0
nvpselq4oo94p257gc1a25iw,7,3,1,17,pd,2,0.0,1.0,10.525,1,1,0.0
nvpselq4oo94p257gc1a25iw,8,3,1,24,pd,3,0.0,1.0,18.441,1,1,0.0
nvpselq4oo94p257gc1a25iw,9,3,1,72,pd,2,1.0,0.0,14.726,1,1,0.0
nvpselq4oo94p257gc1a25iw,10,3,1,64,pd,3,0.0,1.0,15.29,1,1,0.0
nvpselq4oo94p257gc1a25iw,11,3,1,76,pd,3,3.0,0.0,6.756,1,1,0.0
nvpselq4oo94p257gc1a25iw,12,3,1,35,pd,3,2.0,0.0,21.769,1,1,0.0
nw0cegr0f9yq4no9oueeczjw,1,3,2,45,pd,1,0.0,1.0,8.572,1,1,0.0
nw0cegr0f9yq4no9oueeczjw,2,3,2,30,pd,2,0.0,1.0,14.504,1,1,0.0
nw0cegr0f9yq4no9oueeczjw,3,3,2,55,pd,3,2.0,0.0,15.423,1,1,0.0
nw0cegr0f9yq4no9oueeczjw,4,3,2,29,pd,1,0.0,1.0,22.607,1,1,0.0
nw0cegr0f9yq4no9oueeczjw,5,3,2,64,pd,1,0.0,1.0,12.042,1,1,0.0
nw0cegr0f9yq4no9oueeczjw,6,3,2,35,pd,1,0.0,1.0,11.058,1,1,0.0
nw0cegr0f9yq4no9oueeczjw,7,3,2,24,pd,1,0.0,1.0,10.045,1,1,0.0
nw0cegr0f9yq4no9oueeczjw,8,3,2,17,pd,3,0.0,1.0,23.275,1,1,0.0
nw0cegr0f9yq4no9oueeczjw,9,3,2,58,md,3,1.0,0.0,13.735,1,1,0.0
nw0cegr0f9yq4no9oueeczjw,10,3,2,76,pd,1,0.0,1.0,18.103,1,1,0.0
nw0cegr0f9yq4no9oueeczjw,11,3,2,72,pd,3,1.0,0.0,22.827,1,1,0.0
nw0cegr0f9yq4no9oueeczjw,12,3,2,66,pd,2,,,,1,1,0.0
o38nghilxzxtavbu0wsiy2l5,1,3,3,45,pd,2,1.0,0.0,5.506,1,1,0.0
o38nghilxzxtavbu0wsiy2l5,2,3,3,55,pd,1,2.0,0.0,5.52,1,1,0.0
o38nghilxzxtavbu0wsiy2l5,3,3,3,30,pd,3,2.0,0.0,7.416,1,1,0.0
o38nghilxzxtavbu0wsiy2l5,4,3,3,58,md,1,3.0,0.0,8.963,1,1,0.0
o38nghilxzxtavbu0wsiy2l5,5,3,3,17,pd,1,3.0,0.0,3.054,1,1,0.0
o38nghilxzxtavbu0wsiy2l5,6,3,3,72,pd,1,1.0,0.0,5.214,1,1,0.0
o38nghilxzxtavbu0wsiy2l5,7,3,3,29,pd,2,3.0,0.0,6.345,1,1,0.0
o38nghilxzxtavbu0wsiy2l5,8,3,3,76,pd,2,0.0,1.0,7.526,1,1,0.0
o38nghilxzxtavbu0wsiy2l5,9,3,3,35,pd,2,3.0,0.0,3.68,1,1,0.0
o38nghilxzxtavbu0wsiy2l5,10,3,3,64,pd,2,2.0,0.0,5.543,1,1,0.0
o38nghilxzxtavbu0wsiy2l5,11,3,3,66,pd,3,1.0,0.0,4.201,1,1,0.0
o38nghilxzxtavbu0wsiy2l5,12,3,3,24,pd,2,1.0,0.0,2.779,1,1,0.0
opj9y1sz66t3r6bjrh50ka3i,1,3,1,55,pd,2,3.0,0.0,10.324,1,1,0.0
opj9y1sz66t3r6bjrh50ka3i,2,3,1,66,pd,1,0.0,1.0,10.366,1,1,0.0
opj9y1sz66t3r6bjrh50ka3i,3,3,1,30,pd,1,1.0,0.0,13.69,1,1,0.0
opj9y1sz66t3r6bjrh50ka3i,4,3,1,58,md,2,1.0,0.0,12.706,1,1,0.0
opj9y1sz66t3r6bjrh50ka3i,5,3,1,45,pd,3,2.0,0.0,13.506,1,1,0.0
opj9y1sz66t3r6bjrh50ka3i,6,3,1,29,pd,3,3.0,0.0,16.025,1,1,2.0
opj9y1sz66t3r6bjrh50ka3i,7,3,1,17,pd,2,0.0,1.0,10.258,1,1,0.0
opj9y1sz66t3r6bjrh50ka3i,8,3,1,24,pd,3,3.0,0.0,9.844,1,1,0.0
opj9y1sz66t3r6bjrh50ka3i,9,3,1,72,pd,2,2.0,0.0,5.779,1,1,0.0
opj9y1sz66t3r6bjrh50ka3i,10,3,1,64,pd,3,3.0,0.0,9.411,1,1,0.0
opj9y1sz66t3r6bjrh50ka3i,11,3,1,76,pd,3,3.0,0.0,2.526,1,1,0.0
opj9y1sz66t3r6bjrh50ka3i,12,3,1,35,pd,3,0.0,1.0,8.116,1,1,0.0
p61excm9v4fu5qgwhzeltajq,1,3,3,45,pd,2,0.0,1.0,24.992,1,1,0.0
p61excm9v4fu5qgwhzeltajq,2,3,3,55,pd,1,0.0,1.0,17.434,1,1,0.0
p61excm9v4fu5qgwhzeltajq,3,3,3,30,pd,3,0.0,1.0,22.434,1,1,0.0
p61excm9v4fu5qgwhzeltajq,4,3,3,58,md,1,,,,1,1,0.0
p61excm9v4fu5qgwhzeltajq,5,3,3,17,pd,1,0.0,1.0,19.969,1,1,0.0
p61excm9v4fu5qgwhzeltajq,6,3,3,72,pd,1,3.0,0.0,24.445,1,1,0.0
p61excm9v4fu5qgwhzeltajq,7,3,3,29,pd,2,3.0,0.0,29.515,1,1,0.0
p61excm9v4fu5qgwhzeltajq,8,3,3,76,pd,2,2.0,0.0,11.425,1,1,0.0
p61excm9v4fu5qgwhzeltajq,9,3,3,35,pd,2,0.0,1.0,11.446,1,1,0.0
p61excm9v4fu5qgwhzeltajq,10,3,3,64,pd,2,0.0,1.0,24.502,1,1,0.0
p61excm9v4fu5qgwhzeltajq,11,3,3,66,pd,3,2.0,0.0,22.151,1,1,0.0
p61excm9v4fu5qgwhzeltajq,12,3,3,24,pd,2,3.0,0.0,2.487,1,1,0.0
p664ko4hnx2kyewaf12h0xhk,1,3,2,45,pd,1,2.0,0.0,3.98,1,1,0.0
p664ko4hnx2kyewaf12h0xhk,2,3,2,30,pd,2,3.0,0.0,4.297,1,1,0.0
p664ko4hnx2kyewaf12h0xhk,3,3,2,55,pd,3,0.0,1.0,6.02,1,1,0.0
p664ko4hnx2kyewaf12h0xhk,4,3,2,29,pd,1,2.0,0.0,4.017,1,1,0.0
p664ko4hnx2kyewaf12h0xhk,5,3,2,64,pd,1,1.0,0.0,5.745,1,1,0.0
p664ko4hnx2kyewaf12h0xhk,6,3,2,35,pd,1,0.0,1.0,4.779,1,1,0.0
p664ko4hnx2kyewaf12h0xhk,7,3,2,24,pd,1,0.0,1.0,5.423,1,1,0.0
p664ko4hnx2kyewaf12h0xhk,8,3,2,17,pd,3,0.0,1.0,5.41,1,1,0.0
p664ko4hnx2kyewaf12h0xhk,9,3,2,58,md,3,0.0,1.0,5.077,1,1,0.0
p664ko4hnx2kyewaf12h0xhk,10,3,2,76,pd,1,1.0,0.0,4.758,1,1,0.0
p664ko4hnx2kyewaf12h0xhk,11,3,2,72,pd,3,0.0,1.0,4.477,1,1,0.0
p664ko4hnx2kyewaf12h0xhk,12,3,2,66,pd,2,3.0,0.0,5.459,1,1,0.0
p839dsw008exmn58z4mesxjn,1,3,1,55,pd,2,0.0,1.0,12.908,1,1,0.0
p839dsw008exmn58z4mesxjn,2,3,1,66,pd,1,0.0,1.0,18.692,1,1,0.0
p839dsw008exmn58z4mesxjn,3,3,1,30,pd,1,0.0,1.0,19.316,1,1,0.0
p839dsw008exmn58z4mesxjn,4,3,1,58,md,2,1.0,0.0,19.108,1,1,0.0
p839dsw008exmn58z4mesxjn,5,3,1,45,pd,3,0.0,1.0,25.732,1,1,0.0
p839dsw008exmn58z4mesxjn,6,3,1,29,pd,3,0.0,1.0,26.341,1,1,0.0
p839dsw008exmn58z4mesxjn,7,3,1,17,pd,2,0.0,1.0,26.212,1,1,0.0
p839dsw008exmn58z4mesxjn,8,3,1,24,pd,3,0.0,1.0,27.427,1,1,0.0
p839dsw008exmn58z4mesxjn,9,3,1,72,pd,2,0.0,1.0,25.18,1,1,0.0
p839dsw008exmn58z4mesxjn,10,3,1,64,pd,3,1.0,0.0,26.995,1,1,0.0
p839dsw008exmn58z4mesxjn,11,3,1,76,pd,3,0.0,1.0,23.117,1,1,0.0
p839dsw008exmn58z4mesxjn,12,3,1,35,pd,3,0.0,1.0,27.556,1,1,0.0
pjvtxsee2o4b6v57h9na9izn,1,3,1,55,pd,2,0.0,1.0,20.205,1,1,0.0
pjvtxsee2o4b6v57h9na9izn,2,3,1,66,pd,1,0.0,1.0,9.954,1,1,0.0
pjvtxsee2o4b6v57h9na9izn,3,3,1,30,pd,1,0.0,1.0,13.32,1,1,0.0
pjvtxsee2o4b6v57h9na9izn,4,3,1,58,md,2,0.0,1.0,19.888,1,1,0.0
pjvtxsee2o4b6v57h9na9izn,5,3,1,45,pd,3,0.0,1.0,14.621,1,1,0.0
pjvtxsee2o4b6v57h9na9izn,6,3,1,29,pd,3,3.0,0.0,16.379,1,1,0.0
pjvtxsee2o4b6v57h9na9izn,7,3,1,17,pd,2,0.0,1.0,14.105,1,1,0.0
pjvtxsee2o4b6v57h9na9izn,8,3,1,24,pd,3,0.0,1.0,13.689,1,1,0.0
pjvtxsee2o4b6v57h9na9izn,9,3,1,72,pd,2,0.0,1.0,14.612,1,1,0.0
pjvtxsee2o4b6v57h9na9izn,10,3,1,64,pd,3,0.0,1.0,16.325,1,1,0.0
pjvtxsee2o4b6v57h9na9izn,11,3,1,76,pd,3,0.0,1.0,12.341,1,1,0.0
pjvtxsee2o4b6v57h9na9izn,12,3,1,35,pd,3,,,,1,1,0.0
pmgtj39vj19t57cb5zmkqheq,1,3,3,45,pd,2,1.0,0.0,3.113,1,1,0.0
pmgtj39vj19t57cb5zmkqheq,2,3,3,55,pd,1,0.0,1.0,3.352,1,1,0.0
pmgtj39vj19t57cb5zmkqheq,3,3,3,30,pd,3,0.0,1.0,5.075,1,1,0.0
pmgtj39vj19t57cb5zmkqheq,4,3,3,58,md,1,3.0,0.0,5.787,1,1,0.0
pmgtj39vj19t57cb5zmkqheq,5,3,3,17,pd,1,2.0,0.0,5.118,1,1,0.0
pmgtj39vj19t57cb5zmkqheq,6,3,3,72,pd,1,2.0,0.0,4.685,1,1,0.0
pmgtj39vj19t57cb5zmkqheq,7,3,3,29,pd,2,2.0,0.0,4.442,1,1,0.0
pmgtj39vj19t57cb5zmkqheq,8,3,3,76,pd,2,2.0,0.0,3.487,1,1,0.0
pmgtj39vj19t57cb5zmkqheq,9,3,3,35,pd,2,2.0,0.0,4.434,1,1,0.0
pmgtj39vj19t57cb5zmkqheq,10,3,3,64,pd,2,2.0,0.0,4.832,1,1,0.0
pmgtj39vj19t57cb5zmkqheq,11,3,3,66,pd,3,0.0,1.0,6.372,1,1,0.0
pmgtj39vj19t57cb5zmkqheq,12,3,3,24,pd,2,1.0,0.0,8.043,1,1,0.0
puvybepqr6nhcroheexfltg7,1,3,2,45,pd,1,2.0,0.0,17.877,1,1,0.0
puvybepqr6nhcroheexfltg7,2,3,2,30,pd,2,0.0,1.0,8.322,1,1,0.0
puvybepqr6nhcroheexfltg7,3,3,2,55,pd,3,1.0,0.0,8.891,1,1,0.0
puvybepqr6nhcroheexfltg7,4,3,2,29,pd,1,1.0,0.0,27.18,1,1,0.0
puvybepqr6nhcroheexfltg7,5,3,2,64,pd,1,1.0,0.0,9.55,1,1,0.0
puvybepqr6nhcroheexfltg7,6,3,2,35,pd,1,0.0,1.0,26.175,1,1,0.0
puvybepqr6nhcroheexfltg7,7,3,2,24,pd,1,,,,1,1,0.0
puvybepqr6nhcroheexfltg7,8,3,2,17,pd,3,2.0,0.0,16.422,1,1,0.0
puvybepqr6nhcroheexfltg7,9,3,2,58,md,3,3.0,0.0,13.229,1,1,0.0
puvybepqr6nhcroheexfltg7,10,3,2,76,pd,1,1.0,0.0,8.246,1,1,0.0
puvybepqr6nhcroheexfltg7,11,3,2,72,pd,3,2.0,0.0,6.953,1,1,0.0
puvybepqr6nhcroheexfltg7,12,3,2,66,pd,2,1.0,0.0,9.006,1,1,0.0
q0otlj40mkejv3a38i0bcdqw,1,3,3,45,pd,2,0.0,1.0,9.272,1,1,0.0
q0otlj40mkejv3a38i0bcdqw,2,3,3,55,pd,1,0.0,1.0,10.17,1,1,0.0
q0otlj40mkejv3a38i0bcdqw,3,3,3,30,pd,3,1.0,0.0,13.921,1,1,0.0
q0otlj40mkejv3a38i0bcdqw,4,3,3,58,md,1,1.0,0.0,2.599,1,1,0.0
q0otlj40mkejv3a38i0bcdqw,5,3,3,17,pd,1,0.0,1.0,6.574,1,1,0.0
q0otlj40mkejv3a38i0bcdqw,6,3,3,72,pd,1,0.0,1.0,4.525,1,1,0.0
q0otlj40mkejv3a38i0bcdqw,7,3,3,29,pd,2,3.0,0.0,3.876,1,1,0.0
q0otlj40mkejv3a38i0bcdqw,8,3,3,76,pd,2,0.0,1.0,3.854,1,1,0.0
q0otlj40mkejv3a38i0bcdqw,9,3,3,35,pd,2,1.0,0.0,1.323,1,1,0.0
q0otlj40mkejv3a38i0bcdqw,10,3,3,64,pd,2,0.0,1.0,2.181,1,1,0.0
q0otlj40mkejv3a38i0bcdqw,11,3,3,66,pd,3,3.0,0.0,3.775,1,1,0.0
q0otlj40mkejv3a38i0bcdqw,12,3,3,24,pd,2,1.0,0.0,11.626,1,1,0.0
qdf2mfp8poxa6dsi27a0za66,1,3,1,55,pd,2,0.0,1.0,16.825,1,1,0.0
qdf2mfp8poxa6dsi27a0za66,2,3,1,66,pd,1,0.0,1.0,9.202,1,1,0.0
qdf2mfp8poxa6dsi27a0za66,3,3,1,30,pd,1,0.0,1.0,17.247,1,1,0.0
qdf2mfp8poxa6dsi27a0za66,4,3,1,58,md,2,0.0,1.0,19.482,1,1,0.0
qdf2mfp8poxa6dsi27a0za66,5,3,1,45,pd,3,0.0,1.0,27.728,1,1,0.0
qdf2mfp8poxa6dsi27a0za66,6,3,1,29,pd,3,3.0,0.0,23.134,1,1,0.0
qdf2mfp8poxa6dsi27a0za66,7,3,1,17,pd,2,1.0,0.0,16.669,1,1,0.0
qdf2mfp8poxa6dsi27a0za66,8,3,1,24,pd,3,0.0,1.0,18.911,1,1,0.0
qdf2mfp8poxa6dsi27a0za66,9,3,1,72,pd,2,0.0,1.0,6.76,1,1,0.0
qdf2mfp8poxa6dsi27a0za66,10,3,1,64,pd,3,1.0,0.0,4.616,1,1,0.0
qdf2mfp8poxa6dsi27a0za66,11,3,1,76,pd,3,2.0,0.0,12.744,1,1,0.0
qdf2mfp8poxa6dsi27a0za66,12,3,1,35,pd,3,0.0,1.0,14.909,1,1,0.0
r93yrn75ehiob4n560tt02k0,1,3,3,45,pd,2,0.0,1.0,25.37,1,1,0.0
r93yrn75ehiob4n560tt02k0,2,3,3,55,pd,1,0.0,1.0,16.042,1,1,0.0
r93yrn75ehiob4n560tt02k0,3,3,3,30,pd,3,0.0,1.0,15.087,1,1,0.0
r93yrn75ehiob4n560tt02k0,4,3,3,58,md,1,0.0,1.0,25.423,1,1,0.0
r93yrn75ehiob4n560tt02k0,5,3,3,17,pd,1,1.0,0.0,28.595,1,1,0.0
r93yrn75ehiob4n560tt02k0,6,3,3,72,pd,1,2.0,0.0,28.279,1,1,0.0
r93yrn75ehiob4n560tt02k0,7,3,3,29,pd,2,0.0,1.0,28.249,1,1,0.0
r93yrn75ehiob4n560tt02k0,8,3,3,76,pd,2,0.0,1.0,22.713,1,1,0.0
r93yrn75ehiob4n560tt02k0,9,3,3,35,pd,2,0.0,1.0,25.291,1,1,0.0
r93yrn75ehiob4n560tt02k0,10,3,3,64,pd,2,0.0,1.0,28.925,1,1,0.0
r93yrn75ehiob4n560tt02k0,11,3,3,66,pd,3,0.0,1.0,23.029,1,1,0.0
r93yrn75ehiob4n560tt02k0,12,3,3,24,pd,2,0.0,1.0,20.631,1,1,0.0
rcf9k7ge09nlmts9sw2djs74,1,3,1,55,pd,2,3.0,0.0,11.128,1,1,0.0
rcf9k7ge09nlmts9sw2djs74,2,3,1,66,pd,1,0.0,1.0,8.686,1,1,0.0
rcf9k7ge09nlmts9sw2djs74,3,3,1,30,pd,1,0.0,1.0,12.912,1,1,0.0
rcf9k7ge09nlmts9sw2djs74,4,3,1,58,md,2,1.0,0.0,20.778,1,1,0.0
rcf9k7ge09nlmts9sw2djs74,5,3,1,45,pd,3,0.0,1.0,14.73,1,1,0.0
rcf9k7ge09nlmts9sw2djs74,6,3,1,29,pd,3,3.0,0.0,24.736,1,1,0.0
rcf9k7ge09nlmts9sw2djs74,7,3,1,17,pd,2,1.0,0.0,27.274,1,1,0.0
rcf9k7ge09nlmts9sw2djs74,8,3,1,24,pd,3,0.0,1.0,13.593,1,1,0.0
rcf9k7ge09nlmts9sw2djs74,9,3,1,72,pd,2,0.0,1.0,16.181,1,1,0.0
rcf9k7ge09nlmts9sw2djs74,10,3,1,64,pd,3,0.0,1.0,20.812,1,1,0.0
rcf9k7ge09nlmts9sw2djs74,11,3,1,76,pd,3,3.0,0.0,21.79,1,1,0.0
rcf9k7ge09nlmts9sw2djs74,12,3,1,35,pd,3,1.0,0.0,28.982,1,1,0.0
rd7soemfcikeomb8jogp0hye,1,3,2,45,pd,1,0.0,1.0,14.819,1,1,0.0
rd7soemfcikeomb8jogp0hye,2,3,2,30,pd,2,0.0,1.0,9.725,1,1,0.0
rd7soemfcikeomb8jogp0hye,3,3,2,55,pd,3,0.0,1.0,7.514,1,1,0.0
rd7soemfcikeomb8jogp0hye,4,3,2,29,pd,1,0.0,1.0,7.043,1,1,0.0
rd7soemfcikeomb8jogp0hye,5,3,2,64,pd,1,0.0,1.0,11.773,1,1,0.0
rd7soemfcikeomb8jogp0hye,6,3,2,35,pd,1,0.0,1.0,10.036,1,1,0.0
rd7soemfcikeomb8jogp0hye,7,3,2,24,pd,1,0.0,1.0,10.138,1,1,0.0
rd7soemfcikeomb8jogp0hye,8,3,2,17,pd,3,3.0,0.0,14.859,1,1,0.0
rd7soemfcikeomb8jogp0hye,9,3,2,58,md,3,0.0,1.0,12.722,1,1,0.0
rd7soemfcikeomb8jogp0hye,10,3,2,76,pd,1,3.0,0.0,14.962,1,1,0.0
rd7soemfcikeomb8jogp0hye,11,3,2,72,pd,3,2.0,0.0,16.028,1,1,0.0
rd7soemfcikeomb8jogp0hye,12,3,2,66,pd,2,2.0,0.0,13.197,1,1,0.0
rkli3iolzfwbybhroh8mw008,1,3,1,55,pd,2,2.0,0.0,18.574,1,1,0.0
rkli3iolzfwbybhroh8mw008,2,3,1,66,pd,1,1.0,0.0,26.935,1,1,0.0
rkli3iolzfwbybhroh8mw008,3,3,1,30,pd,1,0.0,1.0,22.116,1,1,0.0
rkli3iolzfwbybhroh8mw008,4,3,1,58,md,2,2.0,0.0,8.699,1,1,0.0
rkli3iolzfwbybhroh8mw008,5,3,1,45,pd,3,0.0,1.0,25.685,1,1,0.0
rkli3iolzfwbybhroh8mw008,6,3,1,29,pd,3,3.0,0.0,21.773,1,1,0.0
rkli3iolzfwbybhroh8mw008,7,3,1,17,pd,2,1.0,0.0,20.364,1,1,0.0
rkli3iolzfwbybhroh8mw008,8,3,1,24,pd,3,1.0,0.0,10.32,1,1,0.0
rkli3iolzfwbybhroh8mw008,9,3,1,72,pd,2,0.0,1.0,2.497,1,1,0.0
rkli3iolzfwbybhroh8mw008,10,3,1,64,pd,3,1.0,0.0,2.126,1,1,0.0
rkli3iolzfwbybhroh8mw008,11,3,1,76,pd,3,0.0,1.0,9.674,1,1,0.0
