subject,trial,item_set,item,distractor,shape_set,choice,accuracy,rt,all_loaded,minimum_resolution,browser_interactions
06ou7ksixe715ntgqusjzfip,1,3,71,pd,2,2.0,0.0,14.06,1,1,0.0
06ou7ksixe715ntgqusjzfip,2,3,55,pd,3,0.0,1.0,18.586,1,1,0.0
06ou7ksixe715ntgqusjzfip,3,3,30,pd,1,0.0,1.0,21.19,1,1,0.0
06ou7ksixe715ntgqusjzfip,4,3,45,pd,2,,,,1,1,0.0
06ou7ksixe715ntgqusjzfip,5,3,11,pd,3,0.0,1.0,12.337,1,1,0.0
06ou7ksixe715ntgqusjzfip,6,3,29,pd,1,3.0,0.0,11.326,1,1,0.0
06ou7ksixe715ntgqusjzfip,7,3,16,md,2,1.0,0.0,12.383,1,1,0.0
06ou7ksixe715ntgqusjzfip,8,3,17,pd,3,1.0,0.0,15.722,1,1,0.0
06ou7ksixe715ntgqusjzfip,9,3,23,md,1,0.0,1.0,13.225,1,1,0.0
06ou7ksixe715ntgqusjzfip,10,3,58,md,2,3.0,0.0,8.221,1,1,0.0
06ou7ksixe715ntgqusjzfip,11,3,35,pd,3,0.0,1.0,17.427,1,1,0.0
06ou7ksixe715ntgqusjzfip,12,3,76,pd,1,0.0,1.0,12.729,1,1,0.0
0b408y6ddb6n2hktu87ws0vf,1,3,71,pd,3,0.0,1.0,7.261,1,1,0.0
0b408y6ddb6n2hktu87ws0vf,2,3,55,pd,1,0.0,1.0,16.06,1,1,0.0
0b408y6ddb6n2hktu87ws0vf,3,3,30,pd,2,2.0,0.0,24.861,1,1,0.0
0b408y6ddb6n2hktu87ws0vf,4,3,45,pd,3,0.0,1.0,14.109,1,1,0.0
0b408y6ddb6n2hktu87ws0vf,5,3,11,pd,1,3.0,0.0,10.988,1,1,0.0
0b408y6ddb6n2hktu87ws0vf,6,3,29,pd,2,3.0,0.0,19.25,1,1,0.0
0b408y6ddb6n2hktu87ws0vf,7,3,16,md,3,0.0,1.0,18.381,1,1,0.0
0b408y6ddb6n2hktu87ws0vf,8,3,17,pd,1,0.0,1.0,28.716,1,1,0.0
0b408y6ddb6n2hktu87ws0vf,9,3,23,md,2,2.0,0.0,9.811,1,1,0.0
0b408y6ddb6n2hktu87ws0vf,10,3,58,md,3,3.0,0.0,12.66,1,1,0.0
0b408y6ddb6n2hktu87ws0vf,11,3,35,pd,1,2.0,0.0,15.124,1,1,0.0
0b408y6ddb6n2hktu87ws0vf,12,3,76,pd,2,0.0,1.0,15.964,1,1,0.0
0fn46b0vpigmdhpkswfb0mye,1,3,71,pd,2,0.0,1.0,9.253,1,1,0.0
0fn46b0vpigmdhpkswfb0mye,2,3,55,pd,3,0.0,1.0,26.348,1,1,0.0
0fn46b0vpigmdhpkswfb0mye,3,3,30,pd,1,0.0,1.0,16.907,1,1,0.0
0fn46b0vpigmdhpkswfb0mye,4,3,45,pd,2,0.0,1.0,29.213,1,1,0.0
0fn46b0vpigmdhpkswfb0mye,5,3,11,pd,3,0.0,1.0,22.556,1,1,0.0
0fn46b0vpigmdhpkswfb0mye,6,3,29,pd,1,0.0,1.0,26.804,1,1,0.0
0fn46b0vpigmdhpkswfb0mye,7,3,16,md,2,0.0,1.0,20.492,1,1,0.0
0fn46b0vpigmdhpkswfb0mye,8,3,17,pd,3,0.0,1.0,23.708,1,1,0.0
0fn46b0vpigmdhpkswfb0mye,9,3,23,md,1,0.0,1.0,17.06,1,1,0.0
0fn46b0vpigmdhpkswfb0mye,10,3,58,md,2,0.0,1.0,20.524,1,1,0.0
0fn46b0vpigmdhpkswfb0mye,11,3,35,pd,3,1.0,0.0,29.429,1,1,0.0
0fn46b0vpigmdhpkswfb0mye,12,3,76,pd,1,0.0,1.0,26.508,1,1,0.0
0hl5k6dw9a2hun024rqfhkg0,1,3,71,pd,2,2.0,0.0,4.393,1,1,0.0
0hl5k6dw9a2hun024rqfhkg0,2,3,55,pd,3,0.0,1.0,10.618,1,1,0.0
0hl5k6dw9a2hun024rqfhkg0,3,3,30,pd,1,3.0,0.0,17.315,1,1,0.0
0hl5k6dw9a2hun024rqfhkg0,4,3,45,pd,2,0.0,1.0,12.534,1,1,0.0
0hl5k6dw9a2hun024rqfhkg0,5,3,11,pd,3,0.0,1.0,9.114,1,1,0.0
0hl5k6dw9a2hun024rqfhkg0,6,3,29,pd,1,0.0,1.0,11.485,1,1,0.0
0hl5k6dw9a2hun024rqfhkg0,7,3,16,md,2,1.0,0.0,7.976,1,1,0.0
0hl5k6dw9a2hun024rqfhkg0,8,3,17,pd,3,1.0,0.0,26.893,1,1,0.0
0hl5k6dw9a2hun024rqfhkg0,9,3,23,md,1,0.0,1.0,8.654,1,1,0.0
0hl5k6dw9a2hun024rqfhkg0,10,3,58,md,2,0.0,1.0,6.131,1,1,0.0
0hl5k6dw9a2hun024rqfhkg0,11,3,35,pd,3,,,,1,1,0.0
0hl5k6dw9a2hun024rqfhkg0,12,3,76,pd,1,3.0,0.0,14.679,1,1,0.0
0m0dkmh3y3hksejvcy3w0f3v,1,3,71,pd,2,0.0,1.0,15.539,1,1,0.0
0m0dkmh3y3hksejvcy3w0f3v,2,3,55,pd,3,3.0,0.0,29.832,1,1,0.0
0m0dkmh3y3hksejvcy3w0f3v,3,3,30,pd,1,0.0,1.0,29.853,1,1,0.0
0m0dkmh3y3hksejvcy3w0f3v,4,3,45,pd,2,0.0,1.0,21.998,1,1,0.0
0m0dkmh3y3hksejvcy3w0f3v,5,3,11,pd,3,0.0,1.0,29.945,1,1,0.0
0m0dkmh3y3hksejvcy3w0f3v,6,3,29,pd,1,0.0,1.0,20.233,1,1,0.0
0m0dkmh3y3hksejvcy3w0f3v,7,3,16,md,2,,,,1,1,0.0
0m0dkmh3y3hksejvcy3w0f3v,8,3,17,pd,3,1.0,0.0,29.828,1,1,0.0
0m0dkmh3y3hksejvcy3w0f3v,9,3,23,md,1,0.0,1.0,20.362,1,1,0.0
0m0dkmh3y3hksejvcy3w0f3v,10,3,58,md,2,0.0,1.0,17.162,1,1,0.0
0m0dkmh3y3hksejvcy3w0f3v,11,3,35,pd,3,1.0,0.0,29.828,1,1,0.0
0m0dkmh3y3hksejvcy3w0f3v,12,3,76,pd,1,0.0,1.0,27.859,1,1,0.0
0ooro3jk4ibd1vfcxixjsuwo,1,3,71,pd,1,0.0,1.0,8.968,1,1,0.0
0ooro3jk4ibd1vfcxixjsuwo,2,3,55,pd,2,0.0,1.0,9.115,1,1,0.0
0ooro3jk4ibd1vfcxixjsuwo,3,3,30,pd,3,0.0,1.0,12.433,1,1,0.0
0ooro3jk4ibd1vfcxixjsuwo,4,3,45,pd,1,0.0,1.0,9.524,1,1,0.0
0ooro3jk4ibd1vfcxixjsuwo,5,3,11,pd,2,0.0,1.0,11.05,1,1,0.0
0ooro3jk4ibd1vfcxixjsuwo,6,3,29,pd,3,0.0,1.0,8.199,1,1,0.0
0ooro3jk4ibd1vfcxixjsuwo,7,3,16,md,1,0.0,1.0,10.289,1,1,0.0
0ooro3jk4ibd1vfcxixjsuwo,8,3,17,pd,2,2.0,0.0,12.687,1,1,0.0
0ooro3jk4ibd1vfcxixjsuwo,9,3,23,md,3,0.0,1.0,14.29,1,1,0.0
0ooro3jk4ibd1vfcxixjsuwo,10,3,58,md,1,0.0,1.0,12.617,1,1,0.0
0ooro3jk4ibd1vfcxixjsuwo,11,3,35,pd,2,3.0,0.0,17.462,1,1,0.0
0ooro3jk4ibd1vfcxixjsuwo,12,3,76,pd,3,3.0,0.0,15.041,1,1,0.0
0q10tq8kaq3aegf7c03e4s9t,1,3,71,pd,2,0.0,1.0,13.758,1,1,0.0
0q10tq8kaq3aegf7c03e4s9t,2,3,55,pd,3,0.0,1.0,27.983,1,1,0.0
0q10tq8kaq3aegf7c03e4s9t,3,3,30,pd,1,0.0,1.0,23.136,1,1,0.0
0q10tq8kaq3aegf7c03e4s9t,4,3,45,pd,2,0.0,1.0,16.504,1,1,0.0
0q10tq8kaq3aegf7c03e4s9t,5,3,11,pd,3,0.0,1.0,16.037,1,1,0.0
0q10tq8kaq3aegf7c03e4s9t,6,3,29,pd,1,0.0,1.0,16.445,1,1,0.0
0q10tq8kaq3aegf7c03e4s9t,7,3,16,md,2,0.0,1.0,14.908,1,1,0.0
0q10tq8kaq3aegf7c03e4s9t,8,3,17,pd,3,1.0,0.0,27.77,1,1,0.0
0q10tq8kaq3aegf7c03e4s9t,9,3,23,md,1,0.0,1.0,14.234,1,1,0.0
0q10tq8kaq3aegf7c03e4s9t,10,3,58,md,2,0.0,1.0,24.765,1,1,0.0
0q10tq8kaq3aegf7c03e4s9t,11,3,35,pd,3,0.0,1.0,18.418,1,1,0.0
0q10tq8kaq3aegf7c03e4s9t,12,3,76,pd,1,0.0,1.0,27.981,1,1,0.0
0r0rukhznftdhj8ks4dd3eps,1,3,71,pd,1,0.0,1.0,8.457,1,1,0.0
0r0rukhznftdhj8ks4dd3eps,2,3,55,pd,2,0.0,1.0,7.866,1,1,0.0
0r0rukhznftdhj8ks4dd3eps,3,3,30,pd,3,3.0,0.0,12.762,1,1,0.0
0r0rukhznftdhj8ks4dd3eps,4,3,45,pd,1,3.0,0.0,29.799,1,1,0.0
0r0rukhznftdhj8ks4dd3eps,5,3,11,pd,2,2.0,0.0,21.412,1,1,0.0
0r0rukhznftdhj8ks4dd3eps,6,3,29,pd,3,3.0,0.0,16.774,1,1,0.0
0r0rukhznftdhj8ks4dd3eps,7,3,16,md,1,3.0,0.0,19.457,1,1,0.0
0r0rukhznftdhj8ks4dd3eps,8,3,17,pd,2,0.0,1.0,14.181,1,1,0.0
0r0rukhznftdhj8ks4dd3eps,9,3,23,md,3,0.0,1.0,13.561,1,1,0.0
0r0rukhznftdhj8ks4dd3eps,10,3,58,md,1,1.0,0.0,20.855,1,1,0.0
0r0rukhznftdhj8ks4dd3eps,11,3,35,pd,2,3.0,0.0,15.864,1,1,0.0
0r0rukhznftdhj8ks4dd3eps,12,3,76,pd,3,0.0,1.0,12.234,1,1,0.0
0t5mn64j5jt6u4we3vt8erqk,1,3,71,pd,2,2.0,0.0,3.838,1,1,0.0
0t5mn64j5jt6u4we3vt8erqk,2,3,55,pd,3,0.0,1.0,21.411,1,1,0.0
0t5mn64j5jt6u4we3vt8erqk,3,3,30,pd,1,3.0,0.0,16.296,1,1,0.0
0t5mn64j5jt6u4we3vt8erqk,4,3,45,pd,2,0.0,1.0,8.887,1,1,0.0
0t5mn64j5jt6u4we3vt8erqk,5,3,11,pd,3,3.0,0.0,11.392,1,1,0.0
0t5mn64j5jt6u4we3vt8erqk,6,3,29,pd,1,0.0,1.0,20.943,1,1,0.0
0t5mn64j5jt6u4we3vt8erqk,7,3,16,md,2,0.0,1.0,13.231,1,1,0.0
0t5mn64j5jt6u4we3vt8erqk,8,3,17,pd,3,0.0,1.0,28.815,1,1,0.0
0t5mn64j5jt6u4we3vt8erqk,9,3,23,md,1,0.0,1.0,17.496,1,1,0.0
0t5mn64j5jt6u4we3vt8erqk,10,3,58,md,2,0.0,1.0,23.278,1,1,0.0
0t5mn64j5jt6u4we3vt8erqk,11,3,35,pd,3,0.0,1.0,27.736,1,1,0.0
0t5mn64j5jt6u4we3vt8erqk,12,3,76,pd,1,2.0,0.0,25.904,1,1,0.0
15ebams12i453mvmckqt1eyi,1,3,71,pd,3,0.0,1.0,17.752,1,1,0.0
15ebams12i453mvmckqt1eyi,2,3,55,pd,2,0.0,1.0,9.27,1,1,0.0
15ebams12i453mvmckqt1eyi,3,3,30,pd,1,0.0,1.0,24.486,1,1,0.0
15ebams12i453mvmckqt1eyi,4,3,45,pd,3,0.0,1.0,18.277,1,1,0.0
15ebams12i453mvmckqt1eyi,5,3,11,pd,2,3.0,0.0,27.942,1,1,0.0
15ebams12i453mvmckqt1eyi,6,3,29,pd,1,0.0,1.0,15.707,1,1,0.0
15ebams12i453mvmckqt1eyi,7,3,16,md,3,0.0,1.0,19.841,1,1,0.0
15ebams12i453mvmckqt1eyi,8,3,17,pd,2,1.0,0.0,25.49,1,1,0.0
15ebams12i453mvmckqt1eyi,9,3,23,md,1,0.0,1.0,11.891,1,1,0.0
15ebams12i453mvmckqt1eyi,10,3,58,md,3,0.0,1.0,25.824,1,1,0.0
15ebams12i453mvmckqt1eyi,11,3,35,pd,2,0.0,1.0,26.99,1,1,0.0
15ebams12i453mvmckqt1eyi,12,3,76,pd,1,2.0,0.0,20.658,1,1,0.0
19znotmovxga3imxfnglha5a,1,3,71,pd,2,0.0,1.0,8.906,1,1,0.0
19znotmovxga3imxfnglha5a,2,3,55,pd,3,0.0,1.0,21.641,1,1,0.0
19znotmovxga3imxfnglha5a,3,3,30,pd,1,0.0,1.0,28.075,1,1,0.0
19znotmovxga3imxfnglha5a,4,3,45,pd,2,0.0,1.0,24.221,1,1,0.0
19znotmovxga3imxfnglha5a,5,3,11,pd,3,3.0,0.0,19.927,1,1,0.0
19znotmovxga3imxfnglha5a,6,3,29,pd,1,1.0,0.0,9.814,1,1,0.0
19znotmovxga3imxfnglha5a,7,3,16,md,2,0.0,1.0,27.305,1,1,0.0
19znotmovxga3imxfnglha5a,8,3,17,pd,3,1.0,0.0,9.349,1,1,0.0
19znotmovxga3imxfnglha5a,9,3,23,md,1,0.0,1.0,11.264,1,1,0.0
19znotmovxga3imxfnglha5a,10,3,58,md,2,0.0,1.0,28.227,1,1,0.0
19znotmovxga3imxfnglha5a,11,3,35,pd,3,3.0,0.0,14.102,1,1,0.0
19znotmovxga3imxfnglha5a,12,3,76,pd,1,1.0,0.0,16.768,1,1,0.0
1fihrb5xisi1xwdd759hy0ag,1,3,71,pd,2,2.0,0.0,6.123,1,1,0.0
1fihrb5xisi1xwdd759hy0ag,2,3,55,pd,3,0.0,1.0,12.169,1,1,0.0
1fihrb5xisi1xwdd759hy0ag,3,3,30,pd,1,0.0,1.0,12.262,1,1,0.0
1fihrb5xisi1xwdd759hy0ag,4,3,45,pd,2,0.0,1.0,8.959,1,1,0.0
1fihrb5xisi1xwdd759hy0ag,5,3,11,pd,3,0.0,1.0,14.377,1,1,0.0
1fihrb5xisi1xwdd759hy0ag,6,3,29,pd,1,0.0,1.0,11.128,1,1,0.0
1fihrb5xisi1xwdd759hy0ag,7,3,16,md,2,0.0,1.0,10.55,1,1,0.0
1fihrb5xisi1xwdd759hy0ag,8,3,17,pd,3,1.0,0.0,15.359,1,1,0.0
1fihrb5xisi1xwdd759hy0ag,9,3,23,md,1,0.0,1.0,13.493,1,1,0.0
1fihrb5xisi1xwdd759hy0ag,10,3,58,md,2,0.0,1.0,12.038,1,1,0.0
1fihrb5xisi1xwdd759hy0ag,11,3,35,pd,3,1.0,0.0,18.506,1,1,0.0
1fihrb5xisi1xwdd759hy0ag,12,3,76,pd,1,2.0,0.0,13.398,1,1,0.0
1h6c4xc876vyp61ouzu9r3tr,1,3,71,pd,3,0.0,1.0,5.906,1,1,0.0
1h6c4xc876vyp61ouzu9r3tr,2,3,55,pd,2,1.0,0.0,8.778,1,1,0.0
1h6c4xc876vyp61ouzu9r3tr,3,3,30,pd,1,0.0,1.0,11.104,1,1,0.0
1h6c4xc876vyp61ouzu9r3tr,4,3,45,pd,3,1.0,0.0,6.427,1,1,0.0
1h6c4xc876vyp61ouzu9r3tr,5,3,11,pd,2,0.0,1.0,15.016,1,1,0.0
1h6c4xc876vyp61ouzu9r3tr,6,3,29,pd,1,0.0,1.0,8.204,1,1,0.0
1h6c4xc876vyp61ouzu9r3tr,7,3,16,md,3,0.0,1.0,6.537,1,1,0.0
1h6c4xc876vyp61ouzu9r3tr,8,3,17,pd,2,1.0,0.0,13.557,1,1,0.0
1h6c4xc876vyp61ouzu9r3tr,9,3,23,md,1,0.0,1.0,9.212,1,1,0.0
1h6c4xc876vyp61ouzu9r3tr,10,3,58,md,3,0.0,1.0,12.023,1,1,0.0
1h6c4xc876vyp61ouzu9r3tr,11,3,35,pd,2,0.0,1.0,22.714,1,1,0.0
1h6c4xc876vyp61ouzu9r3tr,12,3,76,pd,1,0.0,1.0,8.831,1,1,0.0
1jkg3rwcf7jcysg0v2f7z9tv,1,3,71,pd,2,2.0,0.0,5.546,1,1,0.0
1jkg3rwcf7jcysg0v2f7z9tv,2,3,55,pd,3,0.0,1.0,13.433,1,1,0.0
1jkg3rwcf7jcysg0v2f7z9tv,3,3,30,pd,1,0.0,1.0,10.945,1,1,0.0
1jkg3rwcf7jcysg0v2f7z9tv,4,3,45,pd,2,0.0,1.0,17.819,1,1,0.0
1jkg3rwcf7jcysg0v2f7z9tv,5,3,11,pd,3,0.0,1.0,20.604,1,1,0.0
1jkg3rwcf7jcysg0v2f7z9tv,6,3,29,pd,1,0.0,1.0,7.827,1,1,0.0
1jkg3rwcf7jcysg0v2f7z9tv,7,3,16,md,2,0.0,1.0,7.762,1,1,0.0
1jkg3rwcf7jcysg0v2f7z9tv,8,3,17,pd,3,1.0,0.0,23.458,1,1,0.0
1jkg3rwcf7jcysg0v2f7z9tv,9,3,23,md,1,0.0,1.0,8.504,1,1,0.0
1jkg3rwcf7jcysg0v2f7z9tv,10,3,58,md,2,1.0,0.0,12.056,1,1,0.0
1jkg3rwcf7jcysg0v2f7z9tv,11,3,35,pd,3,2.0,0.0,10.379,1,1,0.0
1jkg3rwcf7jcysg0v2f7z9tv,12,3,76,pd,1,0.0,1.0,6.102,1,1,0.0
1qmmrnwno1bmdgx8gq83nk8d,1,3,71,pd,2,2.0,0.0,3.283,1,1,0.0
1qmmrnwno1bmdgx8gq83nk8d,2,3,55,pd,3,1.0,0.0,10.78,1,1,0.0
1qmmrnwno1bmdgx8gq83nk8d,3,3,30,pd,1,3.0,0.0,8.875,1,1,0.0
1qmmrnwno1bmdgx8gq83nk8d,4,3,45,pd,2,0.0,1.0,9.355,1,1,0.0
1qmmrnwno1bmdgx8gq83nk8d,5,3,11,pd,3,3.0,0.0,10.802,1,1,0.0
1qmmrnwno1bmdgx8gq83nk8d,6,3,29,pd,1,0.0,1.0,8.939,1,1,0.0
1qmmrnwno1bmdgx8gq83nk8d,7,3,16,md,2,0.0,1.0,10.163,1,1,0.0
1qmmrnwno1bmdgx8gq83nk8d,8,3,17,pd,3,1.0,0.0,12.691,1,1,0.0
1qmmrnwno1bmdgx8gq83nk8d,9,3,23,md,1,0.0,1.0,9.115,1,1,0.0
1qmmrnwno1bmdgx8gq83nk8d,10,3,58,md,2,3.0,0.0,8.884,1,1,0.0
1qmmrnwno1bmdgx8gq83nk8d,11,3,35,pd,3,1.0,0.0,7.524,1,1,0.0
1qmmrnwno1bmdgx8gq83nk8d,12,3,76,pd,1,2.0,0.0,7.259,1,1,0.0
1w1qpgfcqf66b3m2typs0yhk,1,3,71,pd,3,2.0,0.0,7.262,1,1,0.0
1w1qpgfcqf66b3m2typs0yhk,2,3,55,pd,1,,,,1,1,0.0
1w1qpgfcqf66b3m2typs0yhk,3,3,30,pd,2,0.0,1.0,10.068,1,1,0.0
1w1qpgfcqf66b3m2typs0yhk,4,3,45,pd,3,0.0,1.0,11.7,1,1,0.0
1w1qpgfcqf66b3m2typs0yhk,5,3,11,pd,1,0.0,1.0,15.372,1,1,0.0
1w1qpgfcqf66b3m2typs0yhk,6,3,29,pd,2,0.0,1.0,15.902,1,1,0.0
1w1qpgfcqf66b3m2typs0yhk,7,3,16,md,3,0.0,1.0,14.433,1,1,0.0
1w1qpgfcqf66b3m2typs0yhk,8,3,17,pd,1,0.0,1.0,9.306,1,1,0.0
1w1qpgfcqf66b3m2typs0yhk,9,3,23,md,2,3.0,0.0,14.025,1,1,0.0
1w1qpgfcqf66b3m2typs0yhk,10,3,58,md,3,1.0,0.0,12.37,1,1,0.0
1w1qpgfcqf66b3m2typs0yhk,11,3,35,pd,1,0.0,1.0,10.966,1,1,0.0
1w1qpgfcqf66b3m2typs0yhk,12,3,76,pd,2,3.0,0.0,8.405,1,1,0.0
1w2vilb174glntt8zdn5z5d5,1,3,71,pd,2,0.0,1.0,4.008,1,1,0.0
1w2vilb174glntt8zdn5z5d5,2,3,55,pd,3,0.0,1.0,9.396,1,1,0.0
1w2vilb174glntt8zdn5z5d5,3,3,30,pd,1,0.0,1.0,5.446,1,1,0.0
1w2vilb174glntt8zdn5z5d5,4,3,45,pd,2,3.0,0.0,13.0,1,1,0.0
1w2vilb174glntt8zdn5z5d5,5,3,11,pd,3,0.0,1.0,6.696,1,1,0.0
1w2vilb174glntt8zdn5z5d5,6,3,29,pd,1,3.0,0.0,6.538,1,1,0.0
1w2vilb174glntt8zdn5z5d5,7,3,16,md,2,3.0,0.0,7.497,1,1,0.0
1w2vilb174glntt8zdn5z5d5,8,3,17,pd,3,0.0,1.0,7.831,1,1,0.0
1w2vilb174glntt8zdn5z5d5,9,3,23,md,1,1.0,0.0,4.156,1,1,0.0
1w2vilb174glntt8zdn5z5d5,10,3,58,md,2,0.0,1.0,6.706,1,1,0.0
1w2vilb174glntt8zdn5z5d5,11,3,35,pd,3,1.0,0.0,12.006,1,1,0.0
1w2vilb174glntt8zdn5z5d5,12,3,76,pd,1,3.0,0.0,5.498,1,1,0.0
1w9jafc0r0qvfyr9ahl2wmmt,1,3,71,pd,1,0.0,1.0,7.557,1,1,0.0
1w9jafc0r0qvfyr9ahl2wmmt,2,3,55,pd,2,0.0,1.0,18.276,1,1,0.0
1w9jafc0r0qvfyr9ahl2wmmt,3,3,30,pd,3,0.0,1.0,12.403,1,1,0.0
1w9jafc0r0qvfyr9ahl2wmmt,4,3,45,pd,1,0.0,1.0,13.103,1,1,0.0
1w9jafc0r0qvfyr9ahl2wmmt,5,3,11,pd,2,0.0,1.0,21.225,1,1,0.0
1w9jafc0r0qvfyr9ahl2wmmt,6,3,29,pd,3,0.0,1.0,11.525,1,1,0.0
1w9jafc0r0qvfyr9ahl2wmmt,7,3,16,md,1,0.0,1.0,7.197,1,1,0.0
1w9jafc0r0qvfyr9ahl2wmmt,8,3,17,pd,2,2.0,0.0,28.512,1,1,0.0
1w9jafc0r0qvfyr9ahl2wmmt,9,3,23,md,3,3.0,0.0,19.251,1,1,0.0
1w9jafc0r0qvfyr9ahl2wmmt,10,3,58,md,1,1.0,0.0,12.962,1,1,0.0
1w9jafc0r0qvfyr9ahl2wmmt,11,3,35,pd,2,0.0,1.0,20.146,1,1,0.0
1w9jafc0r0qvfyr9ahl2wmmt,12,3,76,pd,3,3.0,0.0,29.848,1,1,0.0
1z9tl0tgp1u1hd7qxdu4ugfw,1,3,71,pd,2,0.0,1.0,8.043,1,1,0.0
1z9tl0tgp1u1hd7qxdu4ugfw,2,3,55,pd,3,0.0,1.0,12.943,1,1,0.0
1z9tl0tgp1u1hd7qxdu4ugfw,3,3,30,pd,1,0.0,1.0,13.879,1,1,0.0
1z9tl0tgp1u1hd7qxdu4ugfw,4,3,45,pd,2,0.0,1.0,17.295,1,1,0.0
1z9tl0tgp1u1hd7qxdu4ugfw,5,3,11,pd,3,0.0,1.0,13.87,1,1,0.0
1z9tl0tgp1u1hd7qxdu4ugfw,6,3,29,pd,1,0.0,1.0,9.717,1,1,0.0
1z9tl0tgp1u1hd7qxdu4ugfw,7,3,16,md,2,0.0,1.0,10.523,1,1,0.0
1z9tl0tgp1u1hd7qxdu4ugfw,8,3,17,pd,3,0.0,1.0,29.649,1,1,0.0
1z9tl0tgp1u1hd7qxdu4ugfw,9,3,23,md,1,0.0,1.0,13.0,1,1,0.0
1z9tl0tgp1u1hd7qxdu4ugfw,10,3,58,md,2,0.0,1.0,12.984,1,1,0.0
1z9tl0tgp1u1hd7qxdu4ugfw,11,3,35,pd,3,0.0,1.0,19.977,1,1,0.0
1z9tl0tgp1u1hd7qxdu4ugfw,12,3,76,pd,1,0.0,1.0,10.352,1,1,0.0
28lrxegugl5cjmbl038832yt,1,3,71,pd,2,0.0,1.0,2.445,1,1,0.0
28lrxegugl5cjmbl038832yt,2,3,55,pd,3,0.0,1.0,6.472,1,1,0.0
28lrxegugl5cjmbl038832yt,3,3,30,pd,1,0.0,1.0,6.118,1,1,0.0
28lrxegugl5cjmbl038832yt,4,3,45,pd,2,0.0,1.0,12.894,1,1,0.0
28lrxegugl5cjmbl038832yt,5,3,11,pd,3,1.0,0.0,10.319,1,1,0.0
28lrxegugl5cjmbl038832yt,6,3,29,pd,1,0.0,1.0,7.214,1,1,0.0
28lrxegugl5cjmbl038832yt,7,3,16,md,2,0.0,1.0,9.961,1,1,0.0
28lrxegugl5cjmbl038832yt,8,3,17,pd,3,1.0,0.0,15.816,1,1,0.0
28lrxegugl5cjmbl038832yt,9,3,23,md,1,3.0,0.0,12.054,1,1,0.0
28lrxegugl5cjmbl038832yt,10,3,58,md,2,3.0,0.0,5.006,1,1,0.0
28lrxegugl5cjmbl038832yt,11,3,35,pd,3,0.0,1.0,6.601,1,1,0.0
28lrxegugl5cjmbl038832yt,12,3,76,pd,1,0.0,1.0,9.833,1,1,0.0
2aitaeog6msxzfiw4c7n7us8,1,3,71,pd,2,0.0,1.0,11.384,1,1,0.0
2aitaeog6msxzfiw4c7n7us8,2,3,55,pd,3,0.0,1.0,10.119,1,1,0.0
2aitaeog6msxzfiw4c7n7us8,3,3,30,pd,1,3.0,0.0,9.238,1,1,0.0
2aitaeog6msxzfiw4c7n7us8,4,3,45,pd,2,0.0,1.0,8.99,1,1,0.0
2aitaeog6msxzfiw4c7n7us8,5,3,11,pd,3,3.0,0.0,8.884,1,1,0.0
2aitaeog6msxzfiw4c7n7us8,6,3,29,pd,1,0.0,1.0,14.632,1,1,0.0
2aitaeog6msxzfiw4c7n7us8,7,3,16,md,2,1.0,0.0,8.392,1,1,0.0
2aitaeog6msxzfiw4c7n7us8,8,3,17,pd,3,0.0,1.0,28.019,1,1,0.0
2aitaeog6msxzfiw4c7n7us8,9,3,23,md,1,0.0,1.0,12.462,1,1,0.0
2aitaeog6msxzfiw4c7n7us8,10,3,58,md,2,0.0,1.0,25.935,1,1,0.0
2aitaeog6msxzfiw4c7n7us8,11,3,35,pd,3,1.0,0.0,11.434,1,1,0.0
2aitaeog6msxzfiw4c7n7us8,12,3,76,pd,1,2.0,0.0,11.904,1,1,0.0
2jtumtn20tpxear6e1o4e60o,1,3,71,pd,2,2.0,0.0,15.03,1,1,0.0
2jtumtn20tpxear6e1o4e60o,2,3,55,pd,3,0.0,1.0,11.505,1,1,0.0
2jtumtn20tpxear6e1o4e60o,3,3,30,pd,1,0.0,1.0,12.675,1,1,0.0
2jtumtn20tpxear6e1o4e60o,4,3,45,pd,2,0.0,1.0,17.448,1,1,0.0
2jtumtn20tpxear6e1o4e60o,5,3,11,pd,3,0.0,1.0,19.362,1,1,0.0
2jtumtn20tpxear6e1o4e60o,6,3,29,pd,1,0.0,1.0,21.89,1,1,0.0
2jtumtn20tpxear6e1o4e60o,7,3,16,md,2,3.0,0.0,22.105,1,1,0.0
2jtumtn20tpxear6e1o4e60o,8,3,17,pd,3,0.0,1.0,18.68,1,1,0.0
2jtumtn20tpxear6e1o4e60o,9,3,23,md,1,0.0,1.0,16.928,1,1,0.0
2jtumtn20tpxear6e1o4e60o,10,3,58,md,2,0.0,1.0,29.145,1,1,0.0
2jtumtn20tpxear6e1o4e60o,11,3,35,pd,3,0.0,1.0,22.098,1,1,0.0
2jtumtn20tpxear6e1o4e60o,12,3,76,pd,1,0.0,1.0,12.065,1,1,0.0
2zhhgttgak8yl2icy6p5maq3,1,3,71,pd,2,0.0,1.0,3.475,1,1,0.0
2zhhgttgak8yl2icy6p5maq3,2,3,55,pd,3,0.0,1.0,13.179,1,1,0.0
2zhhgttgak8yl2icy6p5maq3,3,3,30,pd,1,0.0,1.0,12.725,1,1,0.0
2zhhgttgak8yl2icy6p5maq3,4,3,45,pd,2,0.0,1.0,25.623,1,1,0.0
2zhhgttgak8yl2icy6p5maq3,5,3,11,pd,3,0.0,1.0,21.256,1,1,0.0
2zhhgttgak8yl2icy6p5maq3,6,3,29,pd,1,0.0,1.0,28.45,1,1,0.0
2zhhgttgak8yl2icy6p5maq3,7,3,16,md,2,3.0,0.0,15.306,1,1,0.0
2zhhgttgak8yl2icy6p5maq3,8,3,17,pd,3,0.0,1.0,29.418,1,1,0.0
2zhhgttgak8yl2icy6p5maq3,9,3,23,md,1,3.0,0.0,22.008,1,1,0.0
2zhhgttgak8yl2icy6p5maq3,10,3,58,md,2,0.0,1.0,25.092,1,1,0.0
2zhhgttgak8yl2icy6p5maq3,11,3,35,pd,3,,,,1,1,0.0
2zhhgttgak8yl2icy6p5maq3,12,3,76,pd,1,3.0,0.0,11.706,1,1,0.0
38o1khqbqorz1iez564q0jjy,1,3,71,pd,2,0.0,1.0,11.885,1,1,0.0
38o1khqbqorz1iez564q0jjy,2,3,55,pd,3,0.0,1.0,7.464,1,1,0.0
38o1khqbqorz1iez564q0jjy,3,3,30,pd,1,0.0,1.0,13.574,1,1,0.0
38o1khqbqorz1iez564q0jjy,4,3,45,pd,2,0.0,1.0,9.871,1,1,0.0
38o1khqbqorz1iez564q0jjy,5,3,11,pd,3,0.0,1.0,14.154,1,1,0.0
38o1khqbqorz1iez564q0jjy,6,3,29,pd,1,0.0,1.0,7.684,1,1,0.0
38o1khqbqorz1iez564q0jjy,7,3,16,md,2,3.0,0.0,16.272,1,1,0.0
38o1khqbqorz1iez564q0jjy,8,3,17,pd,3,0.0,1.0,19.712,1,1,0.0
38o1khqbqorz1iez564q0jjy,9,3,23,md,1,0.0,1.0,9.948,1,1,0.0
38o1khqbqorz1iez564q0jjy,10,3,58,md,2,0.0,1.0,16.095,1,1,0.0
38o1khqbqorz1iez564q0jjy,11,3,35,pd,3,0.0,1.0,28.608,1,1,0.0
38o1khqbqorz1iez564q0jjy,12,3,76,pd,1,0.0,1.0,21.191,1,1,0.0
3lfx7v98cdm905xf5atvmmoh,1,3,71,pd,2,0.0,1.0,11.972,1,1,0.0
3lfx7v98cdm905xf5atvmmoh,2,3,55,pd,3,0.0,1.0,20.77,1,1,0.0
3lfx7v98cdm905xf5atvmmoh,3,3,30,pd,1,0.0,1.0,17.235,1,1,0.0
3lfx7v98cdm905xf5atvmmoh,4,3,45,pd,2,0.0,1.0,10.853,1,1,0.0
3lfx7v98cdm905xf5atvmmoh,5,3,11,pd,3,3.0,0.0,22.158,1,1,0.0
3lfx7v98cdm905xf5atvmmoh,6,3,29,pd,1,0.0,1.0,22.572,1,1,0.0
3lfx7v98cdm905xf5atvmmoh,7,3,16,md,2,0.0,1.0,13.795,1,1,0.0
3lfx7v98cdm905xf5atvmmoh,8,3,17,pd,3,2.0,0.0,16.257,1,1,0.0
3lfx7v98cdm905xf5atvmmoh,9,3,23,md,1,0.0,1.0,15.636,1,1,0.0
3lfx7v98cdm905xf5atvmmoh,10,3,58,md,2,1.0,0.0,25.544,1,1,0.0
3lfx7v98cdm905xf5atvmmoh,11,3,35,pd,3,0.0,1.0,12.255,1,1,0.0
3lfx7v98cdm905xf5atvmmoh,12,3,76,pd,1,0.0,1.0,11.257,1,1,0.0
3xlyknpl9gb0nuadoa5yxf5u,1,3,71,pd,1,0.0,1.0,7.064,1,1,0.0
3xlyknpl9gb0nuadoa5yxf5u,2,3,55,pd,2,0.0,1.0,19.171,1,1,0.0
3xlyknpl9gb0nuadoa5yxf5u,3,3,30,pd,3,0.0,1.0,14.784,1,1,0.0
3xlyknpl9gb0nuadoa5yxf5u,4,3,45,pd,1,0.0,1.0,10.636,1,1,0.0
3xlyknpl9gb0nuadoa5yxf5u,5,3,11,pd,2,,,,1,1,0.0
3xlyknpl9gb0nuadoa5yxf5u,6,3,29,pd,3,0.0,1.0,16.083,1,1,0.0
3xlyknpl9gb0nuadoa5yxf5u,7,3,16,md,1,0.0,1.0,22.536,1,1,0.0
3xlyknpl9gb0nuadoa5yxf5u,8,3,17,pd,2,0.0,1.0,23.061,1,1,0.0
3xlyknpl9gb0nuadoa5yxf5u,9,3,23,md,3,0.0,1.0,12.912,1,1,0.0
3xlyknpl9gb0nuadoa5yxf5u,10,3,58,md,1,0.0,1.0,13.383,1,1,0.0
3xlyknpl9gb0nuadoa5yxf5u,11,3,35,pd,2,,,,1,1,0.0
3xlyknpl9gb0nuadoa5yxf5u,12,3,76,pd,3,1.0,0.0,23.804,1,1,0.0
41ajss1627t281ibnqit1qsw,1,3,71,pd,3,0.0,1.0,6.122,1,1,0.0
41ajss1627t281ibnqit1qsw,2,3,55,pd,1,0.0,1.0,11.97,1,1,0.0
41ajss1627t281ibnqit1qsw,3,3,30,pd,2,0.0,1.0,9.677,1,1,0.0
41ajss1627t281ibnqit1qsw,4,3,45,pd,3,0.0,1.0,9.05,1,1,0.0
41ajss1627t281ibnqit1qsw,5,3,11,pd,1,0.0,1.0,10.961,1,1,0.0
41ajss1627t281ibnqit1qsw,6,3,29,pd,2,0.0,1.0,9.553,1,1,0.0
41ajss1627t281ibnqit1qsw,7,3,16,md,3,3.0,0.0,11.338,1,1,0.0
41ajss1627t281ibnqit1qsw,8,3,17,pd,1,0.0,1.0,10.569,1,1,0.0
41ajss1627t281ibnqit1qsw,9,3,23,md,2,0.0,1.0,14.282,1,1,0.0
41ajss1627t281ibnqit1qsw,10,3,58,md,3,0.0,1.0,13.325,1,1,0.0
41ajss1627t281ibnqit1qsw,11,3,35,pd,1,1.0,0.0,10.169,1,1,0.0
41ajss1627t281ibnqit1qsw,12,3,76,pd,2,2.0,0.0,6.762,1,1,0.0
41wk1pam6jtdlgk7cale7lh8,1,3,71,pd,2,0.0,1.0,15.981,1,1,0.0
41wk1pam6jtdlgk7cale7lh8,2,3,55,pd,3,0.0,1.0,21.427,1,1,0.0
41wk1pam6jtdlgk7cale7lh8,3,3,30,pd,1,0.0,1.0,10.536,1,1,0.0
41wk1pam6jtdlgk7cale7lh8,4,3,45,pd,2,0.0,1.0,11.419,1,1,0.0
41wk1pam6jtdlgk7cale7lh8,5,3,11,pd,3,0.0,1.0,11.099,1,1,0.0
41wk1pam6jtdlgk7cale7lh8,6,3,29,pd,1,0.0,1.0,12.142,1,1,0.0
41wk1pam6jtdlgk7cale7lh8,7,3,16,md,2,0.0,1.0,12.088,1,1,0.0
41wk1pam6jtdlgk7cale7lh8,8,3,17,pd,3,0.0,1.0,20.243,1,1,0.0
41wk1pam6jtdlgk7cale7lh8,9,3,23,md,1,0.0,1.0,13.085,1,1,0.0
41wk1pam6jtdlgk7cale7lh8,10,3,58,md,2,0.0,1.0,18.078,1,1,0.0
41wk1pam6jtdlgk7cale7lh8,11,3,35,pd,3,1.0,0.0,28.749,1,1,0.0
41wk1pam6jtdlgk7cale7lh8,12,3,76,pd,1,2.0,0.0,29.2,1,1,0.0
438ohfulofqhhxbnbv10v1lv,1,3,71,pd,1,2.0,0.0,6.484,1,1,0.0
438ohfulofqhhxbnbv10v1lv,2,3,55,pd,2,1.0,0.0,13.061,1,1,0.0
438ohfulofqhhxbnbv10v1lv,3,3,30,pd,3,3.0,0.0,12.296,1,1,0.0
438ohfulofqhhxbnbv10v1lv,4,3,45,pd,1,0.0,1.0,11.05,1,1,0.0
438ohfulofqhhxbnbv10v1lv,5,3,11,pd,2,0.0,1.0,13.988,1,1,0.0
438ohfulofqhhxbnbv10v1lv,6,3,29,pd,3,0.0,1.0,19.974,1,1,0.0
438ohfulofqhhxbnbv10v1lv,7,3,16,md,1,0.0,1.0,15.895,1,1,0.0
438ohfulofqhhxbnbv10v1lv,8,3,17,pd,2,0.0,1.0,15.696,1,1,0.0
438ohfulofqhhxbnbv10v1lv,9,3,23,md,3,1.0,0.0,13.605,1,1,0.0
438ohfulofqhhxbnbv10v1lv,10,3,58,md,1,1.0,0.0,21.876,1,1,0.0
438ohfulofqhhxbnbv10v1lv,11,3,35,pd,2,2.0,0.0,16.082,1,1,0.0
438ohfulofqhhxbnbv10v1lv,12,3,76,pd,3,2.0,0.0,18.038,1,1,0.0
4860s149fvexikc9f5ukhza6,1,3,71,pd,2,0.0,1.0,5.942,1,1,0.0
4860s149fvexikc9f5ukhza6,2,3,55,pd,3,0.0,1.0,6.345,1,1,0.0
4860s149fvexikc9f5ukhza6,3,3,30,pd,1,0.0,1.0,13.445,1,1,0.0
4860s149fvexikc9f5ukhza6,4,3,45,pd,2,0.0,1.0,17.638,1,1,0.0
4860s149fvexikc9f5ukhza6,5,3,11,pd,3,0.0,1.0,13.97,1,1,0.0
4860s149fvexikc9f5ukhza6,6,3,29,pd,1,0.0,1.0,10.351,1,1,0.0
4860s149fvexikc9f5ukhza6,7,3,16,md,2,0.0,1.0,10.32,1,1,0.0
4860s149fvexikc9f5ukhza6,8,3,17,pd,3,2.0,0.0,26.845,1,1,0.0
4860s149fvexikc9f5ukhza6,9,3,23,md,1,3.0,0.0,10.727,1,1,0.0
4860s149fvexikc9f5ukhza6,10,3,58,md,2,1.0,0.0,25.901,1,1,0.0
4860s149fvexikc9f5ukhza6,11,3,35,pd,3,2.0,0.0,12.606,1,1,0.0
4860s149fvexikc9f5ukhza6,12,3,76,pd,1,0.0,1.0,9.227,1,1,0.0
4aar93sek9rg8u03m3jgjxei,1,3,71,pd,3,0.0,1.0,6.105,1,1,0.0
4aar93sek9rg8u03m3jgjxei,2,3,55,pd,1,0.0,1.0,15.543,1,1,0.0
4aar93sek9rg8u03m3jgjxei,3,3,30,pd,2,0.0,1.0,21.05,1,1,0.0
4aar93sek9rg8u03m3jgjxei,4,3,45,pd,3,0.0,1.0,13.601,1,1,0.0
4aar93sek9rg8u03m3jgjxei,5,3,11,pd,1,3.0,0.0,26.702,1,1,0.0
4aar93sek9rg8u03m3jgjxei,6,3,29,pd,2,,,,1,1,0.0
4aar93sek9rg8u03m3jgjxei,7,3,16,md,3,1.0,0.0,29.603,1,1,0.0
4aar93sek9rg8u03m3jgjxei,8,3,17,pd,1,1.0,0.0,11.058,1,1,0.0
4aar93sek9rg8u03m3jgjxei,9,3,23,md,2,1.0,0.0,28.204,1,1,0.0
4aar93sek9rg8u03m3jgjxei,10,3,58,md,3,1.0,0.0,15.239,1,1,0.0
4aar93sek9rg8u03m3jgjxei,11,3,35,pd,1,0.0,1.0,19.28,1,1,0.0
4aar93sek9rg8u03m3jgjxei,12,3,76,pd,2,0.0,1.0,6.717,1,1,0.0
4aux5txdh7un1ahtd274idwj,1,3,71,pd,1,2.0,0.0,15.715,1,1,0.0
4aux5txdh7un1ahtd274idwj,2,3,55,pd,2,0.0,1.0,20.887,1,1,0.0
4aux5txdh7un1ahtd274idwj,3,3,30,pd,3,0.0,1.0,15.49,1,1,0.0
4aux5txdh7un1ahtd274idwj,4,3,45,pd,1,0.0,1.0,11.13,1,1,0.0
4aux5txdh7un1ahtd274idwj,5,3,11,pd,2,2.0,0.0,15.076,1,1,0.0
4aux5txdh7un1ahtd274idwj,6,3,29,pd,3,1.0,0.0,20.1,1,1,0.0
4aux5txdh7un1ahtd274idwj,7,3,16,md,1,0.0,1.0,21.012,1,1,0.0
4aux5txdh7un1ahtd274idwj,8,3,17,pd,2,0.0,1.0,22.378,1,1,0.0
4aux5txdh7un1ahtd274idwj,9,3,23,md,3,0.0,1.0,15.878,1,1,0.0
4aux5txdh7un1ahtd274idwj,10,3,58,md,1,0.0,1.0,14.643,1,1,0.0
4aux5txdh7un1ahtd274idwj,11,3,35,pd,2,0.0,1.0,22.982,1,1,0.0
4aux5txdh7un1ahtd274idwj,12,3,76,pd,3,2.0,0.0,20.301,1,1,0.0
4cxyj4dfixaii8ddxcr9c57l,1,3,71,pd,1,0.0,1.0,8.683,1,1,0.0
4cxyj4dfixaii8ddxcr9c57l,2,3,55,pd,2,1.0,0.0,14.403,1,1,0.0
4cxyj4dfixaii8ddxcr9c57l,3,3,30,pd,3,0.0,1.0,16.156,1,1,0.0
4cxyj4dfixaii8ddxcr9c57l,4,3,45,pd,1,0.0,1.0,17.203,1,1,0.0
4cxyj4dfixaii8ddxcr9c57l,5,3,11,pd,2,0.0,1.0,23.274,1,1,0.0
4cxyj4dfixaii8ddxcr9c57l,6,3,29,pd,3,0.0,1.0,18.854,1,1,0.0
4cxyj4dfixaii8ddxcr9c57l,7,3,16,md,1,0.0,1.0,19.944,1,1,0.0
4cxyj4dfixaii8ddxcr9c57l,8,3,17,pd,2,0.0,1.0,26.087,1,1,0.0
4cxyj4dfixaii8ddxcr9c57l,9,3,23,md,3,0.0,1.0,20.994,1,1,0.0
4cxyj4dfixaii8ddxcr9c57l,10,3,58,md,1,0.0,1.0,18.25,1,1,0.0
4cxyj4dfixaii8ddxcr9c57l,11,3,35,pd,2,0.0,1.0,21.748,1,1,0.0
4cxyj4dfixaii8ddxcr9c57l,12,3,76,pd,3,0.0,1.0,12.737,1,1,0.0
4dk0dacpzdaexmx76ot1pusf,1,3,71,pd,1,2.0,0.0,7.884,1,1,0.0
4dk0dacpzdaexmx76ot1pusf,2,3,55,pd,2,0.0,1.0,17.725,1,1,0.0
4dk0dacpzdaexmx76ot1pusf,3,3,30,pd,3,0.0,1.0,20.148,1,1,0.0
4dk0dacpzdaexmx76ot1pusf,4,3,45,pd,1,2.0,0.0,7.838,1,1,0.0
4dk0dacpzdaexmx76ot1pusf,5,3,11,pd,2,0.0,1.0,20.913,1,1,0.0
4dk0dacpzdaexmx76ot1pusf,6,3,29,pd,3,3.0,0.0,18.37,1,1,0.0
4dk0dacpzdaexmx76ot1pusf,7,3,16,md,1,0.0,1.0,13.107,1,1,0.0
4dk0dacpzdaexmx76ot1pusf,8,3,17,pd,2,1.0,0.0,25.764,1,1,0.0
4dk0dacpzdaexmx76ot1pusf,9,3,23,md,3,3.0,0.0,15.33,1,1,0.0
4dk0dacpzdaexmx76ot1pusf,10,3,58,md,1,0.0,1.0,10.564,1,1,0.0
4dk0dacpzdaexmx76ot1pusf,11,3,35,pd,2,0.0,1.0,26.182,1,1,0.0
4dk0dacpzdaexmx76ot1pusf,12,3,76,pd,3,3.0,0.0,11.971,1,1,0.0
4dsinf5it1vmhp2qvqf6hmqv,1,3,71,pd,1,2.0,0.0,8.73,1,1,0.0
4dsinf5it1vmhp2qvqf6hmqv,2,3,55,pd,2,1.0,0.0,9.082,1,1,0.0
4dsinf5it1vmhp2qvqf6hmqv,3,3,30,pd,3,0.0,1.0,11.233,1,1,0.0
4dsinf5it1vmhp2qvqf6hmqv,4,3,45,pd,1,0.0,1.0,11.119,1,1,0.0
4dsinf5it1vmhp2qvqf6hmqv,5,3,11,pd,2,2.0,0.0,16.327,1,1,0.0
4dsinf5it1vmhp2qvqf6hmqv,6,3,29,pd,3,3.0,0.0,2.529,0,1,0.0
4dsinf5it1vmhp2qvqf6hmqv,7,3,16,md,1,3.0,0.0,13.56,1,1,0.0
4dsinf5it1vmhp2qvqf6hmqv,8,3,17,pd,2,1.0,0.0,12.276,1,1,0.0
4dsinf5it1vmhp2qvqf6hmqv,9,3,23,md,3,3.0,0.0,13.462,1,1,0.0
4dsinf5it1vmhp2qvqf6hmqv,10,3,58,md,1,0.0,1.0,9.401,1,1,0.0
4dsinf5it1vmhp2qvqf6hmqv,11,3,35,pd,2,0.0,1.0,17.85,1,1,0.0
4dsinf5it1vmhp2qvqf6hmqv,12,3,76,pd,3,0.0,1.0,2.788,0,1,0.0
4qbktuwkhw43sei43s7jpjje,1,3,71,pd,2,2.0,0.0,5.626,1,1,0.0
4qbktuwkhw43sei43s7jpjje,2,3,55,pd,3,0.0,1.0,7.137,1,1,0.0
4qbktuwkhw43sei43s7jpjje,3,3,30,pd,1,2.0,0.0,8.968,1,1,0.0
4qbktuwkhw43sei43s7jpjje,4,3,45,pd,2,0.0,1.0,8.468,1,1,0.0
4qbktuwkhw43sei43s7jpjje,5,3,11,pd,3,3.0,0.0,9.894,1,1,0.0
4qbktuwkhw43sei43s7jpjje,6,3,29,pd,1,0.0,1.0,8.994,1,1,0.0
4qbktuwkhw43sei43s7jpjje,7,3,16,md,2,1.0,0.0,9.964,1,1,0.0
4qbktuwkhw43sei43s7jpjje,8,3,17,pd,3,2.0,0.0,9.551,1,1,0.0
4qbktuwkhw43sei43s7jpjje,9,3,23,md,1,0.0,1.0,9.694,1,1,0.0
4qbktuwkhw43sei43s7jpjje,10,3,58,md,2,0.0,1.0,6.573,1,1,0.0
4qbktuwkhw43sei43s7jpjje,11,3,35,pd,3,2.0,0.0,13.341,1,1,0.0
4qbktuwkhw43sei43s7jpjje,12,3,76,pd,1,2.0,0.0,9.012,1,1,0.0
56h64nq2o5zuwljavox4i31d,1,3,71,pd,2,2.0,0.0,7.888,1,1,0.0
56h64nq2o5zuwljavox4i31d,2,3,55,pd,3,0.0,1.0,6.751,1,1,0.0
56h64nq2o5zuwljavox4i31d,3,3,30,pd,1,0.0,1.0,5.898,1,1,0.0
56h64nq2o5zuwljavox4i31d,4,3,45,pd,2,2.0,0.0,7.052,1,1,0.0
56h64nq2o5zuwljavox4i31d,5,3,11,pd,3,3.0,0.0,12.22,1,1,0.0
56h64nq2o5zuwljavox4i31d,6,3,29,pd,1,0.0,1.0,6.395,1,1,0.0
56h64nq2o5zuwljavox4i31d,7,3,16,md,2,0.0,1.0,10.688,1,1,0.0
56h64nq2o5zuwljavox4i31d,8,3,17,pd,3,1.0,0.0,17.245,1,1,0.0
56h64nq2o5zuwljavox4i31d,9,3,23,md,1,0.0,1.0,10.643,1,1,0.0
56h64nq2o5zuwljavox4i31d,10,3,58,md,2,0.0,1.0,12.372,1,1,0.0
56h64nq2o5zuwljavox4i31d,11,3,35,pd,3,0.0,1.0,8.717,1,1,0.0
56h64nq2o5zuwljavox4i31d,12,3,76,pd,1,3.0,0.0,12.069,1,1,0.0
5l2u7j2h21z19tcxhsjk2c08,1,3,71,pd,2,0.0,1.0,8.92,1,1,0.0
5l2u7j2h21z19tcxhsjk2c08,2,3,55,pd,3,0.0,1.0,24.807,1,1,0.0
5l2u7j2h21z19tcxhsjk2c08,3,3,30,pd,1,2.0,0.0,27.02,1,1,0.0
5l2u7j2h21z19tcxhsjk2c08,4,3,45,pd,2,0.0,1.0,17.914,1,1,0.0
5l2u7j2h21z19tcxhsjk2c08,5,3,11,pd,3,0.0,1.0,12.254,1,1,0.0
5l2u7j2h21z19tcxhsjk2c08,6,3,29,pd,1,2.0,0.0,24.176,1,1,0.0
5l2u7j2h21z19tcxhsjk2c08,7,3,16,md,2,0.0,1.0,17.741,1,1,0.0
5l2u7j2h21z19tcxhsjk2c08,8,3,17,pd,3,1.0,0.0,28.247,1,1,0.0
5l2u7j2h21z19tcxhsjk2c08,9,3,23,md,1,0.0,1.0,25.752,1,1,0.0
5l2u7j2h21z19tcxhsjk2c08,10,3,58,md,2,0.0,1.0,14.922,1,1,0.0
5l2u7j2h21z19tcxhsjk2c08,11,3,35,pd,3,0.0,1.0,16.981,1,1,0.0
5l2u7j2h21z19tcxhsjk2c08,12,3,76,pd,1,3.0,0.0,18.774,1,1,0.0
5xplh8hs67ttduk01u4cnqlh,1,3,71,pd,3,0.0,1.0,3.256,1,1,0.0
5xplh8hs67ttduk01u4cnqlh,2,3,55,pd,2,0.0,1.0,11.709,1,1,0.0
5xplh8hs67ttduk01u4cnqlh,3,3,30,pd,1,0.0,1.0,8.719,1,1,0.0
5xplh8hs67ttduk01u4cnqlh,4,3,45,pd,3,0.0,1.0,13.978,1,1,0.0
5xplh8hs67ttduk01u4cnqlh,5,3,11,pd,2,3.0,0.0,9.206,1,1,0.0
5xplh8hs67ttduk01u4cnqlh,6,3,29,pd,1,0.0,1.0,10.586,1,1,0.0
5xplh8hs67ttduk01u4cnqlh,7,3,16,md,3,0.0,1.0,7.941,1,1,0.0
5xplh8hs67ttduk01u4cnqlh,8,3,17,pd,2,1.0,0.0,11.864,1,1,0.0
5xplh8hs67ttduk01u4cnqlh,9,3,23,md,1,0.0,1.0,10.906,1,1,0.0
5xplh8hs67ttduk01u4cnqlh,10,3,58,md,3,3.0,0.0,9.477,1,1,0.0
5xplh8hs67ttduk01u4cnqlh,11,3,35,pd,2,0.0,1.0,12.906,1,1,0.0
5xplh8hs67ttduk01u4cnqlh,12,3,76,pd,1,1.0,0.0,12.194,1,1,0.0
6vbm9zf46dicbp9lguwjfgey,1,3,71,pd,2,2.0,0.0,10.424,1,1,0.0
6vbm9zf46dicbp9lguwjfgey,2,3,55,pd,3,1.0,0.0,17.038,1,1,0.0
6vbm9zf46dicbp9lguwjfgey,3,3,30,pd,1,0.0,1.0,9.846,1,1,0.0
6vbm9zf46dicbp9lguwjfgey,4,3,45,pd,2,0.0,1.0,13.425,1,1,0.0
6vbm9zf46dicbp9lguwjfgey,5,3,11,pd,3,0.0,1.0,16.08,1,1,0.0
6vbm9zf46dicbp9lguwjfgey,6,3,29,pd,1,3.0,0.0,7.218,1,1,0.0
6vbm9zf46dicbp9lguwjfgey,7,3,16,md,2,0.0,1.0,11.079,1,1,0.0
6vbm9zf46dicbp9lguwjfgey,8,3,17,pd,3,2.0,0.0,6.63,1,1,0.0
6vbm9zf46dicbp9lguwjfgey,9,3,23,md,1,3.0,0.0,8.435,1,1,0.0
6vbm9zf46dicbp9lguwjfgey,10,3,58,md,2,1.0,0.0,10.179,1,1,0.0
6vbm9zf46dicbp9lguwjfgey,11,3,35,pd,3,0.0,1.0,17.362,1,1,0.0
6vbm9zf46dicbp9lguwjfgey,12,3,76,pd,1,1.0,0.0,12.606,1,1,0.0
6w9ojjc7tj02tgn3xrbdmcy6,1,3,71,pd,2,0.0,1.0,25.483,1,1,0.0
6w9ojjc7tj02tgn3xrbdmcy6,2,3,55,pd,3,0.0,1.0,18.256,1,1,0.0
6w9ojjc7tj02tgn3xrbdmcy6,3,3,30,pd,1,0.0,1.0,20.148,1,1,0.0
6w9ojjc7tj02tgn3xrbdmcy6,4,3,45,pd,2,0.0,1.0,20.424,1,1,0.0
6w9ojjc7tj02tgn3xrbdmcy6,5,3,11,pd,3,0.0,1.0,14.471,1,1,0.0
6w9ojjc7tj02tgn3xrbdmcy6,6,3,29,pd,1,0.0,1.0,25.253,1,1,0.0
6w9ojjc7tj02tgn3xrbdmcy6,7,3,16,md,2,0.0,1.0,21.311,1,1,0.0
6w9ojjc7tj02tgn3xrbdmcy6,8,3,17,pd,3,1.0,0.0,20.925,1,1,0.0
6w9ojjc7tj02tgn3xrbdmcy6,9,3,23,md,1,0.0,1.0,13.392,1,1,0.0
6w9ojjc7tj02tgn3xrbdmcy6,10,3,58,md,2,0.0,1.0,20.338,1,1,0.0
6w9ojjc7tj02tgn3xrbdmcy6,11,3,35,pd,3,2.0,0.0,27.768,1,1,0.0
6w9ojjc7tj02tgn3xrbdmcy6,12,3,76,pd,1,1.0,0.0,27.857,1,1,0.0
758kt0my7ux5ltj4303u68ig,1,3,71,pd,1,2.0,0.0,8.786,1,1,0.0
758kt0my7ux5ltj4303u68ig,2,3,55,pd,2,0.0,1.0,7.051,1,1,0.0
758kt0my7ux5ltj4303u68ig,3,3,30,pd,3,3.0,0.0,8.37,1,1,0.0
758kt0my7ux5ltj4303u68ig,4,3,45,pd,1,0.0,1.0,6.892,1,1,0.0
758kt0my7ux5ltj4303u68ig,5,3,11,pd,2,0.0,1.0,6.452,1,1,0.0
758kt0my7ux5ltj4303u68ig,6,3,29,pd,3,0.0,1.0,7.201,1,1,0.0
758kt0my7ux5ltj4303u68ig,7,3,16,md,1,0.0,1.0,11.923,1,1,0.0
758kt0my7ux5ltj4303u68ig,8,3,17,pd,2,1.0,0.0,9.588,1,1,0.0
758kt0my7ux5ltj4303u68ig,9,3,23,md,3,1.0,0.0,4.86,1,1,0.0
758kt0my7ux5ltj4303u68ig,10,3,58,md,1,1.0,0.0,8.905,1,1,0.0
758kt0my7ux5ltj4303u68ig,11,3,35,pd,2,0.0,1.0,3.884,1,1,0.0
758kt0my7ux5ltj4303u68ig,12,3,76,pd,3,0.0,1.0,6.875,1,1,0.0
7aq0xcfzob00t2r2vrrbswmr,1,3,71,pd,2,0.0,1.0,9.364,1,1,0.0
7aq0xcfzob00t2r2vrrbswmr,2,3,55,pd,3,0.0,1.0,23.1,1,1,0.0
7aq0xcfzob00t2r2vrrbswmr,3,3,30,pd,1,0.0,1.0,26.943,1,1,0.0
7aq0xcfzob00t2r2vrrbswmr,4,3,45,pd,2,0.0,1.0,16.278,1,1,0.0
7aq0xcfzob00t2r2vrrbswmr,5,3,11,pd,3,0.0,1.0,28.422,1,1,0.0
7aq0xcfzob00t2r2vrrbswmr,6,3,29,pd,1,0.0,1.0,19.404,1,1,0.0
7aq0xcfzob00t2r2vrrbswmr,7,3,16,md,2,0.0,1.0,8.752,1,1,0.0
7aq0xcfzob00t2r2vrrbswmr,8,3,17,pd,3,0.0,1.0,12.542,1,1,0.0
7aq0xcfzob00t2r2vrrbswmr,9,3,23,md,1,0.0,1.0,11.901,1,1,0.0
7aq0xcfzob00t2r2vrrbswmr,10,3,58,md,2,0.0,1.0,9.472,1,1,0.0
7aq0xcfzob00t2r2vrrbswmr,11,3,35,pd,3,1.0,0.0,27.325,1,1,0.0
7aq0xcfzob00t2r2vrrbswmr,12,3,76,pd,1,0.0,1.0,27.89,1,1,0.0
7povmb6awscd62wrex2p6g8d,1,3,71,pd,3,2.0,0.0,6.279,1,1,1.0
7povmb6awscd62wrex2p6g8d,2,3,55,pd,2,,,,1,1,1.0
7povmb6awscd62wrex2p6g8d,3,3,30,pd,1,0.0,1.0,6.387,1,1,0.0
7povmb6awscd62wrex2p6g8d,4,3,45,pd,3,0.0,1.0,17.32,1,1,0.0
7povmb6awscd62wrex2p6g8d,5,3,11,pd,2,3.0,0.0,16.748,1,1,0.0
7povmb6awscd62wrex2p6g8d,6,3,29,pd,1,0.0,1.0,20.976,1,1,0.0
7povmb6awscd62wrex2p6g8d,7,3,16,md,3,,,,1,1,0.0
7povmb6awscd62wrex2p6g8d,8,3,17,pd,2,1.0,0.0,13.626,1,1,0.0
7povmb6awscd62wrex2p6g8d,9,3,23,md,1,0.0,1.0,15.134,1,1,0.0
7povmb6awscd62wrex2p6g8d,10,3,58,md,3,0.0,1.0,16.105,1,1,0.0
7povmb6awscd62wrex2p6g8d,11,3,35,pd,2,0.0,1.0,14.57,1,1,0.0
7povmb6awscd62wrex2p6g8d,12,3,76,pd,1,0.0,1.0,11.661,1,1,0.0
89alqlb24wckatlpcdik234f,1,3,71,pd,1,2.0,0.0,6.137,1,1,0.0
89alqlb24wckatlpcdik234f,2,3,55,pd,2,0.0,1.0,10.452,1,1,0.0
89alqlb24wckatlpcdik234f,3,3,30,pd,3,0.0,1.0,9.212,1,1,0.0
89alqlb24wckatlpcdik234f,4,3,45,pd,1,0.0,1.0,7.899,1,1,0.0
89alqlb24wckatlpcdik234f,5,3,11,pd,2,3.0,0.0,16.286,1,1,0.0
89alqlb24wckatlpcdik234f,6,3,29,pd,3,0.0,1.0,11.302,1,1,0.0
89alqlb24wckatlpcdik234f,7,3,16,md,1,0.0,1.0,12.556,1,1,0.0
89alqlb24wckatlpcdik234f,8,3,17,pd,2,0.0,1.0,17.97,1,1,0.0
89alqlb24wckatlpcdik234f,9,3,23,md,3,0.0,1.0,13.475,1,1,0.0
89alqlb24wckatlpcdik234f,10,3,58,md,1,1.0,0.0,16.496,1,1,0.0
89alqlb24wckatlpcdik234f,11,3,35,pd,2,0.0,1.0,19.058,1,1,0.0
89alqlb24wckatlpcdik234f,12,3,76,pd,3,0.0,1.0,18.477,1,1,0.0
8mhbvgqqnyqb3l21i90su6he,1,3,71,pd,2,2.0,0.0,6.767,1,1,0.0
8mhbvgqqnyqb3l21i90su6he,2,3,55,pd,3,1.0,0.0,9.074,1,1,0.0
8mhbvgqqnyqb3l21i90su6he,3,3,30,pd,1,0.0,1.0,15.087,1,1,0.0
8mhbvgqqnyqb3l21i90su6he,4,3,45,pd,2,1.0,0.0,29.324,1,1,0.0
8mhbvgqqnyqb3l21i90su6he,5,3,11,pd,3,3.0,0.0,25.074,1,1,0.0
8mhbvgqqnyqb3l21i90su6he,6,3,29,pd,1,3.0,0.0,20.03,1,1,0.0
8mhbvgqqnyqb3l21i90su6he,7,3,16,md,2,1.0,0.0,14.619,1,1,0.0
8mhbvgqqnyqb3l21i90su6he,8,3,17,pd,3,2.0,0.0,17.61,1,1,0.0
8mhbvgqqnyqb3l21i90su6he,9,3,23,md,1,2.0,0.0,15.79,1,1,0.0
8mhbvgqqnyqb3l21i90su6he,10,3,58,md,2,1.0,0.0,16.614,1,1,0.0
8mhbvgqqnyqb3l21i90su6he,11,3,35,pd,3,1.0,0.0,9.649,1,1,0.0
8mhbvgqqnyqb3l21i90su6he,12,3,76,pd,1,1.0,0.0,19.133,1,1,0.0
8nffzdd3kyzjfr9b8rot84xh,1,3,71,pd,2,0.0,1.0,16.125,1,1,0.0
8nffzdd3kyzjfr9b8rot84xh,2,3,55,pd,3,0.0,1.0,17.008,1,1,0.0
8nffzdd3kyzjfr9b8rot84xh,3,3,30,pd,1,0.0,1.0,10.1,1,1,0.0
8nffzdd3kyzjfr9b8rot84xh,4,3,45,pd,2,0.0,1.0,7.476,1,1,0.0
8nffzdd3kyzjfr9b8rot84xh,5,3,11,pd,3,0.0,1.0,23.778,1,1,0.0
8nffzdd3kyzjfr9b8rot84xh,6,3,29,pd,1,0.0,1.0,9.13,1,1,0.0
8nffzdd3kyzjfr9b8rot84xh,7,3,16,md,2,0.0,1.0,14.087,1,1,0.0
8nffzdd3kyzjfr9b8rot84xh,8,3,17,pd,3,1.0,0.0,29.379,1,1,0.0
8nffzdd3kyzjfr9b8rot84xh,9,3,23,md,1,3.0,0.0,11.466,1,1,0.0
8nffzdd3kyzjfr9b8rot84xh,10,3,58,md,2,3.0,0.0,21.342,1,1,0.0
8nffzdd3kyzjfr9b8rot84xh,11,3,35,pd,3,3.0,0.0,29.306,1,1,0.0
8nffzdd3kyzjfr9b8rot84xh,12,3,76,pd,1,2.0,0.0,27.729,1,1,0.0
8tjnnr68n5kd8w3slqldd88t,1,3,71,pd,2,0.0,1.0,9.404,1,1,0.0
8tjnnr68n5kd8w3slqldd88t,2,3,55,pd,3,2.0,0.0,17.85,1,1,0.0
8tjnnr68n5kd8w3slqldd88t,3,3,30,pd,1,0.0,1.0,17.205,1,1,0.0
8tjnnr68n5kd8w3slqldd88t,4,3,45,pd,2,0.0,1.0,18.755,1,1,2.0
8tjnnr68n5kd8w3slqldd88t,5,3,11,pd,3,0.0,1.0,14.426,1,1,0.0
8tjnnr68n5kd8w3slqldd88t,6,3,29,pd,1,0.0,1.0,20.179,1,1,0.0
8tjnnr68n5kd8w3slqldd88t,7,3,16,md,2,0.0,1.0,26.011,1,1,2.0
8tjnnr68n5kd8w3slqldd88t,8,3,17,pd,3,0.0,1.0,18.305,1,1,0.0
8tjnnr68n5kd8w3slqldd88t,9,3,23,md,1,0.0,1.0,10.563,1,1,0.0
8tjnnr68n5kd8w3slqldd88t,10,3,58,md,2,0.0,1.0,17.714,1,1,0.0
8tjnnr68n5kd8w3slqldd88t,11,3,35,pd,3,0.0,1.0,27.815,1,1,0.0
8tjnnr68n5kd8w3slqldd88t,12,3,76,pd,1,0.0,1.0,19.149,1,1,0.0
956dsja0kqtsmwj2ytzsgewv,1,3,71,pd,1,0.0,1.0,11.49,1,1,0.0
956dsja0kqtsmwj2ytzsgewv,2,3,55,pd,2,0.0,1.0,11.822,1,1,0.0
956dsja0kqtsmwj2ytzsgewv,3,3,30,pd,3,0.0,1.0,10.203,1,1,0.0
956dsja0kqtsmwj2ytzsgewv,4,3,45,pd,1,0.0,1.0,18.473,1,1,0.0
956dsja0kqtsmwj2ytzsgewv,5,3,11,pd,2,0.0,1.0,16.248,1,1,0.0
956dsja0kqtsmwj2ytzsgewv,6,3,29,pd,3,0.0,1.0,10.852,1,1,0.0
956dsja0kqtsmwj2ytzsgewv,7,3,16,md,1,3.0,0.0,16.596,1,1,0.0
956dsja0kqtsmwj2ytzsgewv,8,3,17,pd,2,0.0,1.0,20.882,1,1,0.0
956dsja0kqtsmwj2ytzsgewv,9,3,23,md,3,0.0,1.0,14.021,1,1,0.0
956dsja0kqtsmwj2ytzsgewv,10,3,58,md,1,0.0,1.0,17.854,1,1,0.0
956dsja0kqtsmwj2ytzsgewv,11,3,35,pd,2,,,,1,1,0.0
956dsja0kqtsmwj2ytzsgewv,12,3,76,pd,3,0.0,1.0,21.906,1,1,0.0
967oec9l1nvfo0ziqgqy1te2,1,3,71,pd,2,0.0,1.0,9.276,1,1,0.0
967oec9l1nvfo0ziqgqy1te2,2,3,55,pd,3,0.0,1.0,13.073,1,1,0.0
967oec9l1nvfo0ziqgqy1te2,3,3,30,pd,1,0.0,1.0,15.206,1,1,0.0
967oec9l1nvfo0ziqgqy1te2,4,3,45,pd,2,0.0,1.0,13.356,1,1,0.0
967oec9l1nvfo0ziqgqy1te2,5,3,11,pd,3,0.0,1.0,21.164,1,1,0.0
967oec9l1nvfo0ziqgqy1te2,6,3,29,pd,1,0.0,1.0,11.656,1,1,0.0
967oec9l1nvfo0ziqgqy1te2,7,3,16,md,2,0.0,1.0,11.968,1,1,0.0
967oec9l1nvfo0ziqgqy1te2,8,3,17,pd,3,1.0,0.0,29.207,1,1,0.0
967oec9l1nvfo0ziqgqy1te2,9,3,23,md,1,0.0,1.0,14.821,1,1,0.0
967oec9l1nvfo0ziqgqy1te2,10,3,58,md,2,0.0,1.0,17.24,1,1,0.0
967oec9l1nvfo0ziqgqy1te2,11,3,35,pd,3,1.0,0.0,29.063,1,1,0.0
967oec9l1nvfo0ziqgqy1te2,12,3,76,pd,1,0.0,1.0,27.115,1,1,0.0
986nb9qudtufx25ancsy4uus,1,3,71,pd,1,2.0,0.0,7.167,1,1,0.0
986nb9qudtufx25ancsy4uus,2,3,55,pd,2,0.0,1.0,12.599,1,1,0.0
986nb9qudtufx25ancsy4uus,3,3,30,pd,3,0.0,1.0,7.631,1,1,0.0
986nb9qudtufx25ancsy4uus,4,3,45,pd,1,0.0,1.0,12.225,1,1,0.0
986nb9qudtufx25ancsy4uus,5,3,11,pd,2,0.0,1.0,9.562,1,1,0.0
986nb9qudtufx25ancsy4uus,6,3,29,pd,3,0.0,1.0,18.685,1,1,0.0
986nb9qudtufx25ancsy4uus,7,3,16,md,1,0.0,1.0,7.637,1,1,0.0
986nb9qudtufx25ancsy4uus,8,3,17,pd,2,2.0,0.0,13.604,1,1,0.0
986nb9qudtufx25ancsy4uus,9,3,23,md,3,0.0,1.0,13.987,1,1,0.0
986nb9qudtufx25ancsy4uus,10,3,58,md,1,1.0,0.0,10.422,1,1,0.0
986nb9qudtufx25ancsy4uus,11,3,35,pd,2,0.0,1.0,17.631,1,1,0.0
986nb9qudtufx25ancsy4uus,12,3,76,pd,3,2.0,0.0,26.317,1,1,0.0
98go0w582iiympeu2js4xcwp,1,3,71,pd,3,2.0,0.0,5.099,1,1,0.0
98go0w582iiympeu2js4xcwp,2,3,55,pd,2,0.0,1.0,15.411,1,1,0.0
98go0w582iiympeu2js4xcwp,3,3,30,pd,1,1.0,0.0,18.092,1,1,0.0
98go0w582iiympeu2js4xcwp,4,3,45,pd,3,0.0,1.0,9.804,1,1,0.0
98go0w582iiympeu2js4xcwp,5,3,11,pd,2,2.0,0.0,25.855,1,1,0.0
98go0w582iiympeu2js4xcwp,6,3,29,pd,1,0.0,1.0,12.796,1,1,0.0
98go0w582iiympeu2js4xcwp,7,3,16,md,3,0.0,1.0,9.535,1,1,0.0
98go0w582iiympeu2js4xcwp,8,3,17,pd,2,0.0,1.0,26.029,1,1,0.0
98go0w582iiympeu2js4xcwp,9,3,23,md,1,1.0,0.0,8.367,1,1,0.0
98go0w582iiympeu2js4xcwp,10,3,58,md,3,1.0,0.0,7.513,1,1,0.0
98go0w582iiympeu2js4xcwp,11,3,35,pd,2,2.0,0.0,8.446,1,1,0.0
98go0w582iiympeu2js4xcwp,12,3,76,pd,1,3.0,0.0,7.18,1,1,0.0
9afw5te4a1v33a52p16gw5wy,1,3,71,pd,2,2.0,0.0,2.175,1,1,0.0
9afw5te4a1v33a52p16gw5wy,2,3,55,pd,3,0.0,1.0,6.803,1,1,0.0
9afw5te4a1v33a52p16gw5wy,3,3,30,pd,1,0.0,1.0,5.645,1,1,0.0
9afw5te4a1v33a52p16gw5wy,4,3,45,pd,2,0.0,1.0,12.428,1,1,0.0
9afw5te4a1v33a52p16gw5wy,5,3,11,pd,3,1.0,0.0,9.757,1,1,0.0
9afw5te4a1v33a52p16gw5wy,6,3,29,pd,1,1.0,0.0,15.88,1,1,0.0
9afw5te4a1v33a52p16gw5wy,7,3,16,md,2,3.0,0.0,11.579,1,1,0.0
9afw5te4a1v33a52p16gw5wy,8,3,17,pd,3,0.0,1.0,8.038,1,1,0.0
9afw5te4a1v33a52p16gw5wy,9,3,23,md,1,0.0,1.0,9.635,1,1,0.0
9afw5te4a1v33a52p16gw5wy,10,3,58,md,2,0.0,1.0,16.154,1,1,0.0
9afw5te4a1v33a52p16gw5wy,11,3,35,pd,3,0.0,1.0,22.212,1,1,0.0
9afw5te4a1v33a52p16gw5wy,12,3,76,pd,1,3.0,0.0,19.231,1,1,0.0
9odg3d3q0fk9hedo3u35n5bi,1,3,71,pd,1,0.0,1.0,7.634,1,1,0.0
9odg3d3q0fk9hedo3u35n5bi,2,3,55,pd,2,0.0,1.0,9.347,1,1,0.0
9odg3d3q0fk9hedo3u35n5bi,3,3,30,pd,3,0.0,1.0,9.717,1,1,0.0
9odg3d3q0fk9hedo3u35n5bi,4,3,45,pd,1,0.0,1.0,7.774,1,1,0.0
9odg3d3q0fk9hedo3u35n5bi,5,3,11,pd,2,3.0,0.0,14.67,1,1,0.0
9odg3d3q0fk9hedo3u35n5bi,6,3,29,pd,3,0.0,1.0,11.94,1,1,0.0
9odg3d3q0fk9hedo3u35n5bi,7,3,16,md,1,0.0,1.0,10.333,1,1,0.0
9odg3d3q0fk9hedo3u35n5bi,8,3,17,pd,2,0.0,1.0,20.144,1,1,0.0
9odg3d3q0fk9hedo3u35n5bi,9,3,23,md,3,3.0,0.0,14.943,1,1,0.0
9odg3d3q0fk9hedo3u35n5bi,10,3,58,md,1,0.0,1.0,13.306,1,1,0.0
9odg3d3q0fk9hedo3u35n5bi,11,3,35,pd,2,0.0,1.0,22.722,1,1,0.0
9odg3d3q0fk9hedo3u35n5bi,12,3,76,pd,3,0.0,1.0,17.427,1,1,0.0
9tf8q5wjsq762a1h18m6wawj,1,3,71,pd,1,0.0,1.0,12.395,1,1,0.0
9tf8q5wjsq762a1h18m6wawj,2,3,55,pd,2,0.0,1.0,8.358,1,1,0.0
9tf8q5wjsq762a1h18m6wawj,3,3,30,pd,3,0.0,1.0,25.807,1,1,0.0
9tf8q5wjsq762a1h18m6wawj,4,3,45,pd,1,0.0,1.0,9.473,1,1,0.0
9tf8q5wjsq762a1h18m6wawj,5,3,11,pd,2,0.0,1.0,24.93,1,1,0.0
9tf8q5wjsq762a1h18m6wawj,6,3,29,pd,3,0.0,1.0,14.802,1,1,0.0
9tf8q5wjsq762a1h18m6wawj,7,3,16,md,1,0.0,1.0,7.851,1,1,0.0
9tf8q5wjsq762a1h18m6wawj,8,3,17,pd,2,0.0,1.0,27.313,1,1,0.0
9tf8q5wjsq762a1h18m6wawj,9,3,23,md,3,3.0,0.0,14.701,1,1,0.0
9tf8q5wjsq762a1h18m6wawj,10,3,58,md,1,0.0,1.0,24.478,1,1,0.0
9tf8q5wjsq762a1h18m6wawj,11,3,35,pd,2,0.0,1.0,9.85,1,1,0.0
9tf8q5wjsq762a1h18m6wawj,12,3,76,pd,3,2.0,0.0,15.132,1,1,0.0
a8u9tqwngrm4ar2zrwuhl0rw,1,3,71,pd,3,0.0,1.0,13.308,1,1,0.0
a8u9tqwngrm4ar2zrwuhl0rw,2,3,55,pd,1,0.0,1.0,19.81,1,1,0.0
a8u9tqwngrm4ar2zrwuhl0rw,3,3,30,pd,2,0.0,1.0,16.598,1,1,0.0
a8u9tqwngrm4ar2zrwuhl0rw,4,3,45,pd,3,0.0,1.0,16.072,1,1,0.0
a8u9tqwngrm4ar2zrwuhl0rw,5,3,11,pd,1,0.0,1.0,19.778,1,1,0.0
a8u9tqwngrm4ar2zrwuhl0rw,6,3,29,pd,2,0.0,1.0,14.458,1,1,0.0
a8u9tqwngrm4ar2zrwuhl0rw,7,3,16,md,3,3.0,0.0,25.891,1,1,0.0
a8u9tqwngrm4ar2zrwuhl0rw,8,3,17,pd,1,0.0,1.0,28.68,1,1,0.0
a8u9tqwngrm4ar2zrwuhl0rw,9,3,23,md,2,0.0,1.0,27.221,1,1,0.0
a8u9tqwngrm4ar2zrwuhl0rw,10,3,58,md,3,1.0,0.0,28.394,1,1,0.0
a8u9tqwngrm4ar2zrwuhl0rw,11,3,35,pd,1,0.0,1.0,17.838,1,1,0.0
a8u9tqwngrm4ar2zrwuhl0rw,12,3,76,pd,2,3.0,0.0,27.668,1,1,0.0
a9i6yhw5fdy05k2trwjtly6v,1,3,71,pd,2,2.0,0.0,2.56,1,1,0.0
a9i6yhw5fdy05k2trwjtly6v,2,3,55,pd,3,2.0,0.0,4.431,1,1,0.0
a9i6yhw5fdy05k2trwjtly6v,3,3,30,pd,1,3.0,0.0,5.384,1,1,0.0
a9i6yhw5fdy05k2trwjtly6v,4,3,45,pd,2,0.0,1.0,6.1,1,1,0.0
a9i6yhw5fdy05k2trwjtly6v,5,3,11,pd,3,1.0,0.0,7.864,1,1,0.0
a9i6yhw5fdy05k2trwjtly6v,6,3,29,pd,1,3.0,0.0,5.591,1,1,0.0
a9i6yhw5fdy05k2trwjtly6v,7,3,16,md,2,0.0,1.0,7.623,1,1,0.0
a9i6yhw5fdy05k2trwjtly6v,8,3,17,pd,3,1.0,0.0,8.944,1,1,0.0
a9i6yhw5fdy05k2trwjtly6v,9,3,23,md,1,0.0,1.0,7.912,1,1,0.0
a9i6yhw5fdy05k2trwjtly6v,10,3,58,md,2,0.0,1.0,6.2,1,1,0.0
a9i6yhw5fdy05k2trwjtly6v,11,3,35,pd,3,0.0,1.0,7.036,1,1,0.0
a9i6yhw5fdy05k2trwjtly6v,12,3,76,pd,1,0.0,1.0,4.832,1,1,0.0
a9xyo7m7jpfr3cef88kci6nd,1,3,71,pd,2,0.0,1.0,12.736,1,1,0.0
a9xyo7m7jpfr3cef88kci6nd,2,3,55,pd,3,0.0,1.0,15.373,1,1,0.0
a9xyo7m7jpfr3cef88kci6nd,3,3,30,pd,1,0.0,1.0,19.475,1,1,0.0
a9xyo7m7jpfr3cef88kci6nd,4,3,45,pd,2,0.0,1.0,14.561,1,1,0.0
a9xyo7m7jpfr3cef88kci6nd,5,3,11,pd,3,0.0,1.0,25.681,1,1,0.0
a9xyo7m7jpfr3cef88kci6nd,6,3,29,pd,1,0.0,1.0,11.704,1,1,0.0
a9xyo7m7jpfr3cef88kci6nd,7,3,16,md,2,0.0,1.0,8.849,1,1,0.0
a9xyo7m7jpfr3cef88kci6nd,8,3,17,pd,3,1.0,0.0,27.958,1,1,0.0
a9xyo7m7jpfr3cef88kci6nd,9,3,23,md,1,0.0,1.0,23.055,1,1,0.0
a9xyo7m7jpfr3cef88kci6nd,10,3,58,md,2,0.0,1.0,21.062,1,1,0.0
a9xyo7m7jpfr3cef88kci6nd,11,3,35,pd,3,0.0,1.0,26.0,1,1,0.0
a9xyo7m7jpfr3cef88kci6nd,12,3,76,pd,1,2.0,0.0,27.999,1,1,0.0
aa1lgg9pkqjbkzl6nfteph4k,1,3,71,pd,3,2.0,0.0,3.224,1,1,0.0
aa1lgg9pkqjbkzl6nfteph4k,2,3,55,pd,2,0.0,1.0,8.783,1,1,0.0
aa1lgg9pkqjbkzl6nfteph4k,3,3,30,pd,1,3.0,0.0,7.891,1,1,0.0
aa1lgg9pkqjbkzl6nfteph4k,4,3,45,pd,3,1.0,0.0,17.314,1,1,0.0
aa1lgg9pkqjbkzl6nfteph4k,5,3,11,pd,2,0.0,1.0,19.318,1,1,0.0
aa1lgg9pkqjbkzl6nfteph4k,6,3,29,pd,1,0.0,1.0,12.586,1,1,0.0
aa1lgg9pkqjbkzl6nfteph4k,7,3,16,md,3,0.0,1.0,7.869,1,1,0.0
aa1lgg9pkqjbkzl6nfteph4k,8,3,17,pd,2,0.0,1.0,12.092,1,1,0.0
aa1lgg9pkqjbkzl6nfteph4k,9,3,23,md,1,0.0,1.0,15.597,1,1,0.0
aa1lgg9pkqjbkzl6nfteph4k,10,3,58,md,3,1.0,0.0,19.919,1,1,0.0
aa1lgg9pkqjbkzl6nfteph4k,11,3,35,pd,2,3.0,0.0,15.699,1,1,0.0
aa1lgg9pkqjbkzl6nfteph4k,12,3,76,pd,1,1.0,0.0,9.83,1,1,0.0
afp14too3qdtpy7yf24t34qb,1,3,71,pd,2,2.0,0.0,3.887,1,1,0.0
afp14too3qdtpy7yf24t34qb,2,3,55,pd,3,1.0,0.0,6.069,1,1,0.0
afp14too3qdtpy7yf24t34qb,3,3,30,pd,1,0.0,1.0,9.928,1,1,0.0
afp14too3qdtpy7yf24t34qb,4,3,45,pd,2,0.0,1.0,6.352,1,1,0.0
afp14too3qdtpy7yf24t34qb,5,3,11,pd,3,0.0,1.0,6.627,1,1,0.0
afp14too3qdtpy7yf24t34qb,6,3,29,pd,1,0.0,1.0,8.335,1,1,0.0
afp14too3qdtpy7yf24t34qb,7,3,16,md,2,1.0,0.0,9.655,1,1,0.0
afp14too3qdtpy7yf24t34qb,8,3,17,pd,3,0.0,1.0,10.97,1,1,0.0
afp14too3qdtpy7yf24t34qb,9,3,23,md,1,1.0,0.0,9.934,1,1,0.0
afp14too3qdtpy7yf24t34qb,10,3,58,md,2,3.0,0.0,7.336,1,1,0.0
afp14too3qdtpy7yf24t34qb,11,3,35,pd,3,0.0,1.0,10.658,1,1,0.0
afp14too3qdtpy7yf24t34qb,12,3,76,pd,1,0.0,1.0,7.987,1,1,0.0
anvk62nkqtvq89v6zob2vgni,1,3,71,pd,2,0.0,1.0,10.703,1,1,0.0
anvk62nkqtvq89v6zob2vgni,2,3,55,pd,3,0.0,1.0,9.729,1,1,0.0
anvk62nkqtvq89v6zob2vgni,3,3,30,pd,1,0.0,1.0,11.734,1,1,0.0
anvk62nkqtvq89v6zob2vgni,4,3,45,pd,2,0.0,1.0,12.799,1,1,0.0
anvk62nkqtvq89v6zob2vgni,5,3,11,pd,3,0.0,1.0,12.392,1,1,0.0
anvk62nkqtvq89v6zob2vgni,6,3,29,pd,1,0.0,1.0,11.687,1,1,0.0
anvk62nkqtvq89v6zob2vgni,7,3,16,md,2,0.0,1.0,11.14,1,1,0.0
anvk62nkqtvq89v6zob2vgni,8,3,17,pd,3,0.0,1.0,12.416,1,1,0.0
anvk62nkqtvq89v6zob2vgni,9,3,23,md,1,1.0,0.0,9.591,1,1,0.0
anvk62nkqtvq89v6zob2vgni,10,3,58,md,2,0.0,1.0,13.938,1,1,0.0
anvk62nkqtvq89v6zob2vgni,11,3,35,pd,3,0.0,1.0,20.095,1,1,0.0
anvk62nkqtvq89v6zob2vgni,12,3,76,pd,1,0.0,1.0,14.0,1,1,0.0
asix2f04aq38c2o8gdn3j8uk,1,3,71,pd,1,0.0,1.0,12.938,1,1,0.0
asix2f04aq38c2o8gdn3j8uk,2,3,55,pd,2,0.0,1.0,14.512,1,1,0.0
asix2f04aq38c2o8gdn3j8uk,3,3,30,pd,3,0.0,1.0,9.951,1,1,0.0
asix2f04aq38c2o8gdn3j8uk,4,3,45,pd,1,0.0,1.0,15.782,1,1,0.0
asix2f04aq38c2o8gdn3j8uk,5,3,11,pd,2,0.0,1.0,12.004,1,1,0.0
asix2f04aq38c2o8gdn3j8uk,6,3,29,pd,3,0.0,1.0,21.556,1,1,0.0
asix2f04aq38c2o8gdn3j8uk,7,3,16,md,1,0.0,1.0,7.458,1,1,0.0
asix2f04aq38c2o8gdn3j8uk,8,3,17,pd,2,2.0,0.0,17.668,1,1,0.0
asix2f04aq38c2o8gdn3j8uk,9,3,23,md,3,1.0,0.0,10.743,1,1,0.0
asix2f04aq38c2o8gdn3j8uk,10,3,58,md,1,1.0,0.0,17.072,1,1,0.0
asix2f04aq38c2o8gdn3j8uk,11,3,35,pd,2,0.0,1.0,16.343,1,1,0.0
asix2f04aq38c2o8gdn3j8uk,12,3,76,pd,3,3.0,0.0,11.325,1,1,0.0
av4jenhfprndgcu5lslrmlmz,1,3,71,pd,1,0.0,1.0,3.428,1,1,0.0
av4jenhfprndgcu5lslrmlmz,2,3,55,pd,2,0.0,1.0,6.743,1,1,0.0
av4jenhfprndgcu5lslrmlmz,3,3,30,pd,3,3.0,0.0,11.514,1,1,0.0
av4jenhfprndgcu5lslrmlmz,4,3,45,pd,1,0.0,1.0,8.454,1,1,0.0
av4jenhfprndgcu5lslrmlmz,5,3,11,pd,2,0.0,1.0,17.495,1,1,0.0
av4jenhfprndgcu5lslrmlmz,6,3,29,pd,3,0.0,1.0,11.35,1,1,0.0
av4jenhfprndgcu5lslrmlmz,7,3,16,md,1,0.0,1.0,23.02,1,1,0.0
av4jenhfprndgcu5lslrmlmz,8,3,17,pd,2,1.0,0.0,22.717,1,1,0.0
av4jenhfprndgcu5lslrmlmz,9,3,23,md,3,0.0,1.0,24.081,1,1,0.0
av4jenhfprndgcu5lslrmlmz,10,3,58,md,1,0.0,1.0,17.394,1,1,0.0
av4jenhfprndgcu5lslrmlmz,11,3,35,pd,2,0.0,1.0,22.317,1,1,0.0
av4jenhfprndgcu5lslrmlmz,12,3,76,pd,3,0.0,1.0,15.917,1,1,0.0
azj78vq0mta467n8doj63c8h,1,3,71,pd,2,0.0,1.0,9.322,1,1,0.0
azj78vq0mta467n8doj63c8h,2,3,55,pd,3,0.0,1.0,18.446,1,1,0.0
azj78vq0mta467n8doj63c8h,3,3,30,pd,1,,,,1,1,0.0
azj78vq0mta467n8doj63c8h,4,3,45,pd,2,0.0,1.0,12.309,1,1,0.0
azj78vq0mta467n8doj63c8h,5,3,11,pd,3,0.0,1.0,11.011,1,1,0.0
azj78vq0mta467n8doj63c8h,6,3,29,pd,1,0.0,1.0,15.724,1,1,0.0
azj78vq0mta467n8doj63c8h,7,3,16,md,2,0.0,1.0,9.792,1,1,0.0
azj78vq0mta467n8doj63c8h,8,3,17,pd,3,0.0,1.0,27.311,1,1,0.0
azj78vq0mta467n8doj63c8h,9,3,23,md,1,0.0,1.0,24.24,1,1,0.0
azj78vq0mta467n8doj63c8h,10,3,58,md,2,3.0,0.0,26.384,1,1,0.0
azj78vq0mta467n8doj63c8h,11,3,35,pd,3,0.0,1.0,6.834,1,1,0.0
azj78vq0mta467n8doj63c8h,12,3,76,pd,1,3.0,0.0,6.1,1,1,0.0
b9t5ng97lbahokkoc0yb1w17,1,3,71,pd,3,0.0,1.0,4.987,1,1,0.0
b9t5ng97lbahokkoc0yb1w17,2,3,55,pd,1,0.0,1.0,4.776,1,1,0.0
b9t5ng97lbahokkoc0yb1w17,3,3,30,pd,2,0.0,1.0,5.185,1,1,0.0
b9t5ng97lbahokkoc0yb1w17,4,3,45,pd,3,2.0,0.0,6.529,1,1,0.0
b9t5ng97lbahokkoc0yb1w17,5,3,11,pd,1,3.0,0.0,5.399,1,1,0.0
b9t5ng97lbahokkoc0yb1w17,6,3,29,pd,2,2.0,0.0,4.841,1,1,0.0
b9t5ng97lbahokkoc0yb1w17,7,3,16,md,3,1.0,0.0,6.669,1,1,0.0
b9t5ng97lbahokkoc0yb1w17,8,3,17,pd,1,0.0,1.0,4.44,1,1,0.0
b9t5ng97lbahokkoc0yb1w17,9,3,23,md,2,3.0,0.0,5.979,1,1,0.0
b9t5ng97lbahokkoc0yb1w17,10,3,58,md,3,0.0,1.0,5.542,1,1,0.0
b9t5ng97lbahokkoc0yb1w17,11,3,35,pd,1,0.0,1.0,5.668,1,1,0.0
b9t5ng97lbahokkoc0yb1w17,12,3,76,pd,2,1.0,0.0,5.666,1,1,0.0
bibr4vmh4s571rpxxd3izfwn,1,3,71,pd,3,0.0,1.0,8.011,1,1,0.0
bibr4vmh4s571rpxxd3izfwn,2,3,55,pd,1,0.0,1.0,5.772,1,1,0.0
bibr4vmh4s571rpxxd3izfwn,3,3,30,pd,2,0.0,1.0,14.827,1,1,0.0
bibr4vmh4s571rpxxd3izfwn,4,3,45,pd,3,1.0,0.0,13.26,1,1,0.0
bibr4vmh4s571rpxxd3izfwn,5,3,11,pd,1,3.0,0.0,8.484,1,1,0.0
bibr4vmh4s571rpxxd3izfwn,6,3,29,pd,2,0.0,1.0,27.195,1,1,0.0
bibr4vmh4s571rpxxd3izfwn,7,3,16,md,3,0.0,1.0,2.715,1,1,0.0
bibr4vmh4s571rpxxd3izfwn,8,3,17,pd,1,2.0,0.0,2.547,1,1,0.0
bibr4vmh4s571rpxxd3izfwn,9,3,23,md,2,3.0,0.0,2.339,1,1,0.0
bibr4vmh4s571rpxxd3izfwn,10,3,58,md,3,3.0,0.0,2.907,1,1,0.0
bibr4vmh4s571rpxxd3izfwn,11,3,35,pd,1,3.0,0.0,2.626,1,1,0.0
bibr4vmh4s571rpxxd3izfwn,12,3,76,pd,2,3.0,0.0,2.196,1,1,0.0
biehie4hpxkq60sfc84pzplp,1,3,71,pd,1,0.0,1.0,4.128,1,1,0.0
biehie4hpxkq60sfc84pzplp,2,3,55,pd,2,0.0,1.0,5.207,1,1,0.0
biehie4hpxkq60sfc84pzplp,3,3,30,pd,3,0.0,1.0,14.764,1,1,0.0
biehie4hpxkq60sfc84pzplp,4,3,45,pd,1,0.0,1.0,9.654,1,1,0.0
biehie4hpxkq60sfc84pzplp,5,3,11,pd,2,0.0,1.0,21.065,1,1,0.0
biehie4hpxkq60sfc84pzplp,6,3,29,pd,3,3.0,0.0,12.764,1,1,0.0
biehie4hpxkq60sfc84pzplp,7,3,16,md,1,0.0,1.0,10.478,1,1,0.0
biehie4hpxkq60sfc84pzplp,8,3,17,pd,2,1.0,0.0,12.933,1,1,0.0
biehie4hpxkq60sfc84pzplp,9,3,23,md,3,0.0,1.0,6.975,1,1,0.0
biehie4hpxkq60sfc84pzplp,10,3,58,md,1,1.0,0.0,11.022,1,1,0.0
biehie4hpxkq60sfc84pzplp,11,3,35,pd,2,1.0,0.0,18.658,1,1,0.0
biehie4hpxkq60sfc84pzplp,12,3,76,pd,3,0.0,1.0,11.254,1,1,0.0
bnhqnb4drhbfpj3fixyznexn,1,3,71,pd,3,0.0,1.0,8.347,1,1,0.0
bnhqnb4drhbfpj3fixyznexn,2,3,55,pd,2,0.0,1.0,6.397,1,1,0.0
bnhqnb4drhbfpj3fixyznexn,3,3,30,pd,1,0.0,1.0,9.63,1,1,0.0
bnhqnb4drhbfpj3fixyznexn,4,3,45,pd,3,0.0,1.0,8.847,1,1,0.0
bnhqnb4drhbfpj3fixyznexn,5,3,11,pd,2,0.0,1.0,16.96,1,1,0.0
bnhqnb4drhbfpj3fixyznexn,6,3,29,pd,1,0.0,1.0,8.91,1,1,0.0
bnhqnb4drhbfpj3fixyznexn,7,3,16,md,3,0.0,1.0,8.399,1,1,0.0
bnhqnb4drhbfpj3fixyznexn,8,3,17,pd,2,0.0,1.0,10.631,1,1,0.0
bnhqnb4drhbfpj3fixyznexn,9,3,23,md,1,0.0,1.0,10.092,1,1,0.0
bnhqnb4drhbfpj3fixyznexn,10,3,58,md,3,0.0,1.0,8.449,1,1,0.0
bnhqnb4drhbfpj3fixyznexn,11,3,35,pd,2,0.0,1.0,10.51,1,1,0.0
bnhqnb4drhbfpj3fixyznexn,12,3,76,pd,1,0.0,1.0,15.654,1,1,0.0
bppynjwoe619kl445jdxl5yu,1,3,71,pd,3,2.0,0.0,4.052,1,1,0.0
bppynjwoe619kl445jdxl5yu,2,3,55,pd,2,0.0,1.0,9.361,1,1,0.0
bppynjwoe619kl445jdxl5yu,3,3,30,pd,1,0.0,1.0,11.735,1,1,0.0
bppynjwoe619kl445jdxl5yu,4,3,45,pd,3,1.0,0.0,11.366,1,1,0.0
bppynjwoe619kl445jdxl5yu,5,3,11,pd,2,3.0,0.0,11.055,1,1,0.0
bppynjwoe619kl445jdxl5yu,6,3,29,pd,1,0.0,1.0,11.119,1,1,0.0
bppynjwoe619kl445jdxl5yu,7,3,16,md,3,1.0,0.0,6.43,1,1,0.0
bppynjwoe619kl445jdxl5yu,8,3,17,pd,2,1.0,0.0,15.627,1,1,0.0
bppynjwoe619kl445jdxl5yu,9,3,23,md,1,0.0,1.0,25.673,1,1,0.0
bppynjwoe619kl445jdxl5yu,10,3,58,md,3,0.0,1.0,25.681,1,1,0.0
bppynjwoe619kl445jdxl5yu,11,3,35,pd,2,1.0,0.0,14.215,1,1,0.0
bppynjwoe619kl445jdxl5yu,12,3,76,pd,1,,,,1,1,0.0
bw6rdole1yt1jot1wgxfzimi,1,3,71,pd,3,,,,0,1,1.0
bw6rdole1yt1jot1wgxfzimi,2,3,55,pd,2,,,,1,1,1.0
bw6rdole1yt1jot1wgxfzimi,3,3,30,pd,1,2.0,0.0,21.562,0,1,0.0
bw6rdole1yt1jot1wgxfzimi,4,3,45,pd,3,0.0,1.0,18.66,1,1,0.0
bw6rdole1yt1jot1wgxfzimi,5,3,11,pd,2,0.0,1.0,15.966,1,1,0.0
bw6rdole1yt1jot1wgxfzimi,6,3,29,pd,1,0.0,1.0,12.54,1,1,0.0
bw6rdole1yt1jot1wgxfzimi,7,3,16,md,3,0.0,1.0,10.631,1,1,0.0
bw6rdole1yt1jot1wgxfzimi,8,3,17,pd,2,0.0,1.0,14.865,1,1,0.0
bw6rdole1yt1jot1wgxfzimi,9,3,23,md,1,0.0,1.0,13.221,1,1,0.0
bw6rdole1yt1jot1wgxfzimi,10,3,58,md,3,0.0,1.0,19.841,1,1,0.0
bw6rdole1yt1jot1wgxfzimi,11,3,35,pd,2,3.0,0.0,16.594,1,1,0.0
bw6rdole1yt1jot1wgxfzimi,12,3,76,pd,1,0.0,1.0,15.146,1,1,0.0
byjabzdbugkiw5v2g2rhwok3,1,3,71,pd,1,2.0,0.0,4.582,1,1,0.0
byjabzdbugkiw5v2g2rhwok3,2,3,55,pd,2,0.0,1.0,19.659,1,1,0.0
byjabzdbugkiw5v2g2rhwok3,3,3,30,pd,3,3.0,0.0,9.998,1,1,0.0
byjabzdbugkiw5v2g2rhwok3,4,3,45,pd,1,0.0,1.0,17.014,1,1,0.0
byjabzdbugkiw5v2g2rhwok3,5,3,11,pd,2,1.0,0.0,11.731,1,1,0.0
byjabzdbugkiw5v2g2rhwok3,6,3,29,pd,3,0.0,1.0,11.284,1,1,0.0
byjabzdbugkiw5v2g2rhwok3,7,3,16,md,1,3.0,0.0,14.058,1,1,0.0
byjabzdbugkiw5v2g2rhwok3,8,3,17,pd,2,0.0,1.0,15.328,1,1,0.0
byjabzdbugkiw5v2g2rhwok3,9,3,23,md,3,0.0,1.0,14.0,1,1,0.0
byjabzdbugkiw5v2g2rhwok3,10,3,58,md,1,1.0,0.0,14.45,1,1,0.0
byjabzdbugkiw5v2g2rhwok3,11,3,35,pd,2,0.0,1.0,12.946,1,1,0.0
byjabzdbugkiw5v2g2rhwok3,12,3,76,pd,3,3.0,0.0,15.723,1,1,0.0
ccizjdhpne8gyrqv46ky4uzr,1,3,71,pd,3,0.0,1.0,15.114,1,1,0.0
ccizjdhpne8gyrqv46ky4uzr,2,3,55,pd,2,0.0,1.0,10.44,1,1,0.0
ccizjdhpne8gyrqv46ky4uzr,3,3,30,pd,1,0.0,1.0,11.51,1,1,0.0
ccizjdhpne8gyrqv46ky4uzr,4,3,45,pd,3,0.0,1.0,25.081,1,1,0.0
ccizjdhpne8gyrqv46ky4uzr,5,3,11,pd,2,0.0,1.0,15.029,1,1,0.0
ccizjdhpne8gyrqv46ky4uzr,6,3,29,pd,1,0.0,1.0,16.151,1,1,0.0
ccizjdhpne8gyrqv46ky4uzr,7,3,16,md,3,0.0,1.0,16.231,1,1,0.0
ccizjdhpne8gyrqv46ky4uzr,8,3,17,pd,2,0.0,1.0,23.61,1,1,0.0
ccizjdhpne8gyrqv46ky4uzr,9,3,23,md,1,0.0,1.0,14.728,1,1,0.0
ccizjdhpne8gyrqv46ky4uzr,10,3,58,md,3,0.0,1.0,14.415,1,1,0.0
ccizjdhpne8gyrqv46ky4uzr,11,3,35,pd,2,0.0,1.0,19.07,1,1,0.0
ccizjdhpne8gyrqv46ky4uzr,12,3,76,pd,1,0.0,1.0,18.693,1,1,0.0
cf2exwv92q3639ajwcqxjp6h,1,3,71,pd,1,0.0,1.0,18.668,1,1,0.0
cf2exwv92q3639ajwcqxjp6h,2,3,55,pd,2,0.0,1.0,26.518,1,1,0.0
cf2exwv92q3639ajwcqxjp6h,3,3,30,pd,3,0.0,1.0,23.707,1,1,0.0
cf2exwv92q3639ajwcqxjp6h,4,3,45,pd,1,0.0,1.0,13.091,1,1,0.0
cf2exwv92q3639ajwcqxjp6h,5,3,11,pd,2,3.0,0.0,13.518,1,1,0.0
cf2exwv92q3639ajwcqxjp6h,6,3,29,pd,3,0.0,1.0,10.457,0,1,0.0
cf2exwv92q3639ajwcqxjp6h,7,3,16,md,1,3.0,0.0,29.696,0,1,0.0
cf2exwv92q3639ajwcqxjp6h,8,3,17,pd,2,1.0,0.0,26.544,0,1,1.0
cf2exwv92q3639ajwcqxjp6h,9,3,23,md,3,0.0,1.0,19.389,1,1,0.0
cf2exwv92q3639ajwcqxjp6h,10,3,58,md,1,0.0,1.0,23.232,1,1,0.0
cf2exwv92q3639ajwcqxjp6h,11,3,35,pd,2,1.0,0.0,19.614,0,1,0.0
cf2exwv92q3639ajwcqxjp6h,12,3,76,pd,3,0.0,1.0,15.023,0,1,0.0
ckqu6fi3n6f4rlwc3ews3ce8,1,3,71,pd,1,2.0,0.0,6.112,1,1,0.0
ckqu6fi3n6f4rlwc3ews3ce8,2,3,55,pd,2,0.0,1.0,11.061,1,1,0.0
ckqu6fi3n6f4rlwc3ews3ce8,3,3,30,pd,3,1.0,0.0,13.103,1,1,0.0
ckqu6fi3n6f4rlwc3ews3ce8,4,3,45,pd,1,0.0,1.0,12.772,1,1,0.0
ckqu6fi3n6f4rlwc3ews3ce8,5,3,11,pd,2,1.0,0.0,23.677,1,1,0.0
ckqu6fi3n6f4rlwc3ews3ce8,6,3,29,pd,3,3.0,0.0,23.664,1,1,0.0
ckqu6fi3n6f4rlwc3ews3ce8,7,3,16,md,1,3.0,0.0,11.197,1,1,0.0
ckqu6fi3n6f4rlwc3ews3ce8,8,3,17,pd,2,2.0,0.0,18.929,1,1,0.0
ckqu6fi3n6f4rlwc3ews3ce8,9,3,23,md,3,2.0,0.0,7.38,1,1,0.0
ckqu6fi3n6f4rlwc3ews3ce8,10,3,58,md,1,1.0,0.0,9.359,1,1,0.0
ckqu6fi3n6f4rlwc3ews3ce8,11,3,35,pd,2,2.0,0.0,28.461,1,1,0.0
ckqu6fi3n6f4rlwc3ews3ce8,12,3,76,pd,3,0.0,1.0,8.94,1,1,0.0
cuxfw7tycjvu55m9g9bt7p60,1,3,71,pd,1,0.0,1.0,9.765,1,1,0.0
cuxfw7tycjvu55m9g9bt7p60,2,3,55,pd,2,0.0,1.0,12.753,1,1,0.0
cuxfw7tycjvu55m9g9bt7p60,3,3,30,pd,3,0.0,1.0,24.206,1,1,0.0
cuxfw7tycjvu55m9g9bt7p60,4,3,45,pd,1,0.0,1.0,17.119,1,1,0.0
cuxfw7tycjvu55m9g9bt7p60,5,3,11,pd,2,0.0,1.0,20.275,1,1,0.0
cuxfw7tycjvu55m9g9bt7p60,6,3,29,pd,3,0.0,1.0,15.328,0,1,0.0
cuxfw7tycjvu55m9g9bt7p60,7,3,16,md,1,0.0,1.0,12.057,1,1,0.0
cuxfw7tycjvu55m9g9bt7p60,8,3,17,pd,2,,,,1,1,0.0
cuxfw7tycjvu55m9g9bt7p60,9,3,23,md,3,0.0,1.0,16.409,1,1,0.0
cuxfw7tycjvu55m9g9bt7p60,10,3,58,md,1,0.0,1.0,16.249,0,1,0.0
cuxfw7tycjvu55m9g9bt7p60,11,3,35,pd,2,0.0,1.0,20.934,0,1,0.0
cuxfw7tycjvu55m9g9bt7p60,12,3,76,pd,3,0.0,1.0,25.904,1,1,0.0
d4bq4ejxbk7pr3js2mbpxvnv,1,3,71,pd,1,0.0,1.0,7.8,1,1,0.0
d4bq4ejxbk7pr3js2mbpxvnv,2,3,55,pd,2,1.0,0.0,28.794,1,1,0.0
d4bq4ejxbk7pr3js2mbpxvnv,3,3,30,pd,3,3.0,0.0,16.894,1,1,0.0
d4bq4ejxbk7pr3js2mbpxvnv,4,3,45,pd,1,0.0,1.0,16.307,1,1,0.0
d4bq4ejxbk7pr3js2mbpxvnv,5,3,11,pd,2,0.0,1.0,20.762,1,1,0.0
d4bq4ejxbk7pr3js2mbpxvnv,6,3,29,pd,3,3.0,0.0,9.348,1,1,0.0
d4bq4ejxbk7pr3js2mbpxvnv,7,3,16,md,1,3.0,0.0,20.608,1,1,0.0
d4bq4ejxbk7pr3js2mbpxvnv,8,3,17,pd,2,0.0,1.0,17.489,1,1,0.0
d4bq4ejxbk7pr3js2mbpxvnv,9,3,23,md,3,3.0,0.0,16.136,1,1,0.0
d4bq4ejxbk7pr3js2mbpxvnv,10,3,58,md,1,0.0,1.0,14.571,1,1,0.0
d4bq4ejxbk7pr3js2mbpxvnv,11,3,35,pd,2,0.0,1.0,22.283,1,1,0.0
d4bq4ejxbk7pr3js2mbpxvnv,12,3,76,pd,3,0.0,1.0,21.679,1,1,0.0
de5c3l1czdxwwc2gc8g08i0w,1,3,71,pd,2,2.0,0.0,4.193,1,1,0.0
de5c3l1czdxwwc2gc8g08i0w,2,3,55,pd,3,1.0,0.0,11.667,1,1,0.0
de5c3l1czdxwwc2gc8g08i0w,3,3,30,pd,1,3.0,0.0,10.45,1,1,0.0
de5c3l1czdxwwc2gc8g08i0w,4,3,45,pd,2,0.0,1.0,7.275,1,1,0.0
de5c3l1czdxwwc2gc8g08i0w,5,3,11,pd,3,3.0,0.0,10.966,1,1,0.0
de5c3l1czdxwwc2gc8g08i0w,6,3,29,pd,1,3.0,0.0,13.763,1,1,0.0
de5c3l1czdxwwc2gc8g08i0w,7,3,16,md,2,3.0,0.0,15.745,1,1,0.0
de5c3l1czdxwwc2gc8g08i0w,8,3,17,pd,3,1.0,0.0,5.429,1,1,0.0
de5c3l1czdxwwc2gc8g08i0w,9,3,23,md,1,3.0,0.0,10.724,1,1,0.0
de5c3l1czdxwwc2gc8g08i0w,10,3,58,md,2,1.0,0.0,8.806,1,1,0.0
de5c3l1czdxwwc2gc8g08i0w,11,3,35,pd,3,2.0,0.0,5.485,1,1,0.0
de5c3l1czdxwwc2gc8g08i0w,12,3,76,pd,1,1.0,0.0,6.193,1,1,0.0
dqrv28q6hr0c4l37490i85xy,1,3,71,pd,3,2.0,0.0,4.563,1,1,0.0
dqrv28q6hr0c4l37490i85xy,2,3,55,pd,1,2.0,0.0,11.941,1,1,0.0
dqrv28q6hr0c4l37490i85xy,3,3,30,pd,2,0.0,1.0,11.044,1,1,0.0
dqrv28q6hr0c4l37490i85xy,4,3,45,pd,3,2.0,0.0,15.545,1,1,0.0
dqrv28q6hr0c4l37490i85xy,5,3,11,pd,1,0.0,1.0,14.094,1,1,0.0
dqrv28q6hr0c4l37490i85xy,6,3,29,pd,2,0.0,1.0,10.501,1,1,0.0
dqrv28q6hr0c4l37490i85xy,7,3,16,md,3,0.0,1.0,13.59,1,1,0.0
dqrv28q6hr0c4l37490i85xy,8,3,17,pd,1,0.0,1.0,16.579,1,1,0.0
dqrv28q6hr0c4l37490i85xy,9,3,23,md,2,0.0,1.0,18.239,1,1,0.0
dqrv28q6hr0c4l37490i85xy,10,3,58,md,3,0.0,1.0,28.512,1,1,0.0
dqrv28q6hr0c4l37490i85xy,11,3,35,pd,1,0.0,1.0,14.705,1,1,0.0
dqrv28q6hr0c4l37490i85xy,12,3,76,pd,2,2.0,0.0,28.991,1,1,0.0
e3214r8tm5mfp8lm8ih2lice,1,3,71,pd,2,2.0,0.0,10.844,1,1,0.0
e3214r8tm5mfp8lm8ih2lice,2,3,55,pd,3,0.0,1.0,26.477,1,1,0.0
e3214r8tm5mfp8lm8ih2lice,3,3,30,pd,1,3.0,0.0,19.125,1,1,0.0
e3214r8tm5mfp8lm8ih2lice,4,3,45,pd,2,0.0,1.0,24.205,1,1,0.0
e3214r8tm5mfp8lm8ih2lice,5,3,11,pd,3,0.0,1.0,18.149,1,1,0.0
e3214r8tm5mfp8lm8ih2lice,6,3,29,pd,1,1.0,0.0,19.652,1,1,0.0
e3214r8tm5mfp8lm8ih2lice,7,3,16,md,2,3.0,0.0,18.423,1,1,0.0
e3214r8tm5mfp8lm8ih2lice,8,3,17,pd,3,0.0,1.0,14.255,1,1,0.0
e3214r8tm5mfp8lm8ih2lice,9,3,23,md,1,0.0,1.0,21.619,1,1,0.0
e3214r8tm5mfp8lm8ih2lice,10,3,58,md,2,1.0,0.0,15.71,1,1,0.0
e3214r8tm5mfp8lm8ih2lice,11,3,35,pd,3,2.0,0.0,9.218,1,1,0.0
e3214r8tm5mfp8lm8ih2lice,12,3,76,pd,1,1.0,0.0,3.054,1,1,0.0
e376vxc79im577e1uo2asiry,1,3,71,pd,2,0.0,1.0,7.503,1,1,0.0
e376vxc79im577e1uo2asiry,2,3,55,pd,3,0.0,1.0,10.736,1,1,0.0
e376vxc79im577e1uo2asiry,3,3,30,pd,1,0.0,1.0,8.262,1,1,0.0
e376vxc79im577e1uo2asiry,4,3,45,pd,2,0.0,1.0,14.995,1,1,0.0
e376vxc79im577e1uo2asiry,5,3,11,pd,3,0.0,1.0,11.646,1,1,0.0
e376vxc79im577e1uo2asiry,6,3,29,pd,1,0.0,1.0,7.404,1,1,0.0
e376vxc79im577e1uo2asiry,7,3,16,md,2,0.0,1.0,23.588,1,1,0.0
e376vxc79im577e1uo2asiry,8,3,17,pd,3,1.0,0.0,28.351,1,1,0.0
e376vxc79im577e1uo2asiry,9,3,23,md,1,0.0,1.0,22.258,1,1,0.0
e376vxc79im577e1uo2asiry,10,3,58,md,2,0.0,1.0,8.571,1,1,0.0
e376vxc79im577e1uo2asiry,11,3,35,pd,3,0.0,1.0,26.618,1,1,0.0
e376vxc79im577e1uo2asiry,12,3,76,pd,1,2.0,0.0,24.972,1,1,0.0
eqbm3l2nnu77opdbld781z3b,1,3,71,pd,1,0.0,1.0,5.854,1,1,0.0
eqbm3l2nnu77opdbld781z3b,2,3,55,pd,2,1.0,0.0,7.037,1,1,0.0
eqbm3l2nnu77opdbld781z3b,3,3,30,pd,3,0.0,1.0,6.554,1,1,0.0
eqbm3l2nnu77opdbld781z3b,4,3,45,pd,1,3.0,0.0,8.286,1,1,0.0
eqbm3l2nnu77opdbld781z3b,5,3,11,pd,2,0.0,1.0,7.622,1,1,0.0
eqbm3l2nnu77opdbld781z3b,6,3,29,pd,3,0.0,1.0,2.876,1,1,0.0
eqbm3l2nnu77opdbld781z3b,7,3,16,md,1,0.0,1.0,6.715,1,1,0.0
eqbm3l2nnu77opdbld781z3b,8,3,17,pd,2,3.0,0.0,6.658,1,1,0.0
eqbm3l2nnu77opdbld781z3b,9,3,23,md,3,2.0,0.0,9.113,1,1,0.0
eqbm3l2nnu77opdbld781z3b,10,3,58,md,1,3.0,0.0,3.269,1,1,0.0
eqbm3l2nnu77opdbld781z3b,11,3,35,pd,2,2.0,0.0,1.944,1,1,0.0
eqbm3l2nnu77opdbld781z3b,12,3,76,pd,3,0.0,1.0,4.673,1,1,0.0
etifpx88lv661gdbbif4i05f,1,3,71,pd,2,2.0,0.0,5.395,1,1,0.0
etifpx88lv661gdbbif4i05f,2,3,55,pd,3,0.0,1.0,12.006,1,1,0.0
etifpx88lv661gdbbif4i05f,3,3,30,pd,1,0.0,1.0,11.959,1,1,0.0
etifpx88lv661gdbbif4i05f,4,3,45,pd,2,0.0,1.0,6.939,1,1,0.0
etifpx88lv661gdbbif4i05f,5,3,11,pd,3,1.0,0.0,15.614,1,1,0.0
etifpx88lv661gdbbif4i05f,6,3,29,pd,1,2.0,0.0,17.271,1,1,0.0
etifpx88lv661gdbbif4i05f,7,3,16,md,2,1.0,0.0,22.738,1,1,0.0
etifpx88lv661gdbbif4i05f,8,3,17,pd,3,1.0,0.0,25.111,1,1,0.0
etifpx88lv661gdbbif4i05f,9,3,23,md,1,3.0,0.0,18.236,1,1,0.0
etifpx88lv661gdbbif4i05f,10,3,58,md,2,0.0,1.0,17.891,1,1,0.0
etifpx88lv661gdbbif4i05f,11,3,35,pd,3,0.0,1.0,26.558,1,1,0.0
etifpx88lv661gdbbif4i05f,12,3,76,pd,1,2.0,0.0,13.081,1,1,0.0
ew4bdx3qy5fntm3689ooxatw,1,3,71,pd,3,2.0,0.0,17.526,1,1,0.0
ew4bdx3qy5fntm3689ooxatw,2,3,55,pd,1,0.0,1.0,20.964,1,1,0.0
ew4bdx3qy5fntm3689ooxatw,3,3,30,pd,2,0.0,1.0,8.656,1,1,0.0
ew4bdx3qy5fntm3689ooxatw,4,3,45,pd,3,0.0,1.0,22.936,1,1,0.0
ew4bdx3qy5fntm3689ooxatw,5,3,11,pd,1,3.0,0.0,5.121,1,1,0.0
ew4bdx3qy5fntm3689ooxatw,6,3,29,pd,2,1.0,0.0,27.863,1,1,0.0
ew4bdx3qy5fntm3689ooxatw,7,3,16,md,3,3.0,0.0,17.155,1,1,0.0
ew4bdx3qy5fntm3689ooxatw,8,3,17,pd,1,1.0,0.0,9.096,1,1,0.0
ew4bdx3qy5fntm3689ooxatw,9,3,23,md,2,0.0,1.0,1.876,1,1,0.0
ew4bdx3qy5fntm3689ooxatw,10,3,58,md,3,2.0,0.0,3.465,1,1,0.0
ew4bdx3qy5fntm3689ooxatw,11,3,35,pd,1,0.0,1.0,1.098,1,1,0.0
ew4bdx3qy5fntm3689ooxatw,12,3,76,pd,2,2.0,0.0,1.57,1,1,0.0
ez50wkrb4elook0xp2tbgyuo,1,3,71,pd,3,0.0,1.0,10.491,1,1,0.0
ez50wkrb4elook0xp2tbgyuo,2,3,55,pd,2,0.0,1.0,18.358,1,1,0.0
ez50wkrb4elook0xp2tbgyuo,3,3,30,pd,1,0.0,1.0,24.468,1,1,0.0
ez50wkrb4elook0xp2tbgyuo,4,3,45,pd,3,0.0,1.0,29.648,1,1,0.0
ez50wkrb4elook0xp2tbgyuo,5,3,11,pd,2,2.0,0.0,27.875,1,1,0.0
ez50wkrb4elook0xp2tbgyuo,6,3,29,pd,1,0.0,1.0,21.116,1,1,0.0
ez50wkrb4elook0xp2tbgyuo,7,3,16,md,3,0.0,1.0,18.706,1,1,0.0
ez50wkrb4elook0xp2tbgyuo,8,3,17,pd,2,0.0,1.0,28.71,1,1,0.0
ez50wkrb4elook0xp2tbgyuo,9,3,23,md,1,0.0,1.0,22.403,1,1,0.0
ez50wkrb4elook0xp2tbgyuo,10,3,58,md,3,2.0,0.0,27.521,1,1,0.0
ez50wkrb4elook0xp2tbgyuo,11,3,35,pd,2,0.0,1.0,23.364,1,1,0.0
ez50wkrb4elook0xp2tbgyuo,12,3,76,pd,1,1.0,0.0,20.735,1,1,0.0
fimuhhhzamh5xwqtsmhbkoki,1,3,71,pd,2,0.0,1.0,8.475,1,1,0.0
fimuhhhzamh5xwqtsmhbkoki,2,3,55,pd,3,0.0,1.0,15.941,1,1,0.0
fimuhhhzamh5xwqtsmhbkoki,3,3,30,pd,1,3.0,0.0,19.147,1,1,0.0
fimuhhhzamh5xwqtsmhbkoki,4,3,45,pd,2,0.0,1.0,18.261,1,1,0.0
fimuhhhzamh5xwqtsmhbkoki,5,3,11,pd,3,3.0,0.0,28.104,1,1,0.0
fimuhhhzamh5xwqtsmhbkoki,6,3,29,pd,1,0.0,1.0,8.74,1,1,0.0
fimuhhhzamh5xwqtsmhbkoki,7,3,16,md,2,0.0,1.0,9.018,1,1,0.0
fimuhhhzamh5xwqtsmhbkoki,8,3,17,pd,3,0.0,1.0,29.475,1,1,0.0
fimuhhhzamh5xwqtsmhbkoki,9,3,23,md,1,0.0,1.0,15.975,1,1,0.0
fimuhhhzamh5xwqtsmhbkoki,10,3,58,md,2,0.0,1.0,16.168,1,1,0.0
fimuhhhzamh5xwqtsmhbkoki,11,3,35,pd,3,1.0,0.0,28.938,1,1,0.0
fimuhhhzamh5xwqtsmhbkoki,12,3,76,pd,1,0.0,1.0,18.683,1,1,0.0
fu89agc2b6e3t5wq03vs9abf,1,3,71,pd,1,0.0,1.0,6.692,1,1,0.0
fu89agc2b6e3t5wq03vs9abf,2,3,55,pd,2,0.0,1.0,8.79,1,1,0.0
fu89agc2b6e3t5wq03vs9abf,3,3,30,pd,3,0.0,1.0,15.449,1,1,0.0
fu89agc2b6e3t5wq03vs9abf,4,3,45,pd,1,3.0,0.0,1.954,1,1,0.0
fu89agc2b6e3t5wq03vs9abf,5,3,11,pd,2,1.0,0.0,21.112,1,1,0.0
fu89agc2b6e3t5wq03vs9abf,6,3,29,pd,3,1.0,0.0,20.668,1,1,0.0
fu89agc2b6e3t5wq03vs9abf,7,3,16,md,1,3.0,0.0,22.307,1,1,0.0
fu89agc2b6e3t5wq03vs9abf,8,3,17,pd,2,0.0,1.0,19.971,1,1,0.0
fu89agc2b6e3t5wq03vs9abf,9,3,23,md,3,0.0,1.0,16.473,1,1,0.0
fu89agc2b6e3t5wq03vs9abf,10,3,58,md,1,1.0,0.0,21.912,1,1,0.0
fu89agc2b6e3t5wq03vs9abf,11,3,35,pd,2,1.0,0.0,16.09,1,1,0.0
fu89agc2b6e3t5wq03vs9abf,12,3,76,pd,3,1.0,0.0,27.1,1,1,0.0
fv2qc1wl1kwo3gko65urpe2f,1,3,71,pd,3,0.0,1.0,6.834,1,1,0.0
fv2qc1wl1kwo3gko65urpe2f,2,3,55,pd,1,0.0,1.0,14.346,1,1,0.0
fv2qc1wl1kwo3gko65urpe2f,3,3,30,pd,2,0.0,1.0,11.328,1,1,0.0
fv2qc1wl1kwo3gko65urpe2f,4,3,45,pd,3,0.0,1.0,8.222,1,1,0.0
fv2qc1wl1kwo3gko65urpe2f,5,3,11,pd,1,0.0,1.0,13.224,1,1,0.0
fv2qc1wl1kwo3gko65urpe2f,6,3,29,pd,2,0.0,1.0,6.158,1,1,0.0
fv2qc1wl1kwo3gko65urpe2f,7,3,16,md,3,3.0,0.0,12.966,1,1,0.0
fv2qc1wl1kwo3gko65urpe2f,8,3,17,pd,1,0.0,1.0,11.224,1,1,0.0
fv2qc1wl1kwo3gko65urpe2f,9,3,23,md,2,0.0,1.0,14.213,1,1,0.0
fv2qc1wl1kwo3gko65urpe2f,10,3,58,md,3,0.0,1.0,7.991,1,1,0.0
fv2qc1wl1kwo3gko65urpe2f,11,3,35,pd,1,0.0,1.0,17.974,1,1,0.0
fv2qc1wl1kwo3gko65urpe2f,12,3,76,pd,2,0.0,1.0,9.92,1,1,0.0
fyagt08ad8rhqjm1n4krn44n,1,3,71,pd,1,0.0,1.0,5.416,1,1,0.0
fyagt08ad8rhqjm1n4krn44n,2,3,55,pd,2,0.0,1.0,12.802,1,1,0.0
fyagt08ad8rhqjm1n4krn44n,3,3,30,pd,3,0.0,1.0,8.355,1,1,0.0
fyagt08ad8rhqjm1n4krn44n,4,3,45,pd,1,0.0,1.0,8.073,1,1,0.0
fyagt08ad8rhqjm1n4krn44n,5,3,11,pd,2,0.0,1.0,15.644,1,1,0.0
fyagt08ad8rhqjm1n4krn44n,6,3,29,pd,3,0.0,1.0,8.87,1,1,0.0
fyagt08ad8rhqjm1n4krn44n,7,3,16,md,1,0.0,1.0,4.443,1,1,0.0
fyagt08ad8rhqjm1n4krn44n,8,3,17,pd,2,0.0,1.0,9.011,1,1,0.0
fyagt08ad8rhqjm1n4krn44n,9,3,23,md,3,0.0,1.0,11.317,1,1,0.0
fyagt08ad8rhqjm1n4krn44n,10,3,58,md,1,0.0,1.0,9.0,1,1,0.0
fyagt08ad8rhqjm1n4krn44n,11,3,35,pd,2,0.0,1.0,16.993,1,1,0.0
fyagt08ad8rhqjm1n4krn44n,12,3,76,pd,3,1.0,0.0,19.103,1,1,0.0
g9mk524o0jgndv79kvb7ider,1,3,71,pd,2,0.0,1.0,4.955,1,1,0.0
g9mk524o0jgndv79kvb7ider,2,3,55,pd,3,2.0,0.0,6.846,1,1,0.0
g9mk524o0jgndv79kvb7ider,3,3,30,pd,1,3.0,0.0,11.338,1,1,0.0
g9mk524o0jgndv79kvb7ider,4,3,45,pd,2,2.0,0.0,11.729,1,1,0.0
g9mk524o0jgndv79kvb7ider,5,3,11,pd,3,0.0,1.0,10.041,1,1,0.0
g9mk524o0jgndv79kvb7ider,6,3,29,pd,1,0.0,1.0,11.642,1,1,0.0
g9mk524o0jgndv79kvb7ider,7,3,16,md,2,0.0,1.0,9.814,1,1,0.0
g9mk524o0jgndv79kvb7ider,8,3,17,pd,3,1.0,0.0,12.733,1,1,0.0
g9mk524o0jgndv79kvb7ider,9,3,23,md,1,0.0,1.0,12.254,1,1,0.0
g9mk524o0jgndv79kvb7ider,10,3,58,md,2,2.0,0.0,22.85,1,1,0.0
g9mk524o0jgndv79kvb7ider,11,3,35,pd,3,2.0,0.0,13.647,1,1,0.0
g9mk524o0jgndv79kvb7ider,12,3,76,pd,1,1.0,0.0,15.226,1,1,0.0
ggk9m091rqrozt1olw3xwtap,1,3,71,pd,2,0.0,1.0,9.957,1,1,0.0
ggk9m091rqrozt1olw3xwtap,2,3,55,pd,3,0.0,1.0,10.831,1,1,0.0
ggk9m091rqrozt1olw3xwtap,3,3,30,pd,1,0.0,1.0,18.847,1,1,0.0
ggk9m091rqrozt1olw3xwtap,4,3,45,pd,2,0.0,1.0,20.544,1,1,0.0
ggk9m091rqrozt1olw3xwtap,5,3,11,pd,3,0.0,1.0,21.565,1,1,0.0
ggk9m091rqrozt1olw3xwtap,6,3,29,pd,1,0.0,1.0,23.192,1,1,0.0
ggk9m091rqrozt1olw3xwtap,7,3,16,md,2,0.0,1.0,8.984,1,1,0.0
ggk9m091rqrozt1olw3xwtap,8,3,17,pd,3,,,,1,1,0.0
ggk9m091rqrozt1olw3xwtap,9,3,23,md,1,0.0,1.0,15.17,1,1,0.0
ggk9m091rqrozt1olw3xwtap,10,3,58,md,2,0.0,1.0,10.464,1,1,0.0
ggk9m091rqrozt1olw3xwtap,11,3,35,pd,3,0.0,1.0,25.649,1,1,0.0
ggk9m091rqrozt1olw3xwtap,12,3,76,pd,1,0.0,1.0,24.04,1,1,0.0
gj44aa56fjnz93pzshgpycyj,1,3,71,pd,1,0.0,1.0,9.001,1,1,0.0
gj44aa56fjnz93pzshgpycyj,2,3,55,pd,2,0.0,1.0,10.732,1,1,0.0
gj44aa56fjnz93pzshgpycyj,3,3,30,pd,3,0.0,1.0,12.074,1,1,0.0
gj44aa56fjnz93pzshgpycyj,4,3,45,pd,1,2.0,0.0,18.717,1,1,0.0
gj44aa56fjnz93pzshgpycyj,5,3,11,pd,2,0.0,1.0,20.722,1,1,0.0
gj44aa56fjnz93pzshgpycyj,6,3,29,pd,3,0.0,1.0,12.168,1,1,0.0
gj44aa56fjnz93pzshgpycyj,7,3,16,md,1,0.0,1.0,20.704,1,1,0.0
gj44aa56fjnz93pzshgpycyj,8,3,17,pd,2,1.0,0.0,26.299,1,1,0.0
gj44aa56fjnz93pzshgpycyj,9,3,23,md,3,0.0,1.0,17.999,1,1,0.0
gj44aa56fjnz93pzshgpycyj,10,3,58,md,1,0.0,1.0,19.535,1,1,0.0
gj44aa56fjnz93pzshgpycyj,11,3,35,pd,2,0.0,1.0,28.395,1,1,0.0
gj44aa56fjnz93pzshgpycyj,12,3,76,pd,3,1.0,0.0,17.498,1,1,0.0
gn2s9zqfcrwaor508oc2ni1p,1,3,71,pd,2,0.0,1.0,4.602,1,1,0.0
gn2s9zqfcrwaor508oc2ni1p,2,3,55,pd,3,0.0,1.0,8.181,1,1,0.0
gn2s9zqfcrwaor508oc2ni1p,3,3,30,pd,1,0.0,1.0,5.774,1,1,0.0
gn2s9zqfcrwaor508oc2ni1p,4,3,45,pd,2,0.0,1.0,10.0,1,1,0.0
gn2s9zqfcrwaor508oc2ni1p,5,3,11,pd,3,3.0,0.0,6.446,1,1,0.0
gn2s9zqfcrwaor508oc2ni1p,6,3,29,pd,1,0.0,1.0,3.278,1,1,0.0
gn2s9zqfcrwaor508oc2ni1p,7,3,16,md,2,0.0,1.0,7.647,1,1,0.0
gn2s9zqfcrwaor508oc2ni1p,8,3,17,pd,3,1.0,0.0,13.245,1,1,0.0
gn2s9zqfcrwaor508oc2ni1p,9,3,23,md,1,3.0,0.0,22.469,1,1,0.0
gn2s9zqfcrwaor508oc2ni1p,10,3,58,md,2,1.0,0.0,7.219,1,1,0.0
gn2s9zqfcrwaor508oc2ni1p,11,3,35,pd,3,0.0,1.0,15.048,1,1,0.0
gn2s9zqfcrwaor508oc2ni1p,12,3,76,pd,1,0.0,1.0,20.648,1,1,0.0
gpw6vareka5vxe8727s7benc,1,3,71,pd,2,0.0,1.0,11.065,1,1,0.0
gpw6vareka5vxe8727s7benc,2,3,55,pd,3,0.0,1.0,12.639,1,1,0.0
gpw6vareka5vxe8727s7benc,3,3,30,pd,1,0.0,1.0,14.641,1,1,0.0
gpw6vareka5vxe8727s7benc,4,3,45,pd,2,0.0,1.0,12.805,1,1,0.0
gpw6vareka5vxe8727s7benc,5,3,11,pd,3,1.0,0.0,28.393,1,1,0.0
gpw6vareka5vxe8727s7benc,6,3,29,pd,1,0.0,1.0,9.185,1,1,0.0
gpw6vareka5vxe8727s7benc,7,3,16,md,2,0.0,1.0,13.703,1,1,0.0
gpw6vareka5vxe8727s7benc,8,3,17,pd,3,0.0,1.0,26.604,1,1,0.0
gpw6vareka5vxe8727s7benc,9,3,23,md,1,0.0,1.0,9.262,1,1,0.0
gpw6vareka5vxe8727s7benc,10,3,58,md,2,0.0,1.0,19.882,1,1,0.0
gpw6vareka5vxe8727s7benc,11,3,35,pd,3,0.0,1.0,14.768,1,1,0.0
gpw6vareka5vxe8727s7benc,12,3,76,pd,1,0.0,1.0,11.383,1,1,0.0
hh1owoc1aqd3rcinmc56z68n,1,3,71,pd,3,0.0,1.0,11.331,1,1,0.0
hh1owoc1aqd3rcinmc56z68n,2,3,55,pd,1,0.0,1.0,6.548,1,1,0.0
hh1owoc1aqd3rcinmc56z68n,3,3,30,pd,2,0.0,1.0,16.372,1,1,0.0
hh1owoc1aqd3rcinmc56z68n,4,3,45,pd,3,0.0,1.0,19.825,1,1,0.0
hh1owoc1aqd3rcinmc56z68n,5,3,11,pd,1,0.0,1.0,20.207,1,1,0.0
hh1owoc1aqd3rcinmc56z68n,6,3,29,pd,2,0.0,1.0,29.115,1,1,0.0
hh1owoc1aqd3rcinmc56z68n,7,3,16,md,3,0.0,1.0,13.641,1,1,0.0
hh1owoc1aqd3rcinmc56z68n,8,3,17,pd,1,0.0,1.0,16.843,1,1,0.0
hh1owoc1aqd3rcinmc56z68n,9,3,23,md,2,0.0,1.0,11.658,1,1,0.0
hh1owoc1aqd3rcinmc56z68n,10,3,58,md,3,0.0,1.0,15.234,1,1,0.0
hh1owoc1aqd3rcinmc56z68n,11,3,35,pd,1,0.0,1.0,22.8,1,1,0.0
hh1owoc1aqd3rcinmc56z68n,12,3,76,pd,2,0.0,1.0,12.957,1,1,0.0
hnl0vcoxwm84ddt2nu7xm7tg,1,3,71,pd,3,2.0,0.0,7.969,0,1,0.0
hnl0vcoxwm84ddt2nu7xm7tg,2,3,55,pd,2,0.0,1.0,4.829,0,1,0.0
hnl0vcoxwm84ddt2nu7xm7tg,3,3,30,pd,1,3.0,0.0,10.936,0,1,2.0
hnl0vcoxwm84ddt2nu7xm7tg,4,3,45,pd,3,1.0,0.0,3.066,0,1,0.0
hnl0vcoxwm84ddt2nu7xm7tg,5,3,11,pd,2,3.0,0.0,5.234,0,1,2.0
hnl0vcoxwm84ddt2nu7xm7tg,6,3,29,pd,1,0.0,1.0,11.538,1,1,0.0
hnl0vcoxwm84ddt2nu7xm7tg,7,3,16,md,3,2.0,0.0,5.256,1,1,0.0
hnl0vcoxwm84ddt2nu7xm7tg,8,3,17,pd,2,3.0,0.0,2.962,1,1,0.0
hnl0vcoxwm84ddt2nu7xm7tg,9,3,23,md,1,3.0,0.0,2.113,1,1,0.0
hnl0vcoxwm84ddt2nu7xm7tg,10,3,58,md,3,2.0,0.0,2.347,1,1,0.0
hnl0vcoxwm84ddt2nu7xm7tg,11,3,35,pd,2,2.0,0.0,1.69,1,1,0.0
hnl0vcoxwm84ddt2nu7xm7tg,12,3,76,pd,1,2.0,0.0,1.979,1,1,0.0
ht7xl5ao4khm5tpxm5eklyqu,1,3,71,pd,2,0.0,1.0,6.293,1,1,0.0
ht7xl5ao4khm5tpxm5eklyqu,2,3,55,pd,3,0.0,1.0,9.21,1,1,0.0
ht7xl5ao4khm5tpxm5eklyqu,3,3,30,pd,1,0.0,1.0,11.025,1,1,0.0
ht7xl5ao4khm5tpxm5eklyqu,4,3,45,pd,2,0.0,1.0,5.381,1,1,0.0
ht7xl5ao4khm5tpxm5eklyqu,5,3,11,pd,3,0.0,1.0,16.19,1,1,0.0
ht7xl5ao4khm5tpxm5eklyqu,6,3,29,pd,1,1.0,0.0,12.632,1,1,0.0
ht7xl5ao4khm5tpxm5eklyqu,7,3,16,md,2,3.0,0.0,10.714,1,1,0.0
ht7xl5ao4khm5tpxm5eklyqu,8,3,17,pd,3,1.0,0.0,17.954,1,1,0.0
ht7xl5ao4khm5tpxm5eklyqu,9,3,23,md,1,0.0,1.0,20.703,1,1,0.0
ht7xl5ao4khm5tpxm5eklyqu,10,3,58,md,2,1.0,0.0,23.505,1,1,0.0
ht7xl5ao4khm5tpxm5eklyqu,11,3,35,pd,3,2.0,0.0,12.637,1,1,0.0
ht7xl5ao4khm5tpxm5eklyqu,12,3,76,pd,1,1.0,0.0,23.415,1,1,0.0
hvbemxqiy5t79oi53f8oskob,1,3,71,pd,2,0.0,1.0,10.94,1,1,0.0
hvbemxqiy5t79oi53f8oskob,2,3,55,pd,3,0.0,1.0,8.639,1,1,0.0
hvbemxqiy5t79oi53f8oskob,3,3,30,pd,1,0.0,1.0,10.598,1,1,0.0
hvbemxqiy5t79oi53f8oskob,4,3,45,pd,2,0.0,1.0,13.013,1,1,0.0
hvbemxqiy5t79oi53f8oskob,5,3,11,pd,3,0.0,1.0,17.447,1,1,0.0
hvbemxqiy5t79oi53f8oskob,6,3,29,pd,1,0.0,1.0,10.941,1,1,0.0
hvbemxqiy5t79oi53f8oskob,7,3,16,md,2,0.0,1.0,12.796,1,1,0.0
hvbemxqiy5t79oi53f8oskob,8,3,17,pd,3,0.0,1.0,23.263,1,1,0.0
hvbemxqiy5t79oi53f8oskob,9,3,23,md,1,0.0,1.0,13.365,1,1,0.0
hvbemxqiy5t79oi53f8oskob,10,3,58,md,2,0.0,1.0,20.448,1,1,0.0
hvbemxqiy5t79oi53f8oskob,11,3,35,pd,3,,,,1,1,0.0
hvbemxqiy5t79oi53f8oskob,12,3,76,pd,1,0.0,1.0,14.725,1,1,0.0
hw8zadof87h4cb1fiu9xhesr,1,3,71,pd,3,0.0,1.0,7.375,1,1,0.0
hw8zadof87h4cb1fiu9xhesr,2,3,55,pd,1,0.0,1.0,17.548,1,1,0.0
hw8zadof87h4cb1fiu9xhesr,3,3,30,pd,2,1.0,0.0,6.185,1,1,0.0
hw8zadof87h4cb1fiu9xhesr,4,3,45,pd,3,0.0,1.0,17.323,1,1,0.0
hw8zadof87h4cb1fiu9xhesr,5,3,11,pd,1,0.0,1.0,3.654,1,1,0.0
hw8zadof87h4cb1fiu9xhesr,6,3,29,pd,2,3.0,0.0,14.815,1,1,0.0
hw8zadof87h4cb1fiu9xhesr,7,3,16,md,3,0.0,1.0,8.529,1,1,0.0
hw8zadof87h4cb1fiu9xhesr,8,3,17,pd,1,3.0,0.0,11.818,1,1,0.0
hw8zadof87h4cb1fiu9xhesr,9,3,23,md,2,0.0,1.0,6.569,1,1,0.0
hw8zadof87h4cb1fiu9xhesr,10,3,58,md,3,3.0,0.0,6.483,1,1,0.0
hw8zadof87h4cb1fiu9xhesr,11,3,35,pd,1,0.0,1.0,10.784,1,1,0.0
hw8zadof87h4cb1fiu9xhesr,12,3,76,pd,2,2.0,0.0,9.216,1,1,0.0
hx2aifix9ct6lkvbn9g194jx,1,3,71,pd,2,2.0,0.0,3.323,1,1,0.0
hx2aifix9ct6lkvbn9g194jx,2,3,55,pd,3,2.0,0.0,25.753,1,1,0.0
hx2aifix9ct6lkvbn9g194jx,3,3,30,pd,1,3.0,0.0,25.878,1,1,0.0
hx2aifix9ct6lkvbn9g194jx,4,3,45,pd,2,0.0,1.0,13.604,1,1,0.0
hx2aifix9ct6lkvbn9g194jx,5,3,11,pd,3,2.0,0.0,25.715,1,1,0.0
hx2aifix9ct6lkvbn9g194jx,6,3,29,pd,1,0.0,1.0,21.804,1,1,0.0
hx2aifix9ct6lkvbn9g194jx,7,3,16,md,2,0.0,1.0,21.827,1,1,0.0
hx2aifix9ct6lkvbn9g194jx,8,3,17,pd,3,1.0,0.0,28.975,1,1,0.0
hx2aifix9ct6lkvbn9g194jx,9,3,23,md,1,1.0,0.0,27.561,1,1,0.0
hx2aifix9ct6lkvbn9g194jx,10,3,58,md,2,0.0,1.0,23.465,1,1,0.0
hx2aifix9ct6lkvbn9g194jx,11,3,35,pd,3,,,,1,1,0.0
hx2aifix9ct6lkvbn9g194jx,12,3,76,pd,1,2.0,0.0,21.604,1,1,0.0
i0f191mbhx31o0b6m91c9f84,1,3,71,pd,2,0.0,1.0,27.787,1,1,0.0
i0f191mbhx31o0b6m91c9f84,2,3,55,pd,3,0.0,1.0,23.36,1,1,0.0
i0f191mbhx31o0b6m91c9f84,3,3,30,pd,1,0.0,1.0,15.59,1,1,0.0
i0f191mbhx31o0b6m91c9f84,4,3,45,pd,2,0.0,1.0,16.443,1,1,0.0
i0f191mbhx31o0b6m91c9f84,5,3,11,pd,3,0.0,1.0,29.383,1,1,0.0
i0f191mbhx31o0b6m91c9f84,6,3,29,pd,1,0.0,1.0,18.813,1,1,0.0
i0f191mbhx31o0b6m91c9f84,7,3,16,md,2,0.0,1.0,27.634,1,1,0.0
i0f191mbhx31o0b6m91c9f84,8,3,17,pd,3,,,,1,1,0.0
i0f191mbhx31o0b6m91c9f84,9,3,23,md,1,0.0,1.0,28.919,1,1,0.0
i0f191mbhx31o0b6m91c9f84,10,3,58,md,2,0.0,1.0,27.53,1,1,0.0
i0f191mbhx31o0b6m91c9f84,11,3,35,pd,3,0.0,1.0,29.158,1,1,0.0
i0f191mbhx31o0b6m91c9f84,12,3,76,pd,1,3.0,0.0,6.131,1,1,0.0
i83h7dwl4py2q3x0m45ffwia,1,3,71,pd,1,0.0,1.0,6.658,1,1,0.0
i83h7dwl4py2q3x0m45ffwia,2,3,55,pd,2,1.0,0.0,12.021,1,1,0.0
i83h7dwl4py2q3x0m45ffwia,3,3,30,pd,3,0.0,1.0,15.106,1,1,0.0
i83h7dwl4py2q3x0m45ffwia,4,3,45,pd,1,0.0,1.0,16.452,1,1,0.0
i83h7dwl4py2q3x0m45ffwia,5,3,11,pd,2,3.0,0.0,16.015,1,1,0.0
i83h7dwl4py2q3x0m45ffwia,6,3,29,pd,3,0.0,1.0,17.333,1,1,0.0
i83h7dwl4py2q3x0m45ffwia,7,3,16,md,1,0.0,1.0,11.676,1,1,0.0
i83h7dwl4py2q3x0m45ffwia,8,3,17,pd,2,0.0,1.0,13.112,1,1,0.0
i83h7dwl4py2q3x0m45ffwia,9,3,23,md,3,1.0,0.0,8.751,1,1,0.0
i83h7dwl4py2q3x0m45ffwia,10,3,58,md,1,0.0,1.0,11.385,1,1,0.0
i83h7dwl4py2q3x0m45ffwia,11,3,35,pd,2,2.0,0.0,12.704,1,1,0.0
i83h7dwl4py2q3x0m45ffwia,12,3,76,pd,3,2.0,0.0,15.815,1,1,0.0
ifb8ria7zc0yw7fgmj5lpfgm,1,3,71,pd,2,0.0,1.0,6.833,1,1,0.0
ifb8ria7zc0yw7fgmj5lpfgm,2,3,55,pd,3,1.0,0.0,7.722,1,1,0.0
ifb8ria7zc0yw7fgmj5lpfgm,3,3,30,pd,1,0.0,1.0,13.681,1,1,0.0
ifb8ria7zc0yw7fgmj5lpfgm,4,3,45,pd,2,0.0,1.0,9.145,1,1,0.0
ifb8ria7zc0yw7fgmj5lpfgm,5,3,11,pd,3,1.0,0.0,28.463,1,1,0.0
ifb8ria7zc0yw7fgmj5lpfgm,6,3,29,pd,1,2.0,0.0,26.61,1,1,0.0
ifb8ria7zc0yw7fgmj5lpfgm,7,3,16,md,2,0.0,1.0,17.353,1,1,0.0
ifb8ria7zc0yw7fgmj5lpfgm,8,3,17,pd,3,1.0,0.0,29.882,1,1,0.0
ifb8ria7zc0yw7fgmj5lpfgm,9,3,23,md,1,0.0,1.0,21.076,1,1,0.0
ifb8ria7zc0yw7fgmj5lpfgm,10,3,58,md,2,0.0,1.0,18.783,1,1,0.0
ifb8ria7zc0yw7fgmj5lpfgm,11,3,35,pd,3,,,,1,1,0.0
ifb8ria7zc0yw7fgmj5lpfgm,12,3,76,pd,1,0.0,1.0,27.356,1,1,0.0
il0yopf471got4tcy1yijcn1,1,3,71,pd,2,0.0,1.0,11.26,1,1,0.0
il0yopf471got4tcy1yijcn1,2,3,55,pd,3,0.0,1.0,9.221,1,1,0.0
il0yopf471got4tcy1yijcn1,3,3,30,pd,1,1.0,0.0,12.725,1,1,0.0
il0yopf471got4tcy1yijcn1,4,3,45,pd,2,0.0,1.0,6.226,1,1,0.0
il0yopf471got4tcy1yijcn1,5,3,11,pd,3,0.0,1.0,6.77,1,1,0.0
il0yopf471got4tcy1yijcn1,6,3,29,pd,1,2.0,0.0,8.055,1,1,0.0
il0yopf471got4tcy1yijcn1,7,3,16,md,2,0.0,1.0,10.645,1,1,0.0
il0yopf471got4tcy1yijcn1,8,3,17,pd,3,0.0,1.0,17.727,1,1,0.0
il0yopf471got4tcy1yijcn1,9,3,23,md,1,0.0,1.0,24.508,1,1,0.0
il0yopf471got4tcy1yijcn1,10,3,58,md,2,0.0,1.0,18.876,1,1,0.0
il0yopf471got4tcy1yijcn1,11,3,35,pd,3,0.0,1.0,23.062,1,1,0.0
il0yopf471got4tcy1yijcn1,12,3,76,pd,1,0.0,1.0,20.124,1,1,0.0
im9lykiocrw08y7xyox1xavi,1,3,71,pd,1,0.0,1.0,11.039,1,1,0.0
im9lykiocrw08y7xyox1xavi,2,3,55,pd,2,0.0,1.0,17.815,1,1,0.0
im9lykiocrw08y7xyox1xavi,3,3,30,pd,3,0.0,1.0,10.666,1,1,0.0
im9lykiocrw08y7xyox1xavi,4,3,45,pd,1,0.0,1.0,13.963,1,1,0.0
im9lykiocrw08y7xyox1xavi,5,3,11,pd,2,0.0,1.0,23.857,1,1,0.0
im9lykiocrw08y7xyox1xavi,6,3,29,pd,3,3.0,0.0,28.273,1,1,0.0
im9lykiocrw08y7xyox1xavi,7,3,16,md,1,0.0,1.0,26.69,1,1,0.0
im9lykiocrw08y7xyox1xavi,8,3,17,pd,2,,,,1,1,0.0
im9lykiocrw08y7xyox1xavi,9,3,23,md,3,1.0,0.0,20.124,1,1,0.0
im9lykiocrw08y7xyox1xavi,10,3,58,md,1,1.0,0.0,14.096,1,1,0.0
im9lykiocrw08y7xyox1xavi,11,3,35,pd,2,3.0,0.0,19.586,1,1,0.0
im9lykiocrw08y7xyox1xavi,12,3,76,pd,3,0.0,1.0,23.397,1,1,0.0
in8hydh7yuf3tm2927paebwn,1,3,71,pd,1,0.0,1.0,8.814,1,1,0.0
in8hydh7yuf3tm2927paebwn,2,3,55,pd,2,0.0,1.0,11.867,1,1,0.0
in8hydh7yuf3tm2927paebwn,3,3,30,pd,3,0.0,1.0,15.779,1,1,0.0
in8hydh7yuf3tm2927paebwn,4,3,45,pd,1,0.0,1.0,17.946,1,1,0.0
in8hydh7yuf3tm2927paebwn,5,3,11,pd,2,0.0,1.0,22.855,1,1,0.0
in8hydh7yuf3tm2927paebwn,6,3,29,pd,3,0.0,1.0,28.348,1,1,0.0
in8hydh7yuf3tm2927paebwn,7,3,16,md,1,0.0,1.0,11.202,1,1,0.0
in8hydh7yuf3tm2927paebwn,8,3,17,pd,2,1.0,0.0,25.614,1,1,0.0
in8hydh7yuf3tm2927paebwn,9,3,23,md,3,0.0,1.0,12.318,1,1,0.0
in8hydh7yuf3tm2927paebwn,10,3,58,md,1,0.0,1.0,10.707,1,1,0.0
in8hydh7yuf3tm2927paebwn,11,3,35,pd,2,0.0,1.0,10.789,1,1,0.0
in8hydh7yuf3tm2927paebwn,12,3,76,pd,3,1.0,0.0,9.156,1,1,0.0
jictxitpp54wftyvxlrkk6rs,1,3,71,pd,1,0.0,1.0,4.369,1,1,0.0
jictxitpp54wftyvxlrkk6rs,2,3,55,pd,2,0.0,1.0,10.27,1,1,0.0
jictxitpp54wftyvxlrkk6rs,3,3,30,pd,3,0.0,1.0,20.202,1,1,0.0
jictxitpp54wftyvxlrkk6rs,4,3,45,pd,1,2.0,0.0,28.117,1,1,0.0
jictxitpp54wftyvxlrkk6rs,5,3,11,pd,2,0.0,1.0,22.232,1,1,0.0
jictxitpp54wftyvxlrkk6rs,6,3,29,pd,3,3.0,0.0,14.305,1,1,0.0
jictxitpp54wftyvxlrkk6rs,7,3,16,md,1,0.0,1.0,17.522,1,1,0.0
jictxitpp54wftyvxlrkk6rs,8,3,17,pd,2,0.0,1.0,12.954,1,1,0.0
jictxitpp54wftyvxlrkk6rs,9,3,23,md,3,0.0,1.0,22.232,1,1,0.0
jictxitpp54wftyvxlrkk6rs,10,3,58,md,1,1.0,0.0,29.828,1,1,0.0
jictxitpp54wftyvxlrkk6rs,11,3,35,pd,2,0.0,1.0,28.23,1,1,0.0
jictxitpp54wftyvxlrkk6rs,12,3,76,pd,3,0.0,1.0,25.959,1,1,0.0
jil1mat350anq2m149vr3jud,1,3,71,pd,1,0.0,1.0,8.761,1,1,0.0
jil1mat350anq2m149vr3jud,2,3,55,pd,2,0.0,1.0,21.155,1,1,0.0
jil1mat350anq2m149vr3jud,3,3,30,pd,3,0.0,1.0,12.911,1,1,0.0
jil1mat350anq2m149vr3jud,4,3,45,pd,1,0.0,1.0,7.956,1,1,0.0
jil1mat350anq2m149vr3jud,5,3,11,pd,2,0.0,1.0,22.002,1,1,0.0
jil1mat350anq2m149vr3jud,6,3,29,pd,3,0.0,1.0,25.951,1,1,0.0
jil1mat350anq2m149vr3jud,7,3,16,md,1,3.0,0.0,20.786,1,1,0.0
jil1mat350anq2m149vr3jud,8,3,17,pd,2,0.0,1.0,18.489,1,1,0.0
jil1mat350anq2m149vr3jud,9,3,23,md,3,0.0,1.0,15.877,1,1,0.0
jil1mat350anq2m149vr3jud,10,3,58,md,1,0.0,1.0,28.705,1,1,0.0
jil1mat350anq2m149vr3jud,11,3,35,pd,2,0.0,1.0,25.194,1,1,0.0
jil1mat350anq2m149vr3jud,12,3,76,pd,3,0.0,1.0,11.631,1,1,0.0
jjyrjh1627r82813r36br86o,1,3,71,pd,1,2.0,0.0,10.844,1,1,0.0
jjyrjh1627r82813r36br86o,2,3,55,pd,2,0.0,1.0,10.817,0,1,0.0
jjyrjh1627r82813r36br86o,3,3,30,pd,3,3.0,0.0,5.95,0,1,0.0
jjyrjh1627r82813r36br86o,4,3,45,pd,1,2.0,0.0,9.155,0,1,0.0
jjyrjh1627r82813r36br86o,5,3,11,pd,2,0.0,1.0,11.999,0,1,0.0
jjyrjh1627r82813r36br86o,6,3,29,pd,3,3.0,0.0,20.35,1,1,0.0
jjyrjh1627r82813r36br86o,7,3,16,md,1,1.0,0.0,7.543,0,1,0.0
jjyrjh1627r82813r36br86o,8,3,17,pd,2,0.0,1.0,20.438,1,1,0.0
jjyrjh1627r82813r36br86o,9,3,23,md,3,0.0,1.0,15.631,1,1,0.0
jjyrjh1627r82813r36br86o,10,3,58,md,1,1.0,0.0,12.195,0,1,0.0
jjyrjh1627r82813r36br86o,11,3,35,pd,2,1.0,0.0,7.704,0,1,0.0
jjyrjh1627r82813r36br86o,12,3,76,pd,3,0.0,1.0,10.208,0,1,0.0
jsfby9ro2g7y9402jk2ov2ud,1,3,71,pd,2,0.0,1.0,7.46,1,1,0.0
jsfby9ro2g7y9402jk2ov2ud,2,3,55,pd,3,0.0,1.0,28.872,1,1,0.0
jsfby9ro2g7y9402jk2ov2ud,3,3,30,pd,1,1.0,0.0,14.364,1,1,0.0
jsfby9ro2g7y9402jk2ov2ud,4,3,45,pd,2,,,,1,1,0.0
jsfby9ro2g7y9402jk2ov2ud,5,3,11,pd,3,0.0,1.0,15.45,1,1,0.0
jsfby9ro2g7y9402jk2ov2ud,6,3,29,pd,1,0.0,1.0,11.511,1,1,0.0
jsfby9ro2g7y9402jk2ov2ud,7,3,16,md,2,0.0,1.0,17.267,1,1,0.0
jsfby9ro2g7y9402jk2ov2ud,8,3,17,pd,3,0.0,1.0,15.551,1,1,0.0
jsfby9ro2g7y9402jk2ov2ud,9,3,23,md,1,0.0,1.0,13.382,1,1,0.0
jsfby9ro2g7y9402jk2ov2ud,10,3,58,md,2,0.0,1.0,20.798,1,1,0.0
jsfby9ro2g7y9402jk2ov2ud,11,3,35,pd,3,0.0,1.0,15.67,1,1,0.0
jsfby9ro2g7y9402jk2ov2ud,12,3,76,pd,1,2.0,0.0,16.804,1,1,0.0
jshqci67yas44rp7y2ji1508,1,3,71,pd,2,2.0,0.0,10.678,1,1,0.0
jshqci67yas44rp7y2ji1508,2,3,55,pd,3,0.0,1.0,23.146,1,1,0.0
jshqci67yas44rp7y2ji1508,3,3,30,pd,1,0.0,1.0,8.228,1,1,0.0
jshqci67yas44rp7y2ji1508,4,3,45,pd,2,0.0,1.0,17.726,1,1,0.0
jshqci67yas44rp7y2ji1508,5,3,11,pd,3,0.0,1.0,15.436,1,1,0.0
jshqci67yas44rp7y2ji1508,6,3,29,pd,1,0.0,1.0,18.303,1,1,0.0
jshqci67yas44rp7y2ji1508,7,3,16,md,2,3.0,0.0,10.549,1,1,0.0
jshqci67yas44rp7y2ji1508,8,3,17,pd,3,2.0,0.0,4.661,1,1,0.0
jshqci67yas44rp7y2ji1508,9,3,23,md,1,0.0,1.0,16.5,1,1,0.0
jshqci67yas44rp7y2ji1508,10,3,58,md,2,1.0,0.0,18.198,1,1,0.0
jshqci67yas44rp7y2ji1508,11,3,35,pd,3,2.0,0.0,24.942,1,1,0.0
jshqci67yas44rp7y2ji1508,12,3,76,pd,1,,,,1,1,0.0
jvmclaemywybgwnglxbma49a,1,3,71,pd,1,2.0,0.0,6.47,1,1,0.0
jvmclaemywybgwnglxbma49a,2,3,55,pd,2,2.0,0.0,7.093,1,1,0.0
jvmclaemywybgwnglxbma49a,3,3,30,pd,3,0.0,1.0,10.263,1,1,0.0
jvmclaemywybgwnglxbma49a,4,3,45,pd,1,0.0,1.0,8.777,1,1,0.0
jvmclaemywybgwnglxbma49a,5,3,11,pd,2,0.0,1.0,5.326,1,1,0.0
jvmclaemywybgwnglxbma49a,6,3,29,pd,3,0.0,1.0,4.688,1,1,0.0
jvmclaemywybgwnglxbma49a,7,3,16,md,1,0.0,1.0,3.747,1,1,0.0
jvmclaemywybgwnglxbma49a,8,3,17,pd,2,1.0,0.0,8.625,1,1,0.0
jvmclaemywybgwnglxbma49a,9,3,23,md,3,3.0,0.0,8.887,1,1,0.0
jvmclaemywybgwnglxbma49a,10,3,58,md,1,0.0,1.0,10.062,1,1,0.0
jvmclaemywybgwnglxbma49a,11,3,35,pd,2,0.0,1.0,4.591,1,1,0.0
jvmclaemywybgwnglxbma49a,12,3,76,pd,3,1.0,0.0,11.654,1,1,0.0
kab0jzzxrafag6ufef89ftkv,1,3,71,pd,2,0.0,1.0,8.097,1,1,0.0
kab0jzzxrafag6ufef89ftkv,2,3,55,pd,3,0.0,1.0,17.635,1,1,0.0
kab0jzzxrafag6ufef89ftkv,3,3,30,pd,1,0.0,1.0,9.74,1,1,0.0
kab0jzzxrafag6ufef89ftkv,4,3,45,pd,2,0.0,1.0,8.132,1,1,0.0
kab0jzzxrafag6ufef89ftkv,5,3,11,pd,3,0.0,1.0,16.603,1,1,0.0
kab0jzzxrafag6ufef89ftkv,6,3,29,pd,1,0.0,1.0,9.106,1,1,0.0
kab0jzzxrafag6ufef89ftkv,7,3,16,md,2,0.0,1.0,9.779,1,1,0.0
kab0jzzxrafag6ufef89ftkv,8,3,17,pd,3,0.0,1.0,20.644,1,1,0.0
kab0jzzxrafag6ufef89ftkv,9,3,23,md,1,0.0,1.0,10.251,1,1,0.0
kab0jzzxrafag6ufef89ftkv,10,3,58,md,2,0.0,1.0,11.657,1,1,0.0
kab0jzzxrafag6ufef89ftkv,11,3,35,pd,3,1.0,0.0,21.414,1,1,0.0
kab0jzzxrafag6ufef89ftkv,12,3,76,pd,1,1.0,0.0,20.356,1,1,0.0
kfwpo7jdu24osnoenb40egtw,1,3,71,pd,1,0.0,1.0,11.283,1,1,0.0
kfwpo7jdu24osnoenb40egtw,2,3,55,pd,2,0.0,1.0,22.504,1,1,0.0
kfwpo7jdu24osnoenb40egtw,3,3,30,pd,3,0.0,1.0,17.608,1,1,0.0
kfwpo7jdu24osnoenb40egtw,4,3,45,pd,1,0.0,1.0,17.123,1,1,0.0
kfwpo7jdu24osnoenb40egtw,5,3,11,pd,2,1.0,0.0,17.319,1,1,0.0
kfwpo7jdu24osnoenb40egtw,6,3,29,pd,3,3.0,0.0,10.389,1,1,0.0
kfwpo7jdu24osnoenb40egtw,7,3,16,md,1,0.0,1.0,14.403,1,1,0.0
kfwpo7jdu24osnoenb40egtw,8,3,17,pd,2,0.0,1.0,18.261,1,1,0.0
kfwpo7jdu24osnoenb40egtw,9,3,23,md,3,0.0,1.0,17.236,1,1,0.0
kfwpo7jdu24osnoenb40egtw,10,3,58,md,1,0.0,1.0,9.142,1,1,0.0
kfwpo7jdu24osnoenb40egtw,11,3,35,pd,2,2.0,0.0,8.933,1,1,0.0
kfwpo7jdu24osnoenb40egtw,12,3,76,pd,3,3.0,0.0,10.268,1,1,0.0
kjnguvi77x6fjhgf03qy189m,1,3,71,pd,2,0.0,1.0,2.322,1,1,0.0
kjnguvi77x6fjhgf03qy189m,2,3,55,pd,3,0.0,1.0,7.686,1,1,0.0
kjnguvi77x6fjhgf03qy189m,3,3,30,pd,1,3.0,0.0,8.046,1,1,0.0
kjnguvi77x6fjhgf03qy189m,4,3,45,pd,2,0.0,1.0,8.226,1,1,0.0
kjnguvi77x6fjhgf03qy189m,5,3,11,pd,3,1.0,0.0,6.478,1,1,0.0
kjnguvi77x6fjhgf03qy189m,6,3,29,pd,1,0.0,1.0,7.424,1,1,0.0
kjnguvi77x6fjhgf03qy189m,7,3,16,md,2,0.0,1.0,10.086,1,1,2.0
kjnguvi77x6fjhgf03qy189m,8,3,17,pd,3,0.0,1.0,16.084,1,1,0.0
kjnguvi77x6fjhgf03qy189m,9,3,23,md,1,3.0,0.0,6.026,1,1,0.0
kjnguvi77x6fjhgf03qy189m,10,3,58,md,2,0.0,1.0,10.304,1,1,0.0
kjnguvi77x6fjhgf03qy189m,11,3,35,pd,3,,,,1,1,0.0
kjnguvi77x6fjhgf03qy189m,12,3,76,pd,1,2.0,0.0,8.843,1,1,0.0
ksspisvnatfmnun416jrlj2p,1,3,71,pd,3,0.0,1.0,12.236,1,1,0.0
ksspisvnatfmnun416jrlj2p,2,3,55,pd,1,0.0,1.0,19.199,1,1,0.0
ksspisvnatfmnun416jrlj2p,3,3,30,pd,2,0.0,1.0,17.3,1,1,0.0
ksspisvnatfmnun416jrlj2p,4,3,45,pd,3,0.0,1.0,12.88,1,1,0.0
ksspisvnatfmnun416jrlj2p,5,3,11,pd,1,3.0,0.0,23.362,1,1,0.0
ksspisvnatfmnun416jrlj2p,6,3,29,pd,2,0.0,1.0,16.532,1,1,0.0
ksspisvnatfmnun416jrlj2p,7,3,16,md,3,0.0,1.0,19.788,1,1,0.0
ksspisvnatfmnun416jrlj2p,8,3,17,pd,1,0.0,1.0,29.311,1,1,0.0
ksspisvnatfmnun416jrlj2p,9,3,23,md,2,0.0,1.0,13.174,1,1,0.0
ksspisvnatfmnun416jrlj2p,10,3,58,md,3,0.0,1.0,17.433,1,1,0.0
ksspisvnatfmnun416jrlj2p,11,3,35,pd,1,3.0,0.0,23.805,1,1,0.0
ksspisvnatfmnun416jrlj2p,12,3,76,pd,2,0.0,1.0,11.96,1,1,0.0
kxdrfnay92e38xpevxg2tc4s,1,3,71,pd,2,2.0,0.0,5.355,1,1,0.0
kxdrfnay92e38xpevxg2tc4s,2,3,55,pd,3,0.0,1.0,8.374,1,1,0.0
kxdrfnay92e38xpevxg2tc4s,3,3,30,pd,1,0.0,1.0,6.438,1,1,0.0
kxdrfnay92e38xpevxg2tc4s,4,3,45,pd,2,0.0,1.0,7.471,1,1,0.0
kxdrfnay92e38xpevxg2tc4s,5,3,11,pd,3,0.0,1.0,6.569,1,1,0.0
kxdrfnay92e38xpevxg2tc4s,6,3,29,pd,1,0.0,1.0,7.721,1,1,0.0
kxdrfnay92e38xpevxg2tc4s,7,3,16,md,2,0.0,1.0,9.774,1,1,0.0
kxdrfnay92e38xpevxg2tc4s,8,3,17,pd,3,1.0,0.0,13.792,1,1,0.0
kxdrfnay92e38xpevxg2tc4s,9,3,23,md,1,0.0,1.0,9.178,1,1,0.0
kxdrfnay92e38xpevxg2tc4s,10,3,58,md,2,0.0,1.0,12.534,1,1,0.0
kxdrfnay92e38xpevxg2tc4s,11,3,35,pd,3,0.0,1.0,25.098,1,1,0.0
kxdrfnay92e38xpevxg2tc4s,12,3,76,pd,1,0.0,1.0,22.116,1,1,0.0
l373pms07j5hnk2cai0dglnl,1,3,71,pd,1,0.0,1.0,5.602,1,1,0.0
l373pms07j5hnk2cai0dglnl,2,3,55,pd,2,0.0,1.0,6.972,1,1,0.0
l373pms07j5hnk2cai0dglnl,3,3,30,pd,3,0.0,1.0,10.873,1,1,0.0
l373pms07j5hnk2cai0dglnl,4,3,45,pd,1,0.0,1.0,8.397,1,1,0.0
l373pms07j5hnk2cai0dglnl,5,3,11,pd,2,0.0,1.0,5.984,1,1,0.0
l373pms07j5hnk2cai0dglnl,6,3,29,pd,3,3.0,0.0,15.378,1,1,0.0
l373pms07j5hnk2cai0dglnl,7,3,16,md,1,3.0,0.0,5.318,1,1,0.0
l373pms07j5hnk2cai0dglnl,8,3,17,pd,2,1.0,0.0,18.595,1,1,0.0
l373pms07j5hnk2cai0dglnl,9,3,23,md,3,0.0,1.0,7.257,1,1,0.0
l373pms07j5hnk2cai0dglnl,10,3,58,md,1,0.0,1.0,10.168,1,1,0.0
l373pms07j5hnk2cai0dglnl,11,3,35,pd,2,3.0,0.0,12.758,1,1,0.0
l373pms07j5hnk2cai0dglnl,12,3,76,pd,3,0.0,1.0,9.848,1,1,0.0
lfsgp4idbpimodp9n7rc9y5c,1,3,71,pd,1,0.0,1.0,1.915,1,1,0.0
lfsgp4idbpimodp9n7rc9y5c,2,3,55,pd,2,0.0,1.0,5.544,1,1,0.0
lfsgp4idbpimodp9n7rc9y5c,3,3,30,pd,3,0.0,1.0,15.14,1,1,0.0
lfsgp4idbpimodp9n7rc9y5c,4,3,45,pd,1,0.0,1.0,7.316,1,1,0.0
lfsgp4idbpimodp9n7rc9y5c,5,3,11,pd,2,0.0,1.0,21.981,1,1,0.0
lfsgp4idbpimodp9n7rc9y5c,6,3,29,pd,3,,,,1,1,0.0
lfsgp4idbpimodp9n7rc9y5c,7,3,16,md,1,0.0,1.0,4.144,1,1,0.0
lfsgp4idbpimodp9n7rc9y5c,8,3,17,pd,2,1.0,0.0,9.089,1,1,0.0
lfsgp4idbpimodp9n7rc9y5c,9,3,23,md,3,1.0,0.0,6.355,1,1,0.0
lfsgp4idbpimodp9n7rc9y5c,10,3,58,md,1,1.0,0.0,7.237,1,1,0.0
lfsgp4idbpimodp9n7rc9y5c,11,3,35,pd,2,0.0,1.0,19.159,1,1,0.0
lfsgp4idbpimodp9n7rc9y5c,12,3,76,pd,3,0.0,1.0,13.858,1,1,0.0
ll8rlyc2xpgl2naa2uz384xf,1,3,71,pd,2,2.0,0.0,8.014,1,1,0.0
ll8rlyc2xpgl2naa2uz384xf,2,3,55,pd,3,0.0,1.0,6.345,1,1,0.0
ll8rlyc2xpgl2naa2uz384xf,3,3,30,pd,1,0.0,1.0,6.275,1,1,0.0
ll8rlyc2xpgl2naa2uz384xf,4,3,45,pd,2,2.0,0.0,10.39,1,1,0.0
ll8rlyc2xpgl2naa2uz384xf,5,3,11,pd,3,0.0,1.0,14.926,1,1,0.0
ll8rlyc2xpgl2naa2uz384xf,6,3,29,pd,1,0.0,1.0,13.101,1,1,0.0
ll8rlyc2xpgl2naa2uz384xf,7,3,16,md,2,0.0,1.0,6.454,1,1,0.0
ll8rlyc2xpgl2naa2uz384xf,8,3,17,pd,3,2.0,0.0,19.852,1,1,0.0
ll8rlyc2xpgl2naa2uz384xf,9,3,23,md,1,0.0,1.0,9.761,1,1,0.0
ll8rlyc2xpgl2naa2uz384xf,10,3,58,md,2,0.0,1.0,18.392,1,1,0.0
ll8rlyc2xpgl2naa2uz384xf,11,3,35,pd,3,2.0,0.0,10.429,1,1,0.0
ll8rlyc2xpgl2naa2uz384xf,12,3,76,pd,1,0.0,1.0,13.569,1,1,0.0
lvol8dltzukphy1oje5k5c64,1,3,71,pd,1,0.0,1.0,19.671,1,1,0.0
lvol8dltzukphy1oje5k5c64,2,3,55,pd,2,0.0,1.0,28.198,1,1,0.0
lvol8dltzukphy1oje5k5c64,3,3,30,pd,3,3.0,0.0,27.303,1,1,0.0
lvol8dltzukphy1oje5k5c64,4,3,45,pd,1,0.0,1.0,23.212,1,1,0.0
lvol8dltzukphy1oje5k5c64,5,3,11,pd,2,0.0,1.0,29.954,1,1,0.0
lvol8dltzukphy1oje5k5c64,6,3,29,pd,3,,,,1,1,0.0
lvol8dltzukphy1oje5k5c64,7,3,16,md,1,0.0,1.0,25.604,1,1,0.0
lvol8dltzukphy1oje5k5c64,8,3,17,pd,2,,,,1,1,0.0
lvol8dltzukphy1oje5k5c64,9,3,23,md,3,0.0,1.0,27.077,1,1,0.0
lvol8dltzukphy1oje5k5c64,10,3,58,md,1,0.0,1.0,26.439,1,1,0.0
lvol8dltzukphy1oje5k5c64,11,3,35,pd,2,,,,1,1,0.0
lvol8dltzukphy1oje5k5c64,12,3,76,pd,3,2.0,0.0,27.595,1,1,0.0
m0uhgr35fkshssmdhdv2vxqb,1,3,71,pd,3,0.0,1.0,2.845,1,1,0.0
m0uhgr35fkshssmdhdv2vxqb,2,3,55,pd,1,0.0,1.0,4.6,1,1,0.0
m0uhgr35fkshssmdhdv2vxqb,3,3,30,pd,2,3.0,0.0,13.196,1,1,0.0
m0uhgr35fkshssmdhdv2vxqb,4,3,45,pd,3,0.0,1.0,14.524,1,1,0.0
m0uhgr35fkshssmdhdv2vxqb,5,3,11,pd,1,0.0,1.0,11.215,1,1,0.0
m0uhgr35fkshssmdhdv2vxqb,6,3,29,pd,2,0.0,1.0,8.431,1,1,0.0
m0uhgr35fkshssmdhdv2vxqb,7,3,16,md,3,3.0,0.0,10.802,1,1,0.0
m0uhgr35fkshssmdhdv2vxqb,8,3,17,pd,1,0.0,1.0,10.066,1,1,0.0
m0uhgr35fkshssmdhdv2vxqb,9,3,23,md,2,0.0,1.0,10.675,1,1,0.0
m0uhgr35fkshssmdhdv2vxqb,10,3,58,md,3,0.0,1.0,11.128,1,1,0.0
m0uhgr35fkshssmdhdv2vxqb,11,3,35,pd,1,0.0,1.0,9.279,1,1,0.0
m0uhgr35fkshssmdhdv2vxqb,12,3,76,pd,2,0.0,1.0,8.561,1,1,0.0
m1zqyty0761pxx7uyrp1n03i,1,3,71,pd,2,0.0,1.0,13.62,1,1,0.0
m1zqyty0761pxx7uyrp1n03i,2,3,55,pd,3,3.0,0.0,15.761,1,1,0.0
m1zqyty0761pxx7uyrp1n03i,3,3,30,pd,1,3.0,0.0,12.126,1,1,0.0
m1zqyty0761pxx7uyrp1n03i,4,3,45,pd,2,0.0,1.0,26.586,1,1,0.0
m1zqyty0761pxx7uyrp1n03i,5,3,11,pd,3,3.0,0.0,11.081,1,1,0.0
m1zqyty0761pxx7uyrp1n03i,6,3,29,pd,1,0.0,1.0,16.697,1,1,0.0
m1zqyty0761pxx7uyrp1n03i,7,3,16,md,2,0.0,1.0,26.042,1,1,0.0
m1zqyty0761pxx7uyrp1n03i,8,3,17,pd,3,,,,1,1,0.0
m1zqyty0761pxx7uyrp1n03i,9,3,23,md,1,3.0,0.0,17.354,1,1,0.0
m1zqyty0761pxx7uyrp1n03i,10,3,58,md,2,0.0,1.0,20.57,1,1,0.0
m1zqyty0761pxx7uyrp1n03i,11,3,35,pd,3,3.0,0.0,25.641,1,1,0.0
m1zqyty0761pxx7uyrp1n03i,12,3,76,pd,1,0.0,1.0,19.746,1,1,0.0
m6euo5dahcrknmef8xnwnqo1,1,3,71,pd,1,2.0,0.0,4.273,1,1,0.0
m6euo5dahcrknmef8xnwnqo1,2,3,55,pd,2,0.0,1.0,7.793,1,1,0.0
m6euo5dahcrknmef8xnwnqo1,3,3,30,pd,3,3.0,0.0,6.836,1,1,0.0
m6euo5dahcrknmef8xnwnqo1,4,3,45,pd,1,0.0,1.0,9.88,1,1,0.0
m6euo5dahcrknmef8xnwnqo1,5,3,11,pd,2,2.0,0.0,9.009,1,1,0.0
m6euo5dahcrknmef8xnwnqo1,6,3,29,pd,3,0.0,1.0,10.777,1,1,0.0
m6euo5dahcrknmef8xnwnqo1,7,3,16,md,1,0.0,1.0,9.842,1,1,0.0
m6euo5dahcrknmef8xnwnqo1,8,3,17,pd,2,1.0,0.0,13.411,1,1,0.0
m6euo5dahcrknmef8xnwnqo1,9,3,23,md,3,1.0,0.0,9.971,1,1,0.0
m6euo5dahcrknmef8xnwnqo1,10,3,58,md,1,1.0,0.0,13.876,1,1,0.0
m6euo5dahcrknmef8xnwnqo1,11,3,35,pd,2,3.0,0.0,17.87,1,1,0.0
m6euo5dahcrknmef8xnwnqo1,12,3,76,pd,3,0.0,1.0,12.636,1,1,0.0
mng3ey5qtxa7ix3z2pwzg1ai,1,3,71,pd,2,0.0,1.0,5.383,1,1,0.0
mng3ey5qtxa7ix3z2pwzg1ai,2,3,55,pd,3,0.0,1.0,14.804,1,1,0.0
mng3ey5qtxa7ix3z2pwzg1ai,3,3,30,pd,1,0.0,1.0,16.815,1,1,0.0
mng3ey5qtxa7ix3z2pwzg1ai,4,3,45,pd,2,0.0,1.0,11.263,1,1,0.0
mng3ey5qtxa7ix3z2pwzg1ai,5,3,11,pd,3,3.0,0.0,27.946,1,1,0.0
mng3ey5qtxa7ix3z2pwzg1ai,6,3,29,pd,1,0.0,1.0,15.322,1,1,0.0
mng3ey5qtxa7ix3z2pwzg1ai,7,3,16,md,2,0.0,1.0,16.031,1,1,0.0
mng3ey5qtxa7ix3z2pwzg1ai,8,3,17,pd,3,1.0,0.0,29.329,1,1,0.0
mng3ey5qtxa7ix3z2pwzg1ai,9,3,23,md,1,0.0,1.0,21.711,1,1,0.0
mng3ey5qtxa7ix3z2pwzg1ai,10,3,58,md,2,0.0,1.0,11.542,1,1,0.0
mng3ey5qtxa7ix3z2pwzg1ai,11,3,35,pd,3,0.0,1.0,29.244,1,1,0.0
mng3ey5qtxa7ix3z2pwzg1ai,12,3,76,pd,1,2.0,0.0,18.409,1,1,0.0
mswmt4qleig2yt0oh8a8n27m,1,3,71,pd,2,0.0,1.0,10.299,1,1,0.0
mswmt4qleig2yt0oh8a8n27m,2,3,55,pd,3,0.0,1.0,15.793,1,1,0.0
mswmt4qleig2yt0oh8a8n27m,3,3,30,pd,1,0.0,1.0,6.558,1,1,0.0
mswmt4qleig2yt0oh8a8n27m,4,3,45,pd,2,0.0,1.0,16.044,1,1,0.0
mswmt4qleig2yt0oh8a8n27m,5,3,11,pd,3,0.0,1.0,12.379,1,1,0.0
mswmt4qleig2yt0oh8a8n27m,6,3,29,pd,1,0.0,1.0,12.182,1,1,0.0
mswmt4qleig2yt0oh8a8n27m,7,3,16,md,2,2.0,0.0,9.144,1,1,0.0
mswmt4qleig2yt0oh8a8n27m,8,3,17,pd,3,1.0,0.0,15.382,1,1,0.0
mswmt4qleig2yt0oh8a8n27m,9,3,23,md,1,3.0,0.0,9.419,1,1,0.0
mswmt4qleig2yt0oh8a8n27m,10,3,58,md,2,0.0,1.0,14.155,1,1,0.0
mswmt4qleig2yt0oh8a8n27m,11,3,35,pd,3,0.0,1.0,15.044,1,1,0.0
mswmt4qleig2yt0oh8a8n27m,12,3,76,pd,1,0.0,1.0,9.516,1,1,0.0
mw5r4darxp61hmv2w1iwkosq,1,3,71,pd,3,1.0,0.0,5.732,1,1,0.0
mw5r4darxp61hmv2w1iwkosq,2,3,55,pd,2,0.0,1.0,13.545,1,1,0.0
mw5r4darxp61hmv2w1iwkosq,3,3,30,pd,1,3.0,0.0,13.301,1,1,0.0
mw5r4darxp61hmv2w1iwkosq,4,3,45,pd,3,2.0,0.0,15.9,1,1,0.0
mw5r4darxp61hmv2w1iwkosq,5,3,11,pd,2,2.0,0.0,18.339,1,1,0.0
mw5r4darxp61hmv2w1iwkosq,6,3,29,pd,1,0.0,1.0,14.547,1,1,0.0
mw5r4darxp61hmv2w1iwkosq,7,3,16,md,3,1.0,0.0,11.788,1,1,0.0
mw5r4darxp61hmv2w1iwkosq,8,3,17,pd,2,1.0,0.0,15.228,1,1,0.0
mw5r4darxp61hmv2w1iwkosq,9,3,23,md,1,0.0,1.0,17.923,1,1,0.0
mw5r4darxp61hmv2w1iwkosq,10,3,58,md,3,1.0,0.0,20.812,1,1,0.0
mw5r4darxp61hmv2w1iwkosq,11,3,35,pd,2,1.0,0.0,9.499,1,1,0.0
mw5r4darxp61hmv2w1iwkosq,12,3,76,pd,1,3.0,0.0,15.108,1,1,0.0
mye510vhgdmfdevtglsk8t7c,1,3,71,pd,2,0.0,1.0,13.827,1,1,0.0
mye510vhgdmfdevtglsk8t7c,2,3,55,pd,3,0.0,1.0,20.844,1,1,0.0
mye510vhgdmfdevtglsk8t7c,3,3,30,pd,1,0.0,1.0,24.959,1,1,0.0
mye510vhgdmfdevtglsk8t7c,4,3,45,pd,2,0.0,1.0,21.746,1,1,0.0
mye510vhgdmfdevtglsk8t7c,5,3,11,pd,3,0.0,1.0,21.521,1,1,0.0
mye510vhgdmfdevtglsk8t7c,6,3,29,pd,1,0.0,1.0,24.948,1,1,0.0
mye510vhgdmfdevtglsk8t7c,7,3,16,md,2,0.0,1.0,14.583,1,1,0.0
mye510vhgdmfdevtglsk8t7c,8,3,17,pd,3,0.0,1.0,27.898,1,1,0.0
mye510vhgdmfdevtglsk8t7c,9,3,23,md,1,0.0,1.0,12.228,1,1,0.0
mye510vhgdmfdevtglsk8t7c,10,3,58,md,2,0.0,1.0,25.5,1,1,0.0
mye510vhgdmfdevtglsk8t7c,11,3,35,pd,3,3.0,0.0,27.48,1,1,0.0
mye510vhgdmfdevtglsk8t7c,12,3,76,pd,1,1.0,0.0,27.81,1,1,0.0
n65b9vugk5sxia28xuilt3ix,1,3,71,pd,3,0.0,1.0,12.185,1,1,0.0
n65b9vugk5sxia28xuilt3ix,2,3,55,pd,2,0.0,1.0,18.005,1,1,0.0
n65b9vugk5sxia28xuilt3ix,3,3,30,pd,1,0.0,1.0,24.321,1,1,0.0
n65b9vugk5sxia28xuilt3ix,4,3,45,pd,3,,,,1,1,0.0
n65b9vugk5sxia28xuilt3ix,5,3,11,pd,2,0.0,1.0,28.518,1,1,0.0
n65b9vugk5sxia28xuilt3ix,6,3,29,pd,1,0.0,1.0,12.802,1,1,0.0
n65b9vugk5sxia28xuilt3ix,7,3,16,md,3,3.0,0.0,27.113,1,1,0.0
n65b9vugk5sxia28xuilt3ix,8,3,17,pd,2,0.0,1.0,24.681,1,1,0.0
n65b9vugk5sxia28xuilt3ix,9,3,23,md,1,0.0,1.0,14.396,1,1,0.0
n65b9vugk5sxia28xuilt3ix,10,3,58,md,3,0.0,1.0,20.403,1,1,0.0
n65b9vugk5sxia28xuilt3ix,11,3,35,pd,2,0.0,1.0,25.584,1,1,0.0
n65b9vugk5sxia28xuilt3ix,12,3,76,pd,1,0.0,1.0,29.958,1,1,0.0
o6car17xnr6q7oun43y55x56,1,3,71,pd,2,0.0,1.0,14.748,1,1,0.0
o6car17xnr6q7oun43y55x56,2,3,55,pd,3,0.0,1.0,11.965,1,1,0.0
o6car17xnr6q7oun43y55x56,3,3,30,pd,1,0.0,1.0,16.033,1,1,0.0
o6car17xnr6q7oun43y55x56,4,3,45,pd,2,0.0,1.0,19.296,1,1,0.0
o6car17xnr6q7oun43y55x56,5,3,11,pd,3,0.0,1.0,16.156,1,1,0.0
o6car17xnr6q7oun43y55x56,6,3,29,pd,1,0.0,1.0,29.134,1,1,0.0
o6car17xnr6q7oun43y55x56,7,3,16,md,2,0.0,1.0,9.466,1,1,0.0
o6car17xnr6q7oun43y55x56,8,3,17,pd,3,0.0,1.0,23.612,1,1,0.0
o6car17xnr6q7oun43y55x56,9,3,23,md,1,0.0,1.0,11.514,1,1,0.0
o6car17xnr6q7oun43y55x56,10,3,58,md,2,0.0,1.0,20.351,1,1,0.0
o6car17xnr6q7oun43y55x56,11,3,35,pd,3,1.0,0.0,29.533,1,1,0.0
o6car17xnr6q7oun43y55x56,12,3,76,pd,1,0.0,1.0,11.67,1,1,0.0
oax11o9wyud7rz0zvt9icd01,1,3,71,pd,2,2.0,0.0,10.339,0,1,0.0
oax11o9wyud7rz0zvt9icd01,2,3,55,pd,3,2.0,0.0,20.977,0,1,0.0
oax11o9wyud7rz0zvt9icd01,3,3,30,pd,1,,,,1,1,0.0
oax11o9wyud7rz0zvt9icd01,4,3,45,pd,2,0.0,1.0,8.016,0,1,0.0
oax11o9wyud7rz0zvt9icd01,5,3,11,pd,3,3.0,0.0,12.545,0,1,0.0
oax11o9wyud7rz0zvt9icd01,6,3,29,pd,1,1.0,0.0,7.482,0,1,0.0
oax11o9wyud7rz0zvt9icd01,7,3,16,md,2,2.0,0.0,8.111,0,1,0.0
oax11o9wyud7rz0zvt9icd01,8,3,17,pd,3,2.0,0.0,2.334,0,1,0.0
oax11o9wyud7rz0zvt9icd01,9,3,23,md,1,1.0,0.0,1.824,0,1,0.0
oax11o9wyud7rz0zvt9icd01,10,3,58,md,2,2.0,0.0,1.348,0,1,0.0
oax11o9wyud7rz0zvt9icd01,11,3,35,pd,3,3.0,0.0,1.366,0,1,0.0
oax11o9wyud7rz0zvt9icd01,12,3,76,pd,1,2.0,0.0,1.611,0,1,0.0
oh0m0fcu5ycl033erc7ndk8l,1,3,71,pd,1,0.0,1.0,8.97,1,1,0.0
oh0m0fcu5ycl033erc7ndk8l,2,3,55,pd,2,1.0,0.0,11.916,1,1,0.0
oh0m0fcu5ycl033erc7ndk8l,3,3,30,pd,3,0.0,1.0,13.54,1,1,0.0
oh0m0fcu5ycl033erc7ndk8l,4,3,45,pd,1,0.0,1.0,21.202,1,1,0.0
oh0m0fcu5ycl033erc7ndk8l,5,3,11,pd,2,3.0,0.0,12.476,1,1,0.0
oh0m0fcu5ycl033erc7ndk8l,6,3,29,pd,3,0.0,1.0,26.519,1,1,0.0
oh0m0fcu5ycl033erc7ndk8l,7,3,16,md,1,0.0,1.0,8.547,1,1,0.0
oh0m0fcu5ycl033erc7ndk8l,8,3,17,pd,2,1.0,0.0,26.059,1,1,0.0
oh0m0fcu5ycl033erc7ndk8l,9,3,23,md,3,0.0,1.0,24.838,1,1,0.0
oh0m0fcu5ycl033erc7ndk8l,10,3,58,md,1,0.0,1.0,22.187,1,1,0.0
oh0m0fcu5ycl033erc7ndk8l,11,3,35,pd,2,2.0,0.0,29.573,1,1,0.0
oh0m0fcu5ycl033erc7ndk8l,12,3,76,pd,3,1.0,0.0,22.154,1,1,0.0
olch2d0t07wlzsckufyns7kp,1,3,71,pd,3,0.0,1.0,10.298,1,1,0.0
olch2d0t07wlzsckufyns7kp,2,3,55,pd,1,0.0,1.0,7.437,1,1,0.0
olch2d0t07wlzsckufyns7kp,3,3,30,pd,2,0.0,1.0,7.129,1,1,0.0
olch2d0t07wlzsckufyns7kp,4,3,45,pd,3,0.0,1.0,14.735,1,1,0.0
olch2d0t07wlzsckufyns7kp,5,3,11,pd,1,0.0,1.0,12.792,1,1,0.0
olch2d0t07wlzsckufyns7kp,6,3,29,pd,2,0.0,1.0,12.264,1,1,0.0
olch2d0t07wlzsckufyns7kp,7,3,16,md,3,0.0,1.0,14.759,1,1,0.0
olch2d0t07wlzsckufyns7kp,8,3,17,pd,1,0.0,1.0,17.161,1,1,0.0
olch2d0t07wlzsckufyns7kp,9,3,23,md,2,0.0,1.0,9.445,1,1,0.0
olch2d0t07wlzsckufyns7kp,10,3,58,md,3,0.0,1.0,10.432,1,1,0.0
olch2d0t07wlzsckufyns7kp,11,3,35,pd,1,1.0,0.0,21.103,1,1,0.0
olch2d0t07wlzsckufyns7kp,12,3,76,pd,2,0.0,1.0,7.601,1,1,0.0
om1407e4jbsalfwj93lz8dhe,1,3,71,pd,1,3.0,0.0,11.093,1,1,0.0
om1407e4jbsalfwj93lz8dhe,2,3,55,pd,2,0.0,1.0,12.597,1,1,0.0
om1407e4jbsalfwj93lz8dhe,3,3,30,pd,3,3.0,0.0,17.508,1,1,0.0
om1407e4jbsalfwj93lz8dhe,4,3,45,pd,1,0.0,1.0,19.911,1,1,0.0
om1407e4jbsalfwj93lz8dhe,5,3,11,pd,2,2.0,0.0,16.028,1,1,0.0
om1407e4jbsalfwj93lz8dhe,6,3,29,pd,3,3.0,0.0,5.769,1,1,0.0
om1407e4jbsalfwj93lz8dhe,7,3,16,md,1,0.0,1.0,12.129,1,1,0.0
om1407e4jbsalfwj93lz8dhe,8,3,17,pd,2,0.0,1.0,26.308,1,1,0.0
om1407e4jbsalfwj93lz8dhe,9,3,23,md,3,0.0,1.0,16.571,1,1,0.0
om1407e4jbsalfwj93lz8dhe,10,3,58,md,1,3.0,0.0,5.337,1,1,0.0
om1407e4jbsalfwj93lz8dhe,11,3,35,pd,2,2.0,0.0,7.882,1,1,0.0
om1407e4jbsalfwj93lz8dhe,12,3,76,pd,3,3.0,0.0,12.133,1,1,0.0
op2ekinxv9a2npqflkr38e27,1,3,71,pd,1,0.0,1.0,5.236,1,1,0.0
op2ekinxv9a2npqflkr38e27,2,3,55,pd,2,1.0,0.0,15.067,1,1,0.0
op2ekinxv9a2npqflkr38e27,3,3,30,pd,3,3.0,0.0,6.356,1,1,0.0
op2ekinxv9a2npqflkr38e27,4,3,45,pd,1,3.0,0.0,9.844,1,1,0.0
op2ekinxv9a2npqflkr38e27,5,3,11,pd,2,0.0,1.0,7.362,1,1,0.0
op2ekinxv9a2npqflkr38e27,6,3,29,pd,3,2.0,0.0,10.052,1,1,0.0
op2ekinxv9a2npqflkr38e27,7,3,16,md,1,3.0,0.0,5.628,1,1,0.0
op2ekinxv9a2npqflkr38e27,8,3,17,pd,2,2.0,0.0,7.523,1,1,0.0
op2ekinxv9a2npqflkr38e27,9,3,23,md,3,3.0,0.0,6.356,1,1,0.0
op2ekinxv9a2npqflkr38e27,10,3,58,md,1,0.0,1.0,1.444,1,1,0.0
op2ekinxv9a2npqflkr38e27,11,3,35,pd,2,2.0,0.0,1.795,1,1,0.0
op2ekinxv9a2npqflkr38e27,12,3,76,pd,3,1.0,0.0,3.036,1,1,0.0
ovkun7s8srqwxzxqruow3ufq,1,3,71,pd,1,0.0,1.0,10.604,1,1,0.0
ovkun7s8srqwxzxqruow3ufq,2,3,55,pd,2,0.0,1.0,22.011,1,1,0.0
ovkun7s8srqwxzxqruow3ufq,3,3,30,pd,3,0.0,1.0,15.86,1,1,0.0
ovkun7s8srqwxzxqruow3ufq,4,3,45,pd,1,2.0,0.0,29.544,1,1,0.0
ovkun7s8srqwxzxqruow3ufq,5,3,11,pd,2,3.0,0.0,28.219,1,1,0.0
ovkun7s8srqwxzxqruow3ufq,6,3,29,pd,3,0.0,1.0,26.539,1,1,0.0
ovkun7s8srqwxzxqruow3ufq,7,3,16,md,1,0.0,1.0,19.346,1,1,0.0
ovkun7s8srqwxzxqruow3ufq,8,3,17,pd,2,0.0,1.0,25.146,1,1,0.0
ovkun7s8srqwxzxqruow3ufq,9,3,23,md,3,0.0,1.0,24.025,1,1,0.0
ovkun7s8srqwxzxqruow3ufq,10,3,58,md,1,0.0,1.0,29.563,1,1,0.0
ovkun7s8srqwxzxqruow3ufq,11,3,35,pd,2,0.0,1.0,25.424,1,1,0.0
ovkun7s8srqwxzxqruow3ufq,12,3,76,pd,3,2.0,0.0,24.059,1,1,0.0
p2xmsl80gwvo0wu0y704v48m,1,3,71,pd,2,0.0,1.0,4.7,1,1,0.0
p2xmsl80gwvo0wu0y704v48m,2,3,55,pd,3,0.0,1.0,9.111,1,1,0.0
p2xmsl80gwvo0wu0y704v48m,3,3,30,pd,1,0.0,1.0,12.505,1,1,0.0
p2xmsl80gwvo0wu0y704v48m,4,3,45,pd,2,0.0,1.0,10.426,1,1,0.0
p2xmsl80gwvo0wu0y704v48m,5,3,11,pd,3,0.0,1.0,9.851,1,1,0.0
p2xmsl80gwvo0wu0y704v48m,6,3,29,pd,1,0.0,1.0,9.493,1,1,0.0
p2xmsl80gwvo0wu0y704v48m,7,3,16,md,2,0.0,1.0,5.443,1,1,0.0
p2xmsl80gwvo0wu0y704v48m,8,3,17,pd,3,1.0,0.0,17.554,1,1,0.0
p2xmsl80gwvo0wu0y704v48m,9,3,23,md,1,0.0,1.0,8.963,1,1,0.0
p2xmsl80gwvo0wu0y704v48m,10,3,58,md,2,1.0,0.0,13.077,1,1,0.0
p2xmsl80gwvo0wu0y704v48m,11,3,35,pd,3,3.0,0.0,9.426,1,1,0.0
p2xmsl80gwvo0wu0y704v48m,12,3,76,pd,1,3.0,0.0,10.599,1,1,0.0
p8f31323gfqvepwgd1z6g9xy,1,3,71,pd,2,2.0,0.0,5.562,1,1,0.0
p8f31323gfqvepwgd1z6g9xy,2,3,55,pd,3,1.0,0.0,15.659,1,1,0.0
p8f31323gfqvepwgd1z6g9xy,3,3,30,pd,1,0.0,1.0,13.502,1,1,0.0
p8f31323gfqvepwgd1z6g9xy,4,3,45,pd,2,0.0,1.0,13.24,1,1,0.0
p8f31323gfqvepwgd1z6g9xy,5,3,11,pd,3,3.0,0.0,15.056,1,1,0.0
p8f31323gfqvepwgd1z6g9xy,6,3,29,pd,1,0.0,1.0,10.056,1,1,0.0
p8f31323gfqvepwgd1z6g9xy,7,3,16,md,2,0.0,1.0,17.613,1,1,0.0
p8f31323gfqvepwgd1z6g9xy,8,3,17,pd,3,0.0,1.0,18.456,1,1,0.0
p8f31323gfqvepwgd1z6g9xy,9,3,23,md,1,0.0,1.0,11.781,1,1,0.0
p8f31323gfqvepwgd1z6g9xy,10,3,58,md,2,1.0,0.0,9.961,1,1,0.0
p8f31323gfqvepwgd1z6g9xy,11,3,35,pd,3,1.0,0.0,15.477,1,1,0.0
p8f31323gfqvepwgd1z6g9xy,12,3,76,pd,1,3.0,0.0,19.971,1,1,0.0
ppkkpyald2omvvano9w4qtjo,1,3,71,pd,2,0.0,1.0,4.467,1,1,0.0
ppkkpyald2omvvano9w4qtjo,2,3,55,pd,3,0.0,1.0,10.485,1,1,0.0
ppkkpyald2omvvano9w4qtjo,3,3,30,pd,1,0.0,1.0,14.882,1,1,0.0
ppkkpyald2omvvano9w4qtjo,4,3,45,pd,2,0.0,1.0,14.012,1,1,0.0
ppkkpyald2omvvano9w4qtjo,5,3,11,pd,3,0.0,1.0,12.628,1,1,0.0
ppkkpyald2omvvano9w4qtjo,6,3,29,pd,1,0.0,1.0,6.915,1,1,0.0
ppkkpyald2omvvano9w4qtjo,7,3,16,md,2,0.0,1.0,17.864,1,1,0.0
ppkkpyald2omvvano9w4qtjo,8,3,17,pd,3,0.0,1.0,18.465,1,1,0.0
ppkkpyald2omvvano9w4qtjo,9,3,23,md,1,0.0,1.0,8.892,1,1,0.0
ppkkpyald2omvvano9w4qtjo,10,3,58,md,2,0.0,1.0,10.092,1,1,0.0
ppkkpyald2omvvano9w4qtjo,11,3,35,pd,3,1.0,0.0,21.478,1,1,0.0
ppkkpyald2omvvano9w4qtjo,12,3,76,pd,1,0.0,1.0,14.753,1,1,0.0
pznw9xfn6j8krszd374d30qq,1,3,71,pd,3,0.0,1.0,7.356,1,1,0.0
pznw9xfn6j8krszd374d30qq,2,3,55,pd,2,0.0,1.0,8.318,1,1,0.0
pznw9xfn6j8krszd374d30qq,3,3,30,pd,1,0.0,1.0,7.856,1,1,0.0
pznw9xfn6j8krszd374d30qq,4,3,45,pd,3,0.0,1.0,9.031,1,1,0.0
pznw9xfn6j8krszd374d30qq,5,3,11,pd,2,0.0,1.0,13.721,1,1,0.0
pznw9xfn6j8krszd374d30qq,6,3,29,pd,1,0.0,1.0,13.392,1,1,0.0
pznw9xfn6j8krszd374d30qq,7,3,16,md,3,0.0,1.0,13.283,1,1,0.0
pznw9xfn6j8krszd374d30qq,8,3,17,pd,2,0.0,1.0,22.607,1,1,0.0
pznw9xfn6j8krszd374d30qq,9,3,23,md,1,0.0,1.0,27.498,1,1,0.0
pznw9xfn6j8krszd374d30qq,10,3,58,md,3,0.0,1.0,20.83,1,1,0.0
pznw9xfn6j8krszd374d30qq,11,3,35,pd,2,0.0,1.0,25.396,1,1,0.0
pznw9xfn6j8krszd374d30qq,12,3,76,pd,1,0.0,1.0,19.034,1,1,0.0
q0acsnjzh76z011meyx3klrh,1,3,71,pd,1,0.0,1.0,17.155,1,1,0.0
q0acsnjzh76z011meyx3klrh,2,3,55,pd,2,1.0,0.0,12.12,1,1,0.0
q0acsnjzh76z011meyx3klrh,3,3,30,pd,3,3.0,0.0,23.742,1,1,0.0
q0acsnjzh76z011meyx3klrh,4,3,45,pd,1,0.0,1.0,19.425,1,1,0.0
q0acsnjzh76z011meyx3klrh,5,3,11,pd,2,0.0,1.0,26.091,1,1,0.0
q0acsnjzh76z011meyx3klrh,6,3,29,pd,3,0.0,1.0,24.599,1,1,0.0
q0acsnjzh76z011meyx3klrh,7,3,16,md,1,0.0,1.0,12.615,1,1,0.0
