subject,trial,item_set,short_form,item,distractor,shape_set,choice,accuracy,rt,all_loaded,minimum_resolution,browser_interactions
02afxz4fercedkpoucq0nwv2,1,3,1,55,pd,2,0.0,1.0,24.396,1,1,0.0
02afxz4fercedkpoucq0nwv2,2,3,1,66,pd,1,1.0,0.0,8.528,1,1,0.0
02afxz4fercedkpoucq0nwv2,3,3,1,30,pd,1,0.0,1.0,18.619,1,1,0.0
02afxz4fercedkpoucq0nwv2,4,3,1,58,md,2,1.0,0.0,21.994,1,1,0.0
02afxz4fercedkpoucq0nwv2,5,3,1,45,pd,3,0.0,1.0,14.029,1,1,0.0
02afxz4fercedkpoucq0nwv2,6,3,1,29,pd,3,0.0,1.0,14.105,1,1,0.0
02afxz4fercedkpoucq0nwv2,7,3,1,17,pd,2,0.0,1.0,24.772,1,1,0.0
02afxz4fercedkpoucq0nwv2,8,3,1,24,pd,3,1.0,0.0,10.51,1,1,0.0
02afxz4fercedkpoucq0nwv2,9,3,1,72,pd,2,0.0,1.0,10.477,1,1,0.0
02afxz4fercedkpoucq0nwv2,10,3,1,64,pd,3,0.0,1.0,16.773,1,1,0.0
02afxz4fercedkpoucq0nwv2,11,3,1,76,pd,3,0.0,1.0,8.457,1,1,0.0
02afxz4fercedkpoucq0nwv2,12,3,1,35,pd,3,0.0,1.0,4.152,1,1,0.0
06z78t8e7s50q0bufotmy2sh,1,3,1,55,pd,2,0.0,1.0,12.819,1,1,0.0
06z78t8e7s50q0bufotmy2sh,2,3,1,66,pd,1,0.0,1.0,17.047,1,1,0.0
06z78t8e7s50q0bufotmy2sh,3,3,1,30,pd,1,0.0,1.0,8.934,1,1,0.0
06z78t8e7s50q0bufotmy2sh,4,3,1,58,md,2,,,,1,1,0.0
06z78t8e7s50q0bufotmy2sh,5,3,1,45,pd,3,0.0,1.0,25.806,1,1,0.0
06z78t8e7s50q0bufotmy2sh,6,3,1,29,pd,3,3.0,0.0,29.582,1,1,0.0
06z78t8e7s50q0bufotmy2sh,7,3,1,17,pd,2,0.0,1.0,28.963,1,1,0.0
06z78t8e7s50q0bufotmy2sh,8,3,1,24,pd,3,2.0,0.0,28.698,1,1,0.0
06z78t8e7s50q0bufotmy2sh,9,3,1,72,pd,2,0.0,1.0,28.557,1,1,0.0
06z78t8e7s50q0bufotmy2sh,10,3,1,64,pd,3,3.0,0.0,28.057,1,1,0.0
06z78t8e7s50q0bufotmy2sh,11,3,1,76,pd,3,0.0,1.0,29.939,1,1,0.0
06z78t8e7s50q0bufotmy2sh,12,3,1,35,pd,3,1.0,0.0,28.672,1,1,0.0
0d2k1d6l575zu9b9qntyusym,1,3,3,45,pd,2,0.0,1.0,18.535,1,1,0.0
0d2k1d6l575zu9b9qntyusym,2,3,3,55,pd,1,0.0,1.0,6.867,1,1,0.0
0d2k1d6l575zu9b9qntyusym,3,3,3,30,pd,3,0.0,1.0,9.338,1,1,0.0
0d2k1d6l575zu9b9qntyusym,4,3,3,58,md,1,0.0,1.0,15.302,1,1,0.0
0d2k1d6l575zu9b9qntyusym,5,3,3,17,pd,1,0.0,1.0,17.212,1,1,0.0
0d2k1d6l575zu9b9qntyusym,6,3,3,72,pd,1,0.0,1.0,19.96,1,1,0.0
0d2k1d6l575zu9b9qntyusym,7,3,3,29,pd,2,2.0,0.0,29.235,1,1,0.0
0d2k1d6l575zu9b9qntyusym,8,3,3,76,pd,2,0.0,1.0,12.77,1,1,0.0
0d2k1d6l575zu9b9qntyusym,9,3,3,35,pd,2,1.0,0.0,22.271,1,1,0.0
0d2k1d6l575zu9b9qntyusym,10,3,3,64,pd,2,2.0,0.0,25.549,1,1,0.0
0d2k1d6l575zu9b9qntyusym,11,3,3,66,pd,3,1.0,0.0,15.712,1,1,0.0
0d2k1d6l575zu9b9qntyusym,12,3,3,24,pd,2,1.0,0.0,10.36,1,1,0.0
0xw4hsydjiw8n5x9emapoyfs,1,3,3,45,pd,2,1.0,0.0,9.532,1,1,0.0
0xw4hsydjiw8n5x9emapoyfs,2,3,3,55,pd,1,0.0,1.0,7.285,1,1,0.0
0xw4hsydjiw8n5x9emapoyfs,3,3,3,30,pd,3,0.0,1.0,11.619,1,1,0.0
0xw4hsydjiw8n5x9emapoyfs,4,3,3,58,md,1,0.0,1.0,12.2,1,1,0.0
0xw4hsydjiw8n5x9emapoyfs,5,3,3,17,pd,1,0.0,1.0,14.62,1,1,0.0
0xw4hsydjiw8n5x9emapoyfs,6,3,3,72,pd,1,0.0,1.0,26.044,1,1,0.0
0xw4hsydjiw8n5x9emapoyfs,7,3,3,29,pd,2,0.0,1.0,16.661,1,1,0.0
0xw4hsydjiw8n5x9emapoyfs,8,3,3,76,pd,2,0.0,1.0,15.248,1,1,0.0
0xw4hsydjiw8n5x9emapoyfs,9,3,3,35,pd,2,0.0,1.0,18.309,1,1,0.0
0xw4hsydjiw8n5x9emapoyfs,10,3,3,64,pd,2,0.0,1.0,13.607,1,1,0.0
0xw4hsydjiw8n5x9emapoyfs,11,3,3,66,pd,3,2.0,0.0,6.921,1,1,0.0
0xw4hsydjiw8n5x9emapoyfs,12,3,3,24,pd,2,2.0,0.0,22.316,1,1,0.0
1be65lu7yhotwchl8gvst0jl,1,3,1,55,pd,2,0.0,1.0,12.391,1,1,0.0
1be65lu7yhotwchl8gvst0jl,2,3,1,66,pd,1,0.0,1.0,11.366,1,1,0.0
1be65lu7yhotwchl8gvst0jl,3,3,1,30,pd,1,0.0,1.0,20.006,1,1,0.0
1be65lu7yhotwchl8gvst0jl,4,3,1,58,md,2,0.0,1.0,16.475,1,1,0.0
1be65lu7yhotwchl8gvst0jl,5,3,1,45,pd,3,0.0,1.0,15.019,1,1,0.0
1be65lu7yhotwchl8gvst0jl,6,3,1,29,pd,3,0.0,1.0,17.318,1,1,0.0
1be65lu7yhotwchl8gvst0jl,7,3,1,17,pd,2,0.0,1.0,21.953,1,1,0.0
1be65lu7yhotwchl8gvst0jl,8,3,1,24,pd,3,0.0,1.0,11.872,1,1,0.0
1be65lu7yhotwchl8gvst0jl,9,3,1,72,pd,2,0.0,1.0,9.866,1,1,0.0
1be65lu7yhotwchl8gvst0jl,10,3,1,64,pd,3,0.0,1.0,26.716,1,1,0.0
1be65lu7yhotwchl8gvst0jl,11,3,1,76,pd,3,0.0,1.0,20.38,1,1,0.0
1be65lu7yhotwchl8gvst0jl,12,3,1,35,pd,3,0.0,1.0,16.784,1,1,0.0
1du2rpx4zm9oyr4l38kx9gda,1,3,3,45,pd,2,0.0,1.0,12.07,1,1,0.0
1du2rpx4zm9oyr4l38kx9gda,2,3,3,55,pd,1,0.0,1.0,11.603,1,1,0.0
1du2rpx4zm9oyr4l38kx9gda,3,3,3,30,pd,3,3.0,0.0,11.339,1,1,0.0
1du2rpx4zm9oyr4l38kx9gda,4,3,3,58,md,1,0.0,1.0,10.657,1,1,0.0
1du2rpx4zm9oyr4l38kx9gda,5,3,3,17,pd,1,1.0,0.0,15.521,1,1,0.0
1du2rpx4zm9oyr4l38kx9gda,6,3,3,72,pd,1,2.0,0.0,11.242,1,1,0.0
1du2rpx4zm9oyr4l38kx9gda,7,3,3,29,pd,2,0.0,1.0,9.346,1,1,0.0
1du2rpx4zm9oyr4l38kx9gda,8,3,3,76,pd,2,2.0,0.0,10.803,1,1,0.0
1du2rpx4zm9oyr4l38kx9gda,9,3,3,35,pd,2,0.0,1.0,8.664,1,1,0.0
1du2rpx4zm9oyr4l38kx9gda,10,3,3,64,pd,2,1.0,0.0,13.504,1,1,0.0
1du2rpx4zm9oyr4l38kx9gda,11,3,3,66,pd,3,0.0,1.0,10.819,1,1,0.0
1du2rpx4zm9oyr4l38kx9gda,12,3,3,24,pd,2,2.0,0.0,9.795,1,1,0.0
2a49tpjstnyonnrf4g8koc0m,1,3,1,55,pd,2,2.0,0.0,12.071,1,1,0.0
2a49tpjstnyonnrf4g8koc0m,2,3,1,66,pd,1,0.0,1.0,6.157,1,1,0.0
2a49tpjstnyonnrf4g8koc0m,3,3,1,30,pd,1,0.0,1.0,12.204,1,1,0.0
2a49tpjstnyonnrf4g8koc0m,4,3,1,58,md,2,1.0,0.0,9.006,1,1,0.0
2a49tpjstnyonnrf4g8koc0m,5,3,1,45,pd,3,0.0,1.0,10.819,1,1,0.0
2a49tpjstnyonnrf4g8koc0m,6,3,1,29,pd,3,3.0,0.0,11.0,1,1,0.0
2a49tpjstnyonnrf4g8koc0m,7,3,1,17,pd,2,0.0,1.0,10.758,1,1,0.0
2a49tpjstnyonnrf4g8koc0m,8,3,1,24,pd,3,1.0,0.0,13.061,1,1,0.0
2a49tpjstnyonnrf4g8koc0m,9,3,1,72,pd,2,0.0,1.0,11.153,1,1,0.0
2a49tpjstnyonnrf4g8koc0m,10,3,1,64,pd,3,1.0,0.0,11.497,1,1,0.0
2a49tpjstnyonnrf4g8koc0m,11,3,1,76,pd,3,3.0,0.0,14.3,1,1,0.0
2a49tpjstnyonnrf4g8koc0m,12,3,1,35,pd,3,0.0,1.0,11.148,1,1,0.0
2ajy8k3cd8e5h9puf8o17lyo,1,3,3,45,pd,2,0.0,1.0,12.685,1,1,0.0
2ajy8k3cd8e5h9puf8o17lyo,2,3,3,55,pd,1,0.0,1.0,6.302,1,1,0.0
2ajy8k3cd8e5h9puf8o17lyo,3,3,3,30,pd,3,0.0,1.0,7.312,1,1,0.0
2ajy8k3cd8e5h9puf8o17lyo,4,3,3,58,md,1,0.0,1.0,11.77,1,1,0.0
2ajy8k3cd8e5h9puf8o17lyo,5,3,3,17,pd,1,0.0,1.0,6.282,1,1,0.0
2ajy8k3cd8e5h9puf8o17lyo,6,3,3,72,pd,1,0.0,1.0,6.658,1,1,0.0
2ajy8k3cd8e5h9puf8o17lyo,7,3,3,29,pd,2,0.0,1.0,9.967,1,1,0.0
2ajy8k3cd8e5h9puf8o17lyo,8,3,3,76,pd,2,0.0,1.0,22.853,1,1,0.0
2ajy8k3cd8e5h9puf8o17lyo,9,3,3,35,pd,2,0.0,1.0,14.112,1,1,0.0
2ajy8k3cd8e5h9puf8o17lyo,10,3,3,64,pd,2,2.0,0.0,17.07,1,1,0.0
2ajy8k3cd8e5h9puf8o17lyo,11,3,3,66,pd,3,0.0,1.0,11.567,1,1,0.0
2ajy8k3cd8e5h9puf8o17lyo,12,3,3,24,pd,2,0.0,1.0,23.132,1,1,0.0
2fdg3adknlqvzqcaveryv2f4,1,3,2,45,pd,1,2.0,0.0,17.356,1,1,0.0
2fdg3adknlqvzqcaveryv2f4,2,3,2,30,pd,2,0.0,1.0,21.287,1,1,0.0
2fdg3adknlqvzqcaveryv2f4,3,3,2,55,pd,3,0.0,1.0,15.779,1,1,0.0
2fdg3adknlqvzqcaveryv2f4,4,3,2,29,pd,1,0.0,1.0,10.813,1,1,0.0
2fdg3adknlqvzqcaveryv2f4,5,3,2,64,pd,1,0.0,1.0,17.87,1,1,0.0
2fdg3adknlqvzqcaveryv2f4,6,3,2,35,pd,1,0.0,1.0,9.616,1,1,0.0
2fdg3adknlqvzqcaveryv2f4,7,3,2,24,pd,1,0.0,1.0,14.448,1,1,0.0
2fdg3adknlqvzqcaveryv2f4,8,3,2,17,pd,3,0.0,1.0,12.555,1,1,0.0
2fdg3adknlqvzqcaveryv2f4,9,3,2,58,md,3,0.0,1.0,19.099,1,1,0.0
2fdg3adknlqvzqcaveryv2f4,10,3,2,76,pd,1,0.0,1.0,18.863,1,1,0.0
2fdg3adknlqvzqcaveryv2f4,11,3,2,72,pd,3,2.0,0.0,14.364,1,1,0.0
2fdg3adknlqvzqcaveryv2f4,12,3,2,66,pd,2,0.0,1.0,22.02,1,1,0.0
2jlme8pijrvlpefy54ynuym2,1,3,1,55,pd,2,1.0,0.0,27.479,1,1,0.0
2jlme8pijrvlpefy54ynuym2,2,3,1,66,pd,1,0.0,1.0,13.062,1,1,0.0
2jlme8pijrvlpefy54ynuym2,3,3,1,30,pd,1,0.0,1.0,9.466,1,1,0.0
2jlme8pijrvlpefy54ynuym2,4,3,1,58,md,2,1.0,0.0,14.32,1,1,0.0
2jlme8pijrvlpefy54ynuym2,5,3,1,45,pd,3,1.0,0.0,12.343,1,1,0.0
2jlme8pijrvlpefy54ynuym2,6,3,1,29,pd,3,0.0,1.0,18.118,1,1,0.0
2jlme8pijrvlpefy54ynuym2,7,3,1,17,pd,2,0.0,1.0,26.759,1,1,0.0
2jlme8pijrvlpefy54ynuym2,8,3,1,24,pd,3,0.0,1.0,11.357,1,1,0.0
2jlme8pijrvlpefy54ynuym2,9,3,1,72,pd,2,2.0,0.0,12.97,1,1,0.0
2jlme8pijrvlpefy54ynuym2,10,3,1,64,pd,3,0.0,1.0,21.713,1,1,0.0
2jlme8pijrvlpefy54ynuym2,11,3,1,76,pd,3,0.0,1.0,12.319,1,1,0.0
2jlme8pijrvlpefy54ynuym2,12,3,1,35,pd,3,0.0,1.0,18.328,1,1,0.0
2u17wfoovfto4iks011dibw7,1,3,2,45,pd,1,0.0,1.0,15.324,1,1,0.0
2u17wfoovfto4iks011dibw7,2,3,2,30,pd,2,0.0,1.0,15.713,1,1,0.0
2u17wfoovfto4iks011dibw7,3,3,2,55,pd,3,0.0,1.0,8.063,1,1,0.0
2u17wfoovfto4iks011dibw7,4,3,2,29,pd,1,0.0,1.0,9.498,1,1,0.0
2u17wfoovfto4iks011dibw7,5,3,2,64,pd,1,0.0,1.0,13.354,1,1,0.0
2u17wfoovfto4iks011dibw7,6,3,2,35,pd,1,0.0,1.0,9.76,1,1,0.0
2u17wfoovfto4iks011dibw7,7,3,2,24,pd,1,3.0,0.0,24.378,1,1,0.0
2u17wfoovfto4iks011dibw7,8,3,2,17,pd,3,0.0,1.0,23.882,1,1,0.0
2u17wfoovfto4iks011dibw7,9,3,2,58,md,3,0.0,1.0,13.968,1,1,0.0
2u17wfoovfto4iks011dibw7,10,3,2,76,pd,1,1.0,0.0,10.777,1,1,0.0
2u17wfoovfto4iks011dibw7,11,3,2,72,pd,3,0.0,1.0,15.353,1,1,0.0
2u17wfoovfto4iks011dibw7,12,3,2,66,pd,2,0.0,1.0,5.266,1,1,0.0
2ydcu5breoenaqer3phmkei3,1,3,1,55,pd,2,1.0,0.0,7.466,1,1,0.0
2ydcu5breoenaqer3phmkei3,2,3,1,66,pd,1,0.0,1.0,6.018,1,1,0.0
2ydcu5breoenaqer3phmkei3,3,3,1,30,pd,1,3.0,0.0,6.73,1,1,0.0
2ydcu5breoenaqer3phmkei3,4,3,1,58,md,2,0.0,1.0,6.896,1,1,0.0
2ydcu5breoenaqer3phmkei3,5,3,1,45,pd,3,0.0,1.0,12.753,1,1,0.0
2ydcu5breoenaqer3phmkei3,6,3,1,29,pd,3,0.0,1.0,3.489,1,1,0.0
2ydcu5breoenaqer3phmkei3,7,3,1,17,pd,2,0.0,1.0,7.279,1,1,0.0
2ydcu5breoenaqer3phmkei3,8,3,1,24,pd,3,2.0,0.0,7.616,1,1,0.0
2ydcu5breoenaqer3phmkei3,9,3,1,72,pd,2,0.0,1.0,9.265,1,1,0.0
2ydcu5breoenaqer3phmkei3,10,3,1,64,pd,3,0.0,1.0,5.332,1,1,0.0
2ydcu5breoenaqer3phmkei3,11,3,1,76,pd,3,3.0,0.0,9.113,1,1,0.0
2ydcu5breoenaqer3phmkei3,12,3,1,35,pd,3,0.0,1.0,7.105,1,1,0.0
3z65j3k5x0e6gfdasssf2ddo,1,3,3,45,pd,2,0.0,1.0,11.147,1,1,0.0
3z65j3k5x0e6gfdasssf2ddo,2,3,3,55,pd,1,0.0,1.0,14.092,1,1,0.0
3z65j3k5x0e6gfdasssf2ddo,3,3,3,30,pd,3,0.0,1.0,15.776,1,1,0.0
3z65j3k5x0e6gfdasssf2ddo,4,3,3,58,md,1,0.0,1.0,11.695,1,1,0.0
3z65j3k5x0e6gfdasssf2ddo,5,3,3,17,pd,1,0.0,1.0,17.909,1,1,0.0
3z65j3k5x0e6gfdasssf2ddo,6,3,3,72,pd,1,0.0,1.0,8.967,1,1,0.0
3z65j3k5x0e6gfdasssf2ddo,7,3,3,29,pd,2,0.0,1.0,7.421,1,1,0.0
3z65j3k5x0e6gfdasssf2ddo,8,3,3,76,pd,2,0.0,1.0,21.773,1,1,0.0
3z65j3k5x0e6gfdasssf2ddo,9,3,3,35,pd,2,0.0,1.0,8.964,1,1,0.0
3z65j3k5x0e6gfdasssf2ddo,10,3,3,64,pd,2,0.0,1.0,11.527,1,1,0.0
3z65j3k5x0e6gfdasssf2ddo,11,3,3,66,pd,3,,,,1,1,0.0
3z65j3k5x0e6gfdasssf2ddo,12,3,3,24,pd,2,0.0,1.0,12.321,1,1,0.0
49ymqsd9j5092q04edq7w6gm,1,3,3,45,pd,2,0.0,1.0,25.045,1,1,0.0
49ymqsd9j5092q04edq7w6gm,2,3,3,55,pd,1,2.0,0.0,26.564,1,1,0.0
49ymqsd9j5092q04edq7w6gm,3,3,3,30,pd,3,0.0,1.0,16.444,1,1,0.0
49ymqsd9j5092q04edq7w6gm,4,3,3,58,md,1,0.0,1.0,18.27,1,1,0.0
49ymqsd9j5092q04edq7w6gm,5,3,3,17,pd,1,2.0,0.0,23.67,1,1,0.0
49ymqsd9j5092q04edq7w6gm,6,3,3,72,pd,1,2.0,0.0,23.053,1,1,0.0
49ymqsd9j5092q04edq7w6gm,7,3,3,29,pd,2,3.0,0.0,25.471,1,1,0.0
49ymqsd9j5092q04edq7w6gm,8,3,3,76,pd,2,0.0,1.0,15.596,1,1,0.0
49ymqsd9j5092q04edq7w6gm,9,3,3,35,pd,2,3.0,0.0,28.716,1,1,0.0
49ymqsd9j5092q04edq7w6gm,10,3,3,64,pd,2,1.0,0.0,8.802,1,1,0.0
49ymqsd9j5092q04edq7w6gm,11,3,3,66,pd,3,1.0,0.0,14.506,1,1,0.0
49ymqsd9j5092q04edq7w6gm,12,3,3,24,pd,2,2.0,0.0,12.583,1,1,0.0
4befqnrylgwx3gxshaax7hwa,1,3,1,55,pd,2,0.0,1.0,8.478,1,1,0.0
4befqnrylgwx3gxshaax7hwa,2,3,1,66,pd,1,0.0,1.0,5.999,1,1,0.0
4befqnrylgwx3gxshaax7hwa,3,3,1,30,pd,1,0.0,1.0,4.53,1,1,0.0
4befqnrylgwx3gxshaax7hwa,4,3,1,58,md,2,0.0,1.0,10.409,1,1,0.0
4befqnrylgwx3gxshaax7hwa,5,3,1,45,pd,3,0.0,1.0,10.568,1,1,0.0
4befqnrylgwx3gxshaax7hwa,6,3,1,29,pd,3,0.0,1.0,8.339,1,1,0.0
4befqnrylgwx3gxshaax7hwa,7,3,1,17,pd,2,0.0,1.0,24.93,1,1,0.0
4befqnrylgwx3gxshaax7hwa,8,3,1,24,pd,3,0.0,1.0,18.085,1,1,0.0
4befqnrylgwx3gxshaax7hwa,9,3,1,72,pd,2,0.0,1.0,6.968,1,1,0.0
4befqnrylgwx3gxshaax7hwa,10,3,1,64,pd,3,2.0,0.0,13.754,1,1,0.0
4befqnrylgwx3gxshaax7hwa,11,3,1,76,pd,3,2.0,0.0,5.242,1,1,0.0
4befqnrylgwx3gxshaax7hwa,12,3,1,35,pd,3,0.0,1.0,5.39,1,1,0.0
4lo2jkap3pxbifsbagvf3h7j,1,3,2,45,pd,1,2.0,0.0,10.477,1,1,0.0
4lo2jkap3pxbifsbagvf3h7j,2,3,2,30,pd,2,0.0,1.0,17.258,1,1,0.0
4lo2jkap3pxbifsbagvf3h7j,3,3,2,55,pd,3,0.0,1.0,5.546,1,1,0.0
4lo2jkap3pxbifsbagvf3h7j,4,3,2,29,pd,1,2.0,0.0,10.668,1,1,0.0
4lo2jkap3pxbifsbagvf3h7j,5,3,2,64,pd,1,0.0,1.0,9.428,1,1,0.0
4lo2jkap3pxbifsbagvf3h7j,6,3,2,35,pd,1,0.0,1.0,11.547,1,1,0.0
4lo2jkap3pxbifsbagvf3h7j,7,3,2,24,pd,1,0.0,1.0,11.524,1,1,0.0
4lo2jkap3pxbifsbagvf3h7j,8,3,2,17,pd,3,0.0,1.0,18.34,1,1,0.0
4lo2jkap3pxbifsbagvf3h7j,9,3,2,58,md,3,0.0,1.0,11.028,1,1,0.0
4lo2jkap3pxbifsbagvf3h7j,10,3,2,76,pd,1,3.0,0.0,19.516,1,1,0.0
4lo2jkap3pxbifsbagvf3h7j,11,3,2,72,pd,3,2.0,0.0,10.484,1,1,0.0
4lo2jkap3pxbifsbagvf3h7j,12,3,2,66,pd,2,1.0,0.0,22.317,1,1,0.0
5dj0z4d9nqg0ibe4b8kmckej,1,3,1,55,pd,2,1.0,0.0,13.757,1,1,0.0
5dj0z4d9nqg0ibe4b8kmckej,2,3,1,66,pd,1,0.0,1.0,9.556,1,1,0.0
5dj0z4d9nqg0ibe4b8kmckej,3,3,1,30,pd,1,0.0,1.0,16.067,1,1,0.0
5dj0z4d9nqg0ibe4b8kmckej,4,3,1,58,md,2,0.0,1.0,14.173,1,1,0.0
5dj0z4d9nqg0ibe4b8kmckej,5,3,1,45,pd,3,0.0,1.0,15.009,1,1,0.0
5dj0z4d9nqg0ibe4b8kmckej,6,3,1,29,pd,3,0.0,1.0,19.483,1,1,0.0
5dj0z4d9nqg0ibe4b8kmckej,7,3,1,17,pd,2,,,,1,1,0.0
5dj0z4d9nqg0ibe4b8kmckej,8,3,1,24,pd,3,0.0,1.0,9.991,1,1,0.0
5dj0z4d9nqg0ibe4b8kmckej,9,3,1,72,pd,2,0.0,1.0,21.834,1,1,0.0
5dj0z4d9nqg0ibe4b8kmckej,10,3,1,64,pd,3,0.0,1.0,16.069,1,1,0.0
5dj0z4d9nqg0ibe4b8kmckej,11,3,1,76,pd,3,0.0,1.0,14.137,1,1,0.0
5dj0z4d9nqg0ibe4b8kmckej,12,3,1,35,pd,3,0.0,1.0,28.936,1,1,0.0
5jehrrix0jp71xf04ines46e,1,3,3,45,pd,2,0.0,1.0,10.956,1,1,0.0
5jehrrix0jp71xf04ines46e,2,3,3,55,pd,1,2.0,0.0,8.396,1,1,0.0
5jehrrix0jp71xf04ines46e,3,3,3,30,pd,3,2.0,0.0,22.428,1,1,0.0
5jehrrix0jp71xf04ines46e,4,3,3,58,md,1,0.0,1.0,25.445,1,1,0.0
5jehrrix0jp71xf04ines46e,5,3,3,17,pd,1,1.0,0.0,22.034,1,1,0.0
5jehrrix0jp71xf04ines46e,6,3,3,72,pd,1,3.0,0.0,23.605,1,1,0.0
5jehrrix0jp71xf04ines46e,7,3,3,29,pd,2,3.0,0.0,25.539,1,1,0.0
5jehrrix0jp71xf04ines46e,8,3,3,76,pd,2,0.0,1.0,25.356,1,1,0.0
5jehrrix0jp71xf04ines46e,9,3,3,35,pd,2,0.0,1.0,21.698,1,1,0.0
5jehrrix0jp71xf04ines46e,10,3,3,64,pd,2,2.0,0.0,7.212,1,1,0.0
5jehrrix0jp71xf04ines46e,11,3,3,66,pd,3,2.0,0.0,5.46,1,1,0.0
5jehrrix0jp71xf04ines46e,12,3,3,24,pd,2,1.0,0.0,5.284,1,1,0.0
5jyqnu1ltb66722yzsldztcv,1,3,2,45,pd,1,0.0,1.0,9.5,1,1,0.0
5jyqnu1ltb66722yzsldztcv,2,3,2,30,pd,2,0.0,1.0,22.624,1,1,0.0
5jyqnu1ltb66722yzsldztcv,3,3,2,55,pd,3,0.0,1.0,16.336,1,1,0.0
5jyqnu1ltb66722yzsldztcv,4,3,2,29,pd,1,0.0,1.0,25.004,1,1,0.0
5jyqnu1ltb66722yzsldztcv,5,3,2,64,pd,1,0.0,1.0,14.166,1,1,0.0
5jyqnu1ltb66722yzsldztcv,6,3,2,35,pd,1,1.0,0.0,10.544,1,1,0.0
5jyqnu1ltb66722yzsldztcv,7,3,2,24,pd,1,2.0,0.0,13.057,1,1,0.0
5jyqnu1ltb66722yzsldztcv,8,3,2,17,pd,3,,,,1,1,0.0
5jyqnu1ltb66722yzsldztcv,9,3,2,58,md,3,1.0,0.0,13.932,1,1,0.0
5jyqnu1ltb66722yzsldztcv,10,3,2,76,pd,1,0.0,1.0,6.929,1,1,0.0
5jyqnu1ltb66722yzsldztcv,11,3,2,72,pd,3,3.0,0.0,7.921,1,1,0.0
5jyqnu1ltb66722yzsldztcv,12,3,2,66,pd,2,2.0,0.0,15.328,1,1,4.0
5nrm5hqpgawjakat3lrpqddc,1,3,2,45,pd,1,2.0,0.0,8.696,1,1,0.0
5nrm5hqpgawjakat3lrpqddc,2,3,2,30,pd,2,0.0,1.0,12.749,1,1,0.0
5nrm5hqpgawjakat3lrpqddc,3,3,2,55,pd,3,0.0,1.0,19.602,1,1,0.0
5nrm5hqpgawjakat3lrpqddc,4,3,2,29,pd,1,0.0,1.0,6.422,1,1,0.0
5nrm5hqpgawjakat3lrpqddc,5,3,2,64,pd,1,0.0,1.0,13.236,1,1,0.0
5nrm5hqpgawjakat3lrpqddc,6,3,2,35,pd,1,3.0,0.0,12.483,1,1,0.0
5nrm5hqpgawjakat3lrpqddc,7,3,2,24,pd,1,0.0,1.0,10.479,1,1,0.0
5nrm5hqpgawjakat3lrpqddc,8,3,2,17,pd,3,0.0,1.0,24.19,1,1,0.0
5nrm5hqpgawjakat3lrpqddc,9,3,2,58,md,3,0.0,1.0,15.132,1,1,0.0
5nrm5hqpgawjakat3lrpqddc,10,3,2,76,pd,1,2.0,0.0,14.385,1,1,0.0
5nrm5hqpgawjakat3lrpqddc,11,3,2,72,pd,3,2.0,0.0,9.4,1,1,0.0
5nrm5hqpgawjakat3lrpqddc,12,3,2,66,pd,2,2.0,0.0,7.423,1,1,0.0
5z17417xklar8vlhao0hmh81,1,3,2,45,pd,1,0.0,1.0,14.193,1,1,0.0
5z17417xklar8vlhao0hmh81,2,3,2,30,pd,2,0.0,1.0,21.74,1,1,0.0
5z17417xklar8vlhao0hmh81,3,3,2,55,pd,3,0.0,1.0,11.451,1,1,0.0
5z17417xklar8vlhao0hmh81,4,3,2,29,pd,1,0.0,1.0,21.826,1,1,0.0
5z17417xklar8vlhao0hmh81,5,3,2,64,pd,1,1.0,0.0,21.57,1,1,0.0
5z17417xklar8vlhao0hmh81,6,3,2,35,pd,1,0.0,1.0,22.257,1,1,0.0
5z17417xklar8vlhao0hmh81,7,3,2,24,pd,1,0.0,1.0,8.665,1,1,0.0
5z17417xklar8vlhao0hmh81,8,3,2,17,pd,3,1.0,0.0,29.94,1,1,0.0
5z17417xklar8vlhao0hmh81,9,3,2,58,md,3,0.0,1.0,12.361,1,1,0.0
5z17417xklar8vlhao0hmh81,10,3,2,76,pd,1,2.0,0.0,27.82,1,1,0.0
5z17417xklar8vlhao0hmh81,11,3,2,72,pd,3,2.0,0.0,16.322,1,1,0.0
5z17417xklar8vlhao0hmh81,12,3,2,66,pd,2,0.0,1.0,15.027,1,1,0.0
63cb08yaktqmqkixxkihvnm1,1,3,1,55,pd,2,1.0,0.0,11.959,1,1,0.0
63cb08yaktqmqkixxkihvnm1,2,3,1,66,pd,1,2.0,0.0,7.162,0,1,0.0
63cb08yaktqmqkixxkihvnm1,3,3,1,30,pd,1,3.0,0.0,6.329,1,1,0.0
63cb08yaktqmqkixxkihvnm1,4,3,1,58,md,2,0.0,1.0,3.818,1,1,0.0
63cb08yaktqmqkixxkihvnm1,5,3,1,45,pd,3,2.0,0.0,8.911,1,1,0.0
63cb08yaktqmqkixxkihvnm1,6,3,1,29,pd,3,0.0,1.0,6.504,1,1,0.0
63cb08yaktqmqkixxkihvnm1,7,3,1,17,pd,2,2.0,0.0,1.971,0,1,0.0
63cb08yaktqmqkixxkihvnm1,8,3,1,24,pd,3,3.0,0.0,6.199,0,1,0.0
63cb08yaktqmqkixxkihvnm1,9,3,1,72,pd,2,3.0,0.0,4.407,1,1,0.0
63cb08yaktqmqkixxkihvnm1,10,3,1,64,pd,3,1.0,0.0,1.832,1,1,0.0
63cb08yaktqmqkixxkihvnm1,11,3,1,76,pd,3,0.0,1.0,3.365,1,1,0.0
63cb08yaktqmqkixxkihvnm1,12,3,1,35,pd,3,1.0,0.0,4.262,1,1,0.0
64l3mcrhtvft9ihly8wv8qil,1,3,3,45,pd,2,0.0,1.0,12.987,1,1,0.0
64l3mcrhtvft9ihly8wv8qil,2,3,3,55,pd,1,0.0,1.0,12.2,1,1,0.0
64l3mcrhtvft9ihly8wv8qil,3,3,3,30,pd,3,0.0,1.0,24.202,1,1,0.0
64l3mcrhtvft9ihly8wv8qil,4,3,3,58,md,1,,,,1,1,0.0
64l3mcrhtvft9ihly8wv8qil,5,3,3,17,pd,1,1.0,0.0,13.624,1,1,0.0
64l3mcrhtvft9ihly8wv8qil,6,3,3,72,pd,1,0.0,1.0,15.147,1,1,0.0
64l3mcrhtvft9ihly8wv8qil,7,3,3,29,pd,2,0.0,1.0,12.248,1,1,0.0
64l3mcrhtvft9ihly8wv8qil,8,3,3,76,pd,2,2.0,0.0,13.693,1,1,0.0
64l3mcrhtvft9ihly8wv8qil,9,3,3,35,pd,2,3.0,0.0,11.646,1,1,0.0
64l3mcrhtvft9ihly8wv8qil,10,3,3,64,pd,2,0.0,1.0,19.206,1,1,0.0
64l3mcrhtvft9ihly8wv8qil,11,3,3,66,pd,3,0.0,1.0,17.668,1,1,0.0
64l3mcrhtvft9ihly8wv8qil,12,3,3,24,pd,2,0.0,1.0,16.849,1,1,0.0
6aa7cq97dyyx549e15dk59zg,1,3,2,45,pd,1,0.0,1.0,6.363,1,1,0.0
6aa7cq97dyyx549e15dk59zg,2,3,2,30,pd,2,2.0,0.0,9.096,1,1,0.0
6aa7cq97dyyx549e15dk59zg,3,3,2,55,pd,3,0.0,1.0,6.918,1,1,0.0
6aa7cq97dyyx549e15dk59zg,4,3,2,29,pd,1,2.0,0.0,8.848,1,1,0.0
6aa7cq97dyyx549e15dk59zg,5,3,2,64,pd,1,1.0,0.0,10.394,1,1,0.0
6aa7cq97dyyx549e15dk59zg,6,3,2,35,pd,1,0.0,1.0,5.675,1,1,0.0
6aa7cq97dyyx549e15dk59zg,7,3,2,24,pd,1,2.0,0.0,11.951,1,1,0.0
6aa7cq97dyyx549e15dk59zg,8,3,2,17,pd,3,0.0,1.0,13.182,1,1,0.0
6aa7cq97dyyx549e15dk59zg,9,3,2,58,md,3,0.0,1.0,14.375,1,1,0.0
6aa7cq97dyyx549e15dk59zg,10,3,2,76,pd,1,2.0,0.0,5.884,1,1,0.0
6aa7cq97dyyx549e15dk59zg,11,3,2,72,pd,3,3.0,0.0,9.201,1,1,0.0
6aa7cq97dyyx549e15dk59zg,12,3,2,66,pd,2,0.0,1.0,15.066,1,1,0.0
6m8k1rargwqblxixzy1zwlhn,1,3,3,45,pd,2,0.0,1.0,14.382,1,1,0.0
6m8k1rargwqblxixzy1zwlhn,2,3,3,55,pd,1,0.0,1.0,26.91,1,1,0.0
6m8k1rargwqblxixzy1zwlhn,3,3,3,30,pd,3,0.0,1.0,23.099,1,1,0.0
6m8k1rargwqblxixzy1zwlhn,4,3,3,58,md,1,0.0,1.0,24.147,1,1,0.0
6m8k1rargwqblxixzy1zwlhn,5,3,3,17,pd,1,,,,1,1,0.0
6m8k1rargwqblxixzy1zwlhn,6,3,3,72,pd,1,0.0,1.0,22.838,1,1,0.0
6m8k1rargwqblxixzy1zwlhn,7,3,3,29,pd,2,0.0,1.0,10.334,1,1,0.0
6m8k1rargwqblxixzy1zwlhn,8,3,3,76,pd,2,0.0,1.0,28.372,1,1,0.0
6m8k1rargwqblxixzy1zwlhn,9,3,3,35,pd,2,1.0,0.0,28.323,1,1,0.0
6m8k1rargwqblxixzy1zwlhn,10,3,3,64,pd,2,2.0,0.0,26.881,1,1,0.0
6m8k1rargwqblxixzy1zwlhn,11,3,3,66,pd,3,0.0,1.0,22.129,1,1,0.0
6m8k1rargwqblxixzy1zwlhn,12,3,3,24,pd,2,0.0,1.0,12.334,1,1,0.0
7hx2rsgv0o3slq9s0g8nm0c9,1,3,3,45,pd,2,0.0,1.0,15.415,1,1,0.0
7hx2rsgv0o3slq9s0g8nm0c9,2,3,3,55,pd,1,0.0,1.0,10.356,1,1,0.0
7hx2rsgv0o3slq9s0g8nm0c9,3,3,3,30,pd,3,0.0,1.0,16.88,1,1,0.0
7hx2rsgv0o3slq9s0g8nm0c9,4,3,3,58,md,1,0.0,1.0,9.6,1,1,0.0
7hx2rsgv0o3slq9s0g8nm0c9,5,3,3,17,pd,1,0.0,1.0,14.042,1,1,0.0
7hx2rsgv0o3slq9s0g8nm0c9,6,3,3,72,pd,1,3.0,0.0,16.94,1,1,0.0
7hx2rsgv0o3slq9s0g8nm0c9,7,3,3,29,pd,2,0.0,1.0,16.028,1,1,0.0
7hx2rsgv0o3slq9s0g8nm0c9,8,3,3,76,pd,2,0.0,1.0,21.23,1,1,0.0
7hx2rsgv0o3slq9s0g8nm0c9,9,3,3,35,pd,2,1.0,0.0,17.099,1,1,0.0
7hx2rsgv0o3slq9s0g8nm0c9,10,3,3,64,pd,2,0.0,1.0,16.969,1,1,0.0
7hx2rsgv0o3slq9s0g8nm0c9,11,3,3,66,pd,3,1.0,0.0,16.7,1,1,0.0
7hx2rsgv0o3slq9s0g8nm0c9,12,3,3,24,pd,2,3.0,0.0,20.521,1,1,0.0
904us1xo4en5ejund7wj7xcz,1,3,2,45,pd,1,0.0,1.0,10.389,1,1,0.0
904us1xo4en5ejund7wj7xcz,2,3,2,30,pd,2,0.0,1.0,13.706,1,1,0.0
904us1xo4en5ejund7wj7xcz,3,3,2,55,pd,3,0.0,1.0,9.952,1,1,0.0
904us1xo4en5ejund7wj7xcz,4,3,2,29,pd,1,0.0,1.0,13.675,1,1,0.0
904us1xo4en5ejund7wj7xcz,5,3,2,64,pd,1,0.0,1.0,17.172,1,1,0.0
904us1xo4en5ejund7wj7xcz,6,3,2,35,pd,1,0.0,1.0,8.873,1,1,0.0
904us1xo4en5ejund7wj7xcz,7,3,2,24,pd,1,0.0,1.0,23.079,1,1,0.0
904us1xo4en5ejund7wj7xcz,8,3,2,17,pd,3,0.0,1.0,24.513,1,1,0.0
904us1xo4en5ejund7wj7xcz,9,3,2,58,md,3,1.0,0.0,26.148,1,1,0.0
904us1xo4en5ejund7wj7xcz,10,3,2,76,pd,1,0.0,1.0,29.578,1,1,0.0
904us1xo4en5ejund7wj7xcz,11,3,2,72,pd,3,0.0,1.0,14.398,1,1,0.0
904us1xo4en5ejund7wj7xcz,12,3,2,66,pd,2,0.0,1.0,15.621,1,1,0.0
9aw9gl5jqv46t2q1flf417d0,1,3,1,55,pd,2,0.0,1.0,21.232,1,1,0.0
9aw9gl5jqv46t2q1flf417d0,2,3,1,66,pd,1,0.0,1.0,13.24,1,1,0.0
9aw9gl5jqv46t2q1flf417d0,3,3,1,30,pd,1,0.0,1.0,10.424,1,1,0.0
9aw9gl5jqv46t2q1flf417d0,4,3,1,58,md,2,1.0,0.0,24.953,1,1,0.0
9aw9gl5jqv46t2q1flf417d0,5,3,1,45,pd,3,0.0,1.0,26.607,1,1,0.0
9aw9gl5jqv46t2q1flf417d0,6,3,1,29,pd,3,0.0,1.0,7.35,1,1,0.0
9aw9gl5jqv46t2q1flf417d0,7,3,1,17,pd,2,0.0,1.0,21.401,1,1,0.0
9aw9gl5jqv46t2q1flf417d0,8,3,1,24,pd,3,0.0,1.0,9.581,1,1,0.0
9aw9gl5jqv46t2q1flf417d0,9,3,1,72,pd,2,0.0,1.0,15.594,1,1,0.0
9aw9gl5jqv46t2q1flf417d0,10,3,1,64,pd,3,0.0,1.0,25.516,1,1,0.0
9aw9gl5jqv46t2q1flf417d0,11,3,1,76,pd,3,0.0,1.0,16.805,1,1,0.0
9aw9gl5jqv46t2q1flf417d0,12,3,1,35,pd,3,0.0,1.0,17.585,1,1,0.0
9tz3b7sj8khwmyl6fj7nucqi,1,3,2,45,pd,1,0.0,1.0,10.448,1,1,0.0
9tz3b7sj8khwmyl6fj7nucqi,2,3,2,30,pd,2,2.0,0.0,15.305,1,1,0.0
9tz3b7sj8khwmyl6fj7nucqi,3,3,2,55,pd,3,0.0,1.0,9.906,1,1,0.0
9tz3b7sj8khwmyl6fj7nucqi,4,3,2,29,pd,1,0.0,1.0,12.008,1,1,0.0
9tz3b7sj8khwmyl6fj7nucqi,5,3,2,64,pd,1,0.0,1.0,23.221,1,1,0.0
9tz3b7sj8khwmyl6fj7nucqi,6,3,2,35,pd,1,0.0,1.0,14.49,1,1,0.0
9tz3b7sj8khwmyl6fj7nucqi,7,3,2,24,pd,1,1.0,0.0,22.048,1,1,0.0
9tz3b7sj8khwmyl6fj7nucqi,8,3,2,17,pd,3,0.0,1.0,18.697,1,1,0.0
9tz3b7sj8khwmyl6fj7nucqi,9,3,2,58,md,3,2.0,0.0,16.83,1,1,0.0
9tz3b7sj8khwmyl6fj7nucqi,10,3,2,76,pd,1,3.0,0.0,20.412,1,1,0.0
9tz3b7sj8khwmyl6fj7nucqi,11,3,2,72,pd,3,2.0,0.0,21.087,1,1,0.0
9tz3b7sj8khwmyl6fj7nucqi,12,3,2,66,pd,2,2.0,0.0,23.55,1,1,0.0
ae9x8jlpq2by67vm77fdw21b,1,3,1,55,pd,2,1.0,0.0,17.716,1,1,0.0
ae9x8jlpq2by67vm77fdw21b,2,3,1,66,pd,1,2.0,0.0,17.887,1,1,0.0
ae9x8jlpq2by67vm77fdw21b,3,3,1,30,pd,1,0.0,1.0,8.372,1,1,0.0
ae9x8jlpq2by67vm77fdw21b,4,3,1,58,md,2,3.0,0.0,10.292,1,1,0.0
ae9x8jlpq2by67vm77fdw21b,5,3,1,45,pd,3,0.0,1.0,8.365,1,1,0.0
ae9x8jlpq2by67vm77fdw21b,6,3,1,29,pd,3,0.0,1.0,14.073,1,1,0.0
ae9x8jlpq2by67vm77fdw21b,7,3,1,17,pd,2,1.0,0.0,16.366,1,1,0.0
ae9x8jlpq2by67vm77fdw21b,8,3,1,24,pd,3,3.0,0.0,13.551,1,1,0.0
ae9x8jlpq2by67vm77fdw21b,9,3,1,72,pd,2,0.0,1.0,18.402,1,1,0.0
ae9x8jlpq2by67vm77fdw21b,10,3,1,64,pd,3,0.0,1.0,21.304,1,1,0.0
ae9x8jlpq2by67vm77fdw21b,11,3,1,76,pd,3,1.0,0.0,11.035,1,1,0.0
ae9x8jlpq2by67vm77fdw21b,12,3,1,35,pd,3,3.0,0.0,13.562,1,1,0.0
ahu64kinfjnyyollp82777wn,1,3,3,45,pd,2,0.0,1.0,9.584,1,1,0.0
ahu64kinfjnyyollp82777wn,2,3,3,55,pd,1,0.0,1.0,9.355,1,1,0.0
ahu64kinfjnyyollp82777wn,3,3,3,30,pd,3,0.0,1.0,14.55,1,1,0.0
ahu64kinfjnyyollp82777wn,4,3,3,58,md,1,0.0,1.0,14.7,1,1,0.0
ahu64kinfjnyyollp82777wn,5,3,3,17,pd,1,1.0,0.0,21.494,1,1,0.0
ahu64kinfjnyyollp82777wn,6,3,3,72,pd,1,0.0,1.0,16.418,1,1,0.0
ahu64kinfjnyyollp82777wn,7,3,3,29,pd,2,0.0,1.0,22.119,1,1,0.0
ahu64kinfjnyyollp82777wn,8,3,3,76,pd,2,0.0,1.0,25.047,1,1,0.0
ahu64kinfjnyyollp82777wn,9,3,3,35,pd,2,0.0,1.0,28.99,1,1,0.0
ahu64kinfjnyyollp82777wn,10,3,3,64,pd,2,0.0,1.0,29.713,1,1,0.0
ahu64kinfjnyyollp82777wn,11,3,3,66,pd,3,0.0,1.0,27.537,1,1,0.0
ahu64kinfjnyyollp82777wn,12,3,3,24,pd,2,0.0,1.0,22.108,1,1,0.0
b5frji5hv5d7xietvx944qzz,1,3,1,55,pd,2,2.0,0.0,19.423,1,1,0.0
b5frji5hv5d7xietvx944qzz,2,3,1,66,pd,1,0.0,1.0,11.525,1,1,0.0
b5frji5hv5d7xietvx944qzz,3,3,1,30,pd,1,3.0,0.0,8.31,1,1,0.0
b5frji5hv5d7xietvx944qzz,4,3,1,58,md,2,3.0,0.0,14.98,1,1,0.0
b5frji5hv5d7xietvx944qzz,5,3,1,45,pd,3,0.0,1.0,10.716,1,1,0.0
b5frji5hv5d7xietvx944qzz,6,3,1,29,pd,3,3.0,0.0,14.957,1,1,0.0
b5frji5hv5d7xietvx944qzz,7,3,1,17,pd,2,0.0,1.0,16.645,1,1,0.0
b5frji5hv5d7xietvx944qzz,8,3,1,24,pd,3,1.0,0.0,13.845,1,1,0.0
b5frji5hv5d7xietvx944qzz,9,3,1,72,pd,2,3.0,0.0,18.996,1,1,0.0
b5frji5hv5d7xietvx944qzz,10,3,1,64,pd,3,1.0,0.0,20.131,1,1,0.0
b5frji5hv5d7xietvx944qzz,11,3,1,76,pd,3,3.0,0.0,16.665,1,1,0.0
b5frji5hv5d7xietvx944qzz,12,3,1,35,pd,3,0.0,1.0,23.812,1,1,0.0
bet3v8jup1a9hzxfgo41uivh,1,3,1,55,pd,2,0.0,1.0,7.873,1,1,0.0
bet3v8jup1a9hzxfgo41uivh,2,3,1,66,pd,1,0.0,1.0,6.661,1,1,0.0
bet3v8jup1a9hzxfgo41uivh,3,3,1,30,pd,1,3.0,0.0,7.658,1,1,0.0
bet3v8jup1a9hzxfgo41uivh,4,3,1,58,md,2,3.0,0.0,9.814,1,1,0.0
bet3v8jup1a9hzxfgo41uivh,5,3,1,45,pd,3,0.0,1.0,24.909,1,1,0.0
bet3v8jup1a9hzxfgo41uivh,6,3,1,29,pd,3,0.0,1.0,18.074,1,1,0.0
bet3v8jup1a9hzxfgo41uivh,7,3,1,17,pd,2,0.0,1.0,17.764,1,1,0.0
bet3v8jup1a9hzxfgo41uivh,8,3,1,24,pd,3,3.0,0.0,16.579,1,1,0.0
bet3v8jup1a9hzxfgo41uivh,9,3,1,72,pd,2,0.0,1.0,11.935,1,1,0.0
bet3v8jup1a9hzxfgo41uivh,10,3,1,64,pd,3,0.0,1.0,17.172,1,1,0.0
bet3v8jup1a9hzxfgo41uivh,11,3,1,76,pd,3,0.0,1.0,5.962,1,1,0.0
bet3v8jup1a9hzxfgo41uivh,12,3,1,35,pd,3,0.0,1.0,26.783,1,1,0.0
bm25wtb8h4y0rcrunpse40us,1,3,3,45,pd,2,0.0,1.0,14.019,1,1,0.0
bm25wtb8h4y0rcrunpse40us,2,3,3,55,pd,1,0.0,1.0,25.009,1,1,0.0
bm25wtb8h4y0rcrunpse40us,3,3,3,30,pd,3,0.0,1.0,10.401,1,1,0.0
bm25wtb8h4y0rcrunpse40us,4,3,3,58,md,1,0.0,1.0,25.974,1,1,0.0
bm25wtb8h4y0rcrunpse40us,5,3,3,17,pd,1,0.0,1.0,14.355,1,1,0.0
bm25wtb8h4y0rcrunpse40us,6,3,3,72,pd,1,0.0,1.0,18.714,1,1,0.0
bm25wtb8h4y0rcrunpse40us,7,3,3,29,pd,2,0.0,1.0,25.356,1,1,0.0
bm25wtb8h4y0rcrunpse40us,8,3,3,76,pd,2,0.0,1.0,25.015,1,1,0.0
bm25wtb8h4y0rcrunpse40us,9,3,3,35,pd,2,0.0,1.0,9.442,1,1,0.0
bm25wtb8h4y0rcrunpse40us,10,3,3,64,pd,2,0.0,1.0,27.489,1,1,0.0
bm25wtb8h4y0rcrunpse40us,11,3,3,66,pd,3,3.0,0.0,15.976,1,1,0.0
bm25wtb8h4y0rcrunpse40us,12,3,3,24,pd,2,0.0,1.0,24.316,1,1,0.0
bu4s3z49jmgzr5do2tt8oyrn,1,3,2,45,pd,1,0.0,1.0,9.42,1,1,0.0
bu4s3z49jmgzr5do2tt8oyrn,2,3,2,30,pd,2,3.0,0.0,6.138,1,1,0.0
bu4s3z49jmgzr5do2tt8oyrn,3,3,2,55,pd,3,0.0,1.0,12.17,1,1,0.0
bu4s3z49jmgzr5do2tt8oyrn,4,3,2,29,pd,1,0.0,1.0,15.849,1,1,0.0
bu4s3z49jmgzr5do2tt8oyrn,5,3,2,64,pd,1,0.0,1.0,13.918,1,1,0.0
bu4s3z49jmgzr5do2tt8oyrn,6,3,2,35,pd,1,1.0,0.0,11.626,1,1,0.0
bu4s3z49jmgzr5do2tt8oyrn,7,3,2,24,pd,1,0.0,1.0,14.854,1,1,0.0
bu4s3z49jmgzr5do2tt8oyrn,8,3,2,17,pd,3,2.0,0.0,13.654,1,1,0.0
bu4s3z49jmgzr5do2tt8oyrn,9,3,2,58,md,3,2.0,0.0,10.331,1,1,0.0
bu4s3z49jmgzr5do2tt8oyrn,10,3,2,76,pd,1,1.0,0.0,5.858,1,1,0.0
bu4s3z49jmgzr5do2tt8oyrn,11,3,2,72,pd,3,1.0,0.0,1.136,1,1,0.0
bu4s3z49jmgzr5do2tt8oyrn,12,3,2,66,pd,2,2.0,0.0,1.885,1,1,0.0
c0tws9gfdtfu6u9i5qrcddsz,1,3,2,45,pd,1,0.0,1.0,13.09,1,1,0.0
c0tws9gfdtfu6u9i5qrcddsz,2,3,2,30,pd,2,0.0,1.0,13.415,1,1,0.0
c0tws9gfdtfu6u9i5qrcddsz,3,3,2,55,pd,3,0.0,1.0,15.338,1,1,0.0
c0tws9gfdtfu6u9i5qrcddsz,4,3,2,29,pd,1,0.0,1.0,15.485,1,1,0.0
c0tws9gfdtfu6u9i5qrcddsz,5,3,2,64,pd,1,0.0,1.0,17.485,1,1,0.0
c0tws9gfdtfu6u9i5qrcddsz,6,3,2,35,pd,1,0.0,1.0,19.415,1,1,0.0
c0tws9gfdtfu6u9i5qrcddsz,7,3,2,24,pd,1,0.0,1.0,17.336,1,1,0.0
c0tws9gfdtfu6u9i5qrcddsz,8,3,2,17,pd,3,0.0,1.0,28.415,1,1,0.0
c0tws9gfdtfu6u9i5qrcddsz,9,3,2,58,md,3,1.0,0.0,12.135,1,1,0.0
c0tws9gfdtfu6u9i5qrcddsz,10,3,2,76,pd,1,0.0,1.0,29.687,1,1,0.0
c0tws9gfdtfu6u9i5qrcddsz,11,3,2,72,pd,3,0.0,1.0,28.423,1,1,0.0
c0tws9gfdtfu6u9i5qrcddsz,12,3,2,66,pd,2,0.0,1.0,20.179,1,1,0.0
dqc8kf548l4tra17tjdor5im,1,3,1,55,pd,2,0.0,1.0,9.682,0,1,0.0
dqc8kf548l4tra17tjdor5im,2,3,1,66,pd,1,0.0,1.0,7.206,0,1,0.0
dqc8kf548l4tra17tjdor5im,3,3,1,30,pd,1,0.0,1.0,17.735,0,1,0.0
dqc8kf548l4tra17tjdor5im,4,3,1,58,md,2,1.0,0.0,13.416,0,1,0.0
dqc8kf548l4tra17tjdor5im,5,3,1,45,pd,3,3.0,0.0,22.263,0,1,0.0
dqc8kf548l4tra17tjdor5im,6,3,1,29,pd,3,0.0,1.0,17.615,0,1,0.0
dqc8kf548l4tra17tjdor5im,7,3,1,17,pd,2,0.0,1.0,28.335,0,1,0.0
dqc8kf548l4tra17tjdor5im,8,3,1,24,pd,3,3.0,0.0,11.503,0,1,0.0
dqc8kf548l4tra17tjdor5im,9,3,1,72,pd,2,0.0,1.0,19.199,0,1,0.0
dqc8kf548l4tra17tjdor5im,10,3,1,64,pd,3,1.0,0.0,19.263,0,1,0.0
dqc8kf548l4tra17tjdor5im,11,3,1,76,pd,3,1.0,0.0,26.624,0,1,0.0
dqc8kf548l4tra17tjdor5im,12,3,1,35,pd,3,2.0,0.0,29.535,0,1,0.0
dt5mvy4s5ooheslxv4zb4b09,1,3,2,45,pd,1,0.0,1.0,12.921,1,1,0.0
dt5mvy4s5ooheslxv4zb4b09,2,3,2,30,pd,2,0.0,1.0,14.008,1,1,0.0
dt5mvy4s5ooheslxv4zb4b09,3,3,2,55,pd,3,0.0,1.0,8.685,1,1,0.0
dt5mvy4s5ooheslxv4zb4b09,4,3,2,29,pd,1,0.0,1.0,10.45,1,1,0.0
dt5mvy4s5ooheslxv4zb4b09,5,3,2,64,pd,1,0.0,1.0,23.412,1,1,0.0
dt5mvy4s5ooheslxv4zb4b09,6,3,2,35,pd,1,0.0,1.0,7.047,1,1,0.0
dt5mvy4s5ooheslxv4zb4b09,7,3,2,24,pd,1,0.0,1.0,12.432,1,1,0.0
dt5mvy4s5ooheslxv4zb4b09,8,3,2,17,pd,3,0.0,1.0,28.177,1,1,0.0
dt5mvy4s5ooheslxv4zb4b09,9,3,2,58,md,3,0.0,1.0,12.385,1,1,0.0
dt5mvy4s5ooheslxv4zb4b09,10,3,2,76,pd,1,2.0,0.0,9.97,1,1,0.0
dt5mvy4s5ooheslxv4zb4b09,11,3,2,72,pd,3,0.0,1.0,17.45,1,1,0.0
dt5mvy4s5ooheslxv4zb4b09,12,3,2,66,pd,2,0.0,1.0,11.101,1,1,0.0
egnf0ajjtiunovlwgk4mb3ec,1,3,3,45,pd,2,0.0,1.0,11.925,1,1,0.0
egnf0ajjtiunovlwgk4mb3ec,2,3,3,55,pd,1,0.0,1.0,6.075,1,1,0.0
egnf0ajjtiunovlwgk4mb3ec,3,3,3,30,pd,3,0.0,1.0,5.944,1,1,0.0
egnf0ajjtiunovlwgk4mb3ec,4,3,3,58,md,1,0.0,1.0,5.314,1,1,0.0
egnf0ajjtiunovlwgk4mb3ec,5,3,3,17,pd,1,0.0,1.0,13.993,1,1,0.0
egnf0ajjtiunovlwgk4mb3ec,6,3,3,72,pd,1,0.0,1.0,17.714,1,1,0.0
egnf0ajjtiunovlwgk4mb3ec,7,3,3,29,pd,2,0.0,1.0,9.842,1,1,0.0
egnf0ajjtiunovlwgk4mb3ec,8,3,3,76,pd,2,0.0,1.0,14.218,1,1,0.0
egnf0ajjtiunovlwgk4mb3ec,9,3,3,35,pd,2,0.0,1.0,12.498,1,1,0.0
egnf0ajjtiunovlwgk4mb3ec,10,3,3,64,pd,2,2.0,0.0,19.593,1,1,0.0
egnf0ajjtiunovlwgk4mb3ec,11,3,3,66,pd,3,0.0,1.0,16.778,1,1,0.0
egnf0ajjtiunovlwgk4mb3ec,12,3,3,24,pd,2,0.0,1.0,18.258,1,1,0.0
fc4n9bak7f6v4vs1hnfzis64,1,3,3,45,pd,2,2.0,0.0,11.597,1,1,0.0
fc4n9bak7f6v4vs1hnfzis64,2,3,3,55,pd,1,0.0,1.0,8.269,1,1,0.0
fc4n9bak7f6v4vs1hnfzis64,3,3,3,30,pd,3,0.0,1.0,7.39,1,1,0.0
fc4n9bak7f6v4vs1hnfzis64,4,3,3,58,md,1,1.0,0.0,7.187,1,1,0.0
fc4n9bak7f6v4vs1hnfzis64,5,3,3,17,pd,1,0.0,1.0,10.479,1,1,0.0
fc4n9bak7f6v4vs1hnfzis64,6,3,3,72,pd,1,3.0,0.0,12.837,1,1,0.0
fc4n9bak7f6v4vs1hnfzis64,7,3,3,29,pd,2,3.0,0.0,14.024,1,1,0.0
fc4n9bak7f6v4vs1hnfzis64,8,3,3,76,pd,2,0.0,1.0,12.953,1,1,0.0
fc4n9bak7f6v4vs1hnfzis64,9,3,3,35,pd,2,3.0,0.0,14.569,1,1,0.0
fc4n9bak7f6v4vs1hnfzis64,10,3,3,64,pd,2,3.0,0.0,4.725,1,1,0.0
fc4n9bak7f6v4vs1hnfzis64,11,3,3,66,pd,3,1.0,0.0,13.342,1,1,0.0
fc4n9bak7f6v4vs1hnfzis64,12,3,3,24,pd,2,2.0,0.0,13.322,1,1,0.0
fh8fuwctemnety664boysq6l,1,3,2,45,pd,1,0.0,1.0,12.986,1,1,0.0
fh8fuwctemnety664boysq6l,2,3,2,30,pd,2,0.0,1.0,16.998,1,1,0.0
fh8fuwctemnety664boysq6l,3,3,2,55,pd,3,0.0,1.0,7.566,1,1,0.0
fh8fuwctemnety664boysq6l,4,3,2,29,pd,1,3.0,0.0,10.951,1,1,0.0
fh8fuwctemnety664boysq6l,5,3,2,64,pd,1,2.0,0.0,12.958,1,1,0.0
fh8fuwctemnety664boysq6l,6,3,2,35,pd,1,0.0,1.0,12.614,1,1,0.0
fh8fuwctemnety664boysq6l,7,3,2,24,pd,1,0.0,1.0,8.117,1,1,0.0
fh8fuwctemnety664boysq6l,8,3,2,17,pd,3,1.0,0.0,16.027,1,1,0.0
fh8fuwctemnety664boysq6l,9,3,2,58,md,3,0.0,1.0,17.021,1,1,0.0
fh8fuwctemnety664boysq6l,10,3,2,76,pd,1,0.0,1.0,14.436,1,1,0.0
fh8fuwctemnety664boysq6l,11,3,2,72,pd,3,2.0,0.0,21.105,1,1,0.0
fh8fuwctemnety664boysq6l,12,3,2,66,pd,2,1.0,0.0,19.274,1,1,0.0
fp80a7dmu67cidx6sb7ongc1,1,3,2,45,pd,1,0.0,1.0,5.764,1,1,0.0
fp80a7dmu67cidx6sb7ongc1,2,3,2,30,pd,2,3.0,0.0,15.259,1,1,0.0
fp80a7dmu67cidx6sb7ongc1,3,3,2,55,pd,3,0.0,1.0,9.57,1,1,0.0
fp80a7dmu67cidx6sb7ongc1,4,3,2,29,pd,1,0.0,1.0,16.02,1,1,0.0
fp80a7dmu67cidx6sb7ongc1,5,3,2,64,pd,1,0.0,1.0,25.015,1,1,0.0
fp80a7dmu67cidx6sb7ongc1,6,3,2,35,pd,1,0.0,1.0,19.78,1,1,0.0
fp80a7dmu67cidx6sb7ongc1,7,3,2,24,pd,1,0.0,1.0,7.164,1,1,0.0
fp80a7dmu67cidx6sb7ongc1,8,3,2,17,pd,3,0.0,1.0,12.08,1,1,0.0
fp80a7dmu67cidx6sb7ongc1,9,3,2,58,md,3,0.0,1.0,8.103,1,1,0.0
fp80a7dmu67cidx6sb7ongc1,10,3,2,76,pd,1,0.0,1.0,13.413,1,1,0.0
fp80a7dmu67cidx6sb7ongc1,11,3,2,72,pd,3,0.0,1.0,18.918,1,1,0.0
fp80a7dmu67cidx6sb7ongc1,12,3,2,66,pd,2,0.0,1.0,20.532,1,1,0.0
gmyxexjsg4bsurgjr93e1oj3,1,3,3,45,pd,2,2.0,0.0,16.838,1,1,0.0
gmyxexjsg4bsurgjr93e1oj3,2,3,3,55,pd,1,0.0,1.0,14.954,1,1,0.0
gmyxexjsg4bsurgjr93e1oj3,3,3,3,30,pd,3,0.0,1.0,9.803,1,1,0.0
gmyxexjsg4bsurgjr93e1oj3,4,3,3,58,md,1,0.0,1.0,16.504,1,1,0.0
gmyxexjsg4bsurgjr93e1oj3,5,3,3,17,pd,1,2.0,0.0,18.914,1,1,0.0
gmyxexjsg4bsurgjr93e1oj3,6,3,3,72,pd,1,2.0,0.0,25.606,1,1,0.0
gmyxexjsg4bsurgjr93e1oj3,7,3,3,29,pd,2,0.0,1.0,16.801,1,1,0.0
gmyxexjsg4bsurgjr93e1oj3,8,3,3,76,pd,2,1.0,0.0,24.185,1,1,0.0
gmyxexjsg4bsurgjr93e1oj3,9,3,3,35,pd,2,0.0,1.0,14.381,1,1,0.0
gmyxexjsg4bsurgjr93e1oj3,10,3,3,64,pd,2,0.0,1.0,3.694,1,1,0.0
gmyxexjsg4bsurgjr93e1oj3,11,3,3,66,pd,3,2.0,0.0,0.765,1,1,0.0
gmyxexjsg4bsurgjr93e1oj3,12,3,3,24,pd,2,2.0,0.0,1.216,1,1,0.0
gqhhkjgkdyhmkyt0qntzi50k,1,3,2,45,pd,1,0.0,1.0,11.795,1,1,0.0
gqhhkjgkdyhmkyt0qntzi50k,2,3,2,30,pd,2,0.0,1.0,13.643,1,1,0.0
gqhhkjgkdyhmkyt0qntzi50k,3,3,2,55,pd,3,0.0,1.0,13.983,1,1,0.0
gqhhkjgkdyhmkyt0qntzi50k,4,3,2,29,pd,1,0.0,1.0,11.617,1,1,0.0
gqhhkjgkdyhmkyt0qntzi50k,5,3,2,64,pd,1,0.0,1.0,11.981,1,1,0.0
gqhhkjgkdyhmkyt0qntzi50k,6,3,2,35,pd,1,0.0,1.0,12.34,1,1,0.0
gqhhkjgkdyhmkyt0qntzi50k,7,3,2,24,pd,1,0.0,1.0,10.613,1,1,0.0
gqhhkjgkdyhmkyt0qntzi50k,8,3,2,17,pd,3,1.0,0.0,17.914,1,1,0.0
gqhhkjgkdyhmkyt0qntzi50k,9,3,2,58,md,3,0.0,1.0,9.354,1,1,0.0
gqhhkjgkdyhmkyt0qntzi50k,10,3,2,76,pd,1,1.0,0.0,22.445,1,1,0.0
gqhhkjgkdyhmkyt0qntzi50k,11,3,2,72,pd,3,0.0,1.0,5.257,1,1,0.0
gqhhkjgkdyhmkyt0qntzi50k,12,3,2,66,pd,2,0.0,1.0,27.197,1,1,0.0
h99fpjuxskud4vzslm7gmd5i,1,3,3,45,pd,2,0.0,1.0,13.473,1,1,0.0
h99fpjuxskud4vzslm7gmd5i,2,3,3,55,pd,1,0.0,1.0,10.763,1,1,0.0
h99fpjuxskud4vzslm7gmd5i,3,3,3,30,pd,3,0.0,1.0,13.367,1,1,0.0
h99fpjuxskud4vzslm7gmd5i,4,3,3,58,md,1,0.0,1.0,6.806,1,1,0.0
h99fpjuxskud4vzslm7gmd5i,5,3,3,17,pd,1,0.0,1.0,16.49,1,1,0.0
h99fpjuxskud4vzslm7gmd5i,6,3,3,72,pd,1,0.0,1.0,6.462,1,1,0.0
h99fpjuxskud4vzslm7gmd5i,7,3,3,29,pd,2,0.0,1.0,7.718,1,1,0.0
h99fpjuxskud4vzslm7gmd5i,8,3,3,76,pd,2,0.0,1.0,5.826,1,1,0.0
h99fpjuxskud4vzslm7gmd5i,9,3,3,35,pd,2,0.0,1.0,17.523,1,1,0.0
h99fpjuxskud4vzslm7gmd5i,10,3,3,64,pd,2,1.0,0.0,12.606,1,1,0.0
h99fpjuxskud4vzslm7gmd5i,11,3,3,66,pd,3,0.0,1.0,13.056,1,1,0.0
h99fpjuxskud4vzslm7gmd5i,12,3,3,24,pd,2,2.0,0.0,7.371,1,1,0.0
hzbjblm6bm66f3dc3j5m9aar,1,3,3,45,pd,2,0.0,1.0,12.929,1,1,0.0
hzbjblm6bm66f3dc3j5m9aar,2,3,3,55,pd,1,0.0,1.0,5.604,1,1,0.0
hzbjblm6bm66f3dc3j5m9aar,3,3,3,30,pd,3,0.0,1.0,8.745,1,1,0.0
hzbjblm6bm66f3dc3j5m9aar,4,3,3,58,md,1,0.0,1.0,10.542,1,1,0.0
hzbjblm6bm66f3dc3j5m9aar,5,3,3,17,pd,1,1.0,0.0,21.153,1,1,2.0
hzbjblm6bm66f3dc3j5m9aar,6,3,3,72,pd,1,0.0,1.0,15.964,1,1,0.0
hzbjblm6bm66f3dc3j5m9aar,7,3,3,29,pd,2,0.0,1.0,7.954,1,1,0.0
hzbjblm6bm66f3dc3j5m9aar,8,3,3,76,pd,2,0.0,1.0,14.297,1,1,0.0
hzbjblm6bm66f3dc3j5m9aar,9,3,3,35,pd,2,0.0,1.0,19.896,1,1,0.0
hzbjblm6bm66f3dc3j5m9aar,10,3,3,64,pd,2,0.0,1.0,15.979,1,1,0.0
hzbjblm6bm66f3dc3j5m9aar,11,3,3,66,pd,3,0.0,1.0,12.937,1,1,0.0
hzbjblm6bm66f3dc3j5m9aar,12,3,3,24,pd,2,0.0,1.0,14.445,1,1,0.0
id3di6mf3qw1dvig1dm2sk9t,1,3,3,45,pd,2,,,,1,1,0.0
id3di6mf3qw1dvig1dm2sk9t,2,3,3,55,pd,1,,,,1,1,0.0
id3di6mf3qw1dvig1dm2sk9t,3,3,3,30,pd,3,3.0,0.0,16.515,1,1,0.0
id3di6mf3qw1dvig1dm2sk9t,4,3,3,58,md,1,3.0,0.0,10.189,1,1,0.0
id3di6mf3qw1dvig1dm2sk9t,5,3,3,17,pd,1,0.0,1.0,15.638,1,1,0.0
id3di6mf3qw1dvig1dm2sk9t,6,3,3,72,pd,1,,,,1,1,0.0
id3di6mf3qw1dvig1dm2sk9t,7,3,3,29,pd,2,0.0,1.0,1.515,1,1,0.0
id3di6mf3qw1dvig1dm2sk9t,8,3,3,76,pd,2,2.0,0.0,10.228,1,1,0.0
id3di6mf3qw1dvig1dm2sk9t,9,3,3,35,pd,2,3.0,0.0,11.181,1,1,0.0
id3di6mf3qw1dvig1dm2sk9t,10,3,3,64,pd,2,1.0,0.0,21.447,1,1,0.0
id3di6mf3qw1dvig1dm2sk9t,11,3,3,66,pd,3,2.0,0.0,18.422,1,1,0.0
id3di6mf3qw1dvig1dm2sk9t,12,3,3,24,pd,2,0.0,1.0,10.173,1,1,0.0
ik2p3bz9hemu7m01piqlf3o3,1,3,3,45,pd,2,0.0,1.0,14.412,1,1,0.0
ik2p3bz9hemu7m01piqlf3o3,2,3,3,55,pd,1,1.0,0.0,10.247,1,1,0.0
ik2p3bz9hemu7m01piqlf3o3,3,3,3,30,pd,3,0.0,1.0,7.608,1,1,0.0
ik2p3bz9hemu7m01piqlf3o3,4,3,3,58,md,1,2.0,0.0,13.318,1,1,0.0
ik2p3bz9hemu7m01piqlf3o3,5,3,3,17,pd,1,1.0,0.0,7.544,1,1,0.0
ik2p3bz9hemu7m01piqlf3o3,6,3,3,72,pd,1,0.0,1.0,13.157,1,1,0.0
ik2p3bz9hemu7m01piqlf3o3,7,3,3,29,pd,2,0.0,1.0,12.794,1,1,0.0
ik2p3bz9hemu7m01piqlf3o3,8,3,3,76,pd,2,2.0,0.0,11.986,1,1,0.0
ik2p3bz9hemu7m01piqlf3o3,9,3,3,35,pd,2,0.0,1.0,2.385,1,1,0.0
ik2p3bz9hemu7m01piqlf3o3,10,3,3,64,pd,2,0.0,1.0,1.201,1,1,0.0
ik2p3bz9hemu7m01piqlf3o3,11,3,3,66,pd,3,1.0,0.0,1.139,1,1,0.0
ik2p3bz9hemu7m01piqlf3o3,12,3,3,24,pd,2,1.0,0.0,1.84,1,1,0.0
jgtgqyg5g1f9z98a3kl89b1m,1,3,2,45,pd,1,0.0,1.0,11.13,1,1,0.0
jgtgqyg5g1f9z98a3kl89b1m,2,3,2,30,pd,2,0.0,1.0,7.975,1,1,0.0
jgtgqyg5g1f9z98a3kl89b1m,3,3,2,55,pd,3,1.0,0.0,16.564,1,1,0.0
jgtgqyg5g1f9z98a3kl89b1m,4,3,2,29,pd,1,0.0,1.0,6.128,1,1,0.0
jgtgqyg5g1f9z98a3kl89b1m,5,3,2,64,pd,1,0.0,1.0,17.152,1,1,0.0
jgtgqyg5g1f9z98a3kl89b1m,6,3,2,35,pd,1,0.0,1.0,8.422,1,1,0.0
jgtgqyg5g1f9z98a3kl89b1m,7,3,2,24,pd,1,0.0,1.0,7.812,1,1,0.0
jgtgqyg5g1f9z98a3kl89b1m,8,3,2,17,pd,3,0.0,1.0,19.984,1,1,0.0
jgtgqyg5g1f9z98a3kl89b1m,9,3,2,58,md,3,0.0,1.0,12.595,1,1,0.0
jgtgqyg5g1f9z98a3kl89b1m,10,3,2,76,pd,1,0.0,1.0,28.366,1,1,0.0
jgtgqyg5g1f9z98a3kl89b1m,11,3,2,72,pd,3,0.0,1.0,9.612,1,1,0.0
jgtgqyg5g1f9z98a3kl89b1m,12,3,2,66,pd,2,0.0,1.0,14.86,1,1,0.0
k3cjeyoi5a4i1n77qy4j2rpj,1,3,2,45,pd,1,2.0,0.0,15.336,1,1,0.0
k3cjeyoi5a4i1n77qy4j2rpj,2,3,2,30,pd,2,2.0,0.0,15.678,1,1,0.0
k3cjeyoi5a4i1n77qy4j2rpj,3,3,2,55,pd,3,0.0,1.0,8.402,1,1,0.0
k3cjeyoi5a4i1n77qy4j2rpj,4,3,2,29,pd,1,0.0,1.0,5.652,1,1,0.0
k3cjeyoi5a4i1n77qy4j2rpj,5,3,2,64,pd,1,0.0,1.0,8.347,1,1,0.0
k3cjeyoi5a4i1n77qy4j2rpj,6,3,2,35,pd,1,2.0,0.0,6.816,1,1,0.0
k3cjeyoi5a4i1n77qy4j2rpj,7,3,2,24,pd,1,0.0,1.0,7.064,1,1,0.0
k3cjeyoi5a4i1n77qy4j2rpj,8,3,2,17,pd,3,0.0,1.0,17.621,1,1,0.0
k3cjeyoi5a4i1n77qy4j2rpj,9,3,2,58,md,3,0.0,1.0,11.569,1,1,0.0
k3cjeyoi5a4i1n77qy4j2rpj,10,3,2,76,pd,1,0.0,1.0,11.695,1,1,0.0
k3cjeyoi5a4i1n77qy4j2rpj,11,3,2,72,pd,3,2.0,0.0,12.701,1,1,0.0
k3cjeyoi5a4i1n77qy4j2rpj,12,3,2,66,pd,2,0.0,1.0,10.646,1,1,0.0
k8pxuud4y1w41ytj7lpvc3lc,1,3,3,45,pd,2,2.0,0.0,12.013,1,1,0.0
k8pxuud4y1w41ytj7lpvc3lc,2,3,3,55,pd,1,0.0,1.0,6.977,1,1,0.0
k8pxuud4y1w41ytj7lpvc3lc,3,3,3,30,pd,3,3.0,0.0,10.446,1,1,0.0
k8pxuud4y1w41ytj7lpvc3lc,4,3,3,58,md,1,0.0,1.0,15.114,1,1,0.0
k8pxuud4y1w41ytj7lpvc3lc,5,3,3,17,pd,1,0.0,1.0,16.901,1,1,0.0
k8pxuud4y1w41ytj7lpvc3lc,6,3,3,72,pd,1,2.0,0.0,18.291,1,1,0.0
k8pxuud4y1w41ytj7lpvc3lc,7,3,3,29,pd,2,3.0,0.0,25.649,1,1,0.0
k8pxuud4y1w41ytj7lpvc3lc,8,3,3,76,pd,2,2.0,0.0,15.386,1,1,0.0
k8pxuud4y1w41ytj7lpvc3lc,9,3,3,35,pd,2,0.0,1.0,17.237,1,1,0.0
k8pxuud4y1w41ytj7lpvc3lc,10,3,3,64,pd,2,3.0,0.0,28.496,1,1,0.0
k8pxuud4y1w41ytj7lpvc3lc,11,3,3,66,pd,3,1.0,0.0,29.186,1,1,0.0
k8pxuud4y1w41ytj7lpvc3lc,12,3,3,24,pd,2,0.0,1.0,23.169,1,1,0.0
ka14cnda7tfm6db0ezj0aedx,1,3,1,55,pd,2,,,,1,1,0.0
ka14cnda7tfm6db0ezj0aedx,2,3,1,66,pd,1,0.0,1.0,10.243,1,1,0.0
ka14cnda7tfm6db0ezj0aedx,3,3,1,30,pd,1,0.0,1.0,23.469,1,1,0.0
ka14cnda7tfm6db0ezj0aedx,4,3,1,58,md,2,1.0,0.0,25.508,1,1,0.0
ka14cnda7tfm6db0ezj0aedx,5,3,1,45,pd,3,1.0,0.0,5.418,1,1,0.0
ka14cnda7tfm6db0ezj0aedx,6,3,1,29,pd,3,0.0,1.0,14.501,1,1,0.0
ka14cnda7tfm6db0ezj0aedx,7,3,1,17,pd,2,1.0,0.0,24.346,1,1,0.0
ka14cnda7tfm6db0ezj0aedx,8,3,1,24,pd,3,2.0,0.0,27.83,1,1,0.0
ka14cnda7tfm6db0ezj0aedx,9,3,1,72,pd,2,2.0,0.0,20.215,1,1,0.0
ka14cnda7tfm6db0ezj0aedx,10,3,1,64,pd,3,1.0,0.0,26.844,1,1,0.0
ka14cnda7tfm6db0ezj0aedx,11,3,1,76,pd,3,3.0,0.0,2.698,1,1,0.0
ka14cnda7tfm6db0ezj0aedx,12,3,1,35,pd,3,2.0,0.0,3.61,1,1,0.0
kgcy8fc8chqi2vfruj3ryb9z,1,3,1,55,pd,2,0.0,1.0,9.251,1,1,0.0
kgcy8fc8chqi2vfruj3ryb9z,2,3,1,66,pd,1,0.0,1.0,12.902,1,1,0.0
kgcy8fc8chqi2vfruj3ryb9z,3,3,1,30,pd,1,0.0,1.0,9.123,1,1,0.0
kgcy8fc8chqi2vfruj3ryb9z,4,3,1,58,md,2,0.0,1.0,17.328,1,1,0.0
kgcy8fc8chqi2vfruj3ryb9z,5,3,1,45,pd,3,1.0,0.0,9.955,1,1,0.0
kgcy8fc8chqi2vfruj3ryb9z,6,3,1,29,pd,3,0.0,1.0,14.525,1,1,0.0
kgcy8fc8chqi2vfruj3ryb9z,7,3,1,17,pd,2,0.0,1.0,28.039,1,1,0.0
kgcy8fc8chqi2vfruj3ryb9z,8,3,1,24,pd,3,3.0,0.0,19.467,1,1,0.0
kgcy8fc8chqi2vfruj3ryb9z,9,3,1,72,pd,2,0.0,1.0,17.238,1,1,0.0
kgcy8fc8chqi2vfruj3ryb9z,10,3,1,64,pd,3,1.0,0.0,13.662,1,1,0.0
kgcy8fc8chqi2vfruj3ryb9z,11,3,1,76,pd,3,1.0,0.0,22.017,1,1,0.0
kgcy8fc8chqi2vfruj3ryb9z,12,3,1,35,pd,3,0.0,1.0,24.496,1,1,0.0
kkrrcz9oztj8tfvo6cf35n2y,1,3,2,45,pd,1,2.0,0.0,8.567,1,1,0.0
kkrrcz9oztj8tfvo6cf35n2y,2,3,2,30,pd,2,0.0,1.0,9.414,1,1,0.0
kkrrcz9oztj8tfvo6cf35n2y,3,3,2,55,pd,3,0.0,1.0,6.931,1,1,0.0
kkrrcz9oztj8tfvo6cf35n2y,4,3,2,29,pd,1,0.0,1.0,6.852,1,1,0.0
kkrrcz9oztj8tfvo6cf35n2y,5,3,2,64,pd,1,0.0,1.0,10.024,1,1,0.0
kkrrcz9oztj8tfvo6cf35n2y,6,3,2,35,pd,1,0.0,1.0,10.798,1,1,0.0
kkrrcz9oztj8tfvo6cf35n2y,7,3,2,24,pd,1,0.0,1.0,7.553,1,1,0.0
kkrrcz9oztj8tfvo6cf35n2y,8,3,2,17,pd,3,0.0,1.0,10.308,1,1,0.0
kkrrcz9oztj8tfvo6cf35n2y,9,3,2,58,md,3,0.0,1.0,9.507,1,1,0.0
kkrrcz9oztj8tfvo6cf35n2y,10,3,2,76,pd,1,0.0,1.0,9.02,1,1,0.0
kkrrcz9oztj8tfvo6cf35n2y,11,3,2,72,pd,3,0.0,1.0,6.282,1,1,0.0
kkrrcz9oztj8tfvo6cf35n2y,12,3,2,66,pd,2,3.0,0.0,10.995,1,1,0.0
kx834pa56n2j1sij32zu1qii,1,3,3,45,pd,2,0.0,1.0,9.785,1,1,0.0
kx834pa56n2j1sij32zu1qii,2,3,3,55,pd,1,0.0,1.0,17.929,1,1,0.0
kx834pa56n2j1sij32zu1qii,3,3,3,30,pd,3,0.0,1.0,24.33,1,1,2.0
kx834pa56n2j1sij32zu1qii,4,3,3,58,md,1,1.0,0.0,15.743,1,1,0.0
kx834pa56n2j1sij32zu1qii,5,3,3,17,pd,1,0.0,1.0,13.56,1,1,0.0
kx834pa56n2j1sij32zu1qii,6,3,3,72,pd,1,0.0,1.0,9.905,1,1,0.0
kx834pa56n2j1sij32zu1qii,7,3,3,29,pd,2,0.0,1.0,27.572,1,1,0.0
kx834pa56n2j1sij32zu1qii,8,3,3,76,pd,2,0.0,1.0,20.937,1,1,0.0
kx834pa56n2j1sij32zu1qii,9,3,3,35,pd,2,0.0,1.0,29.408,1,1,0.0
kx834pa56n2j1sij32zu1qii,10,3,3,64,pd,2,2.0,0.0,29.387,1,1,0.0
kx834pa56n2j1sij32zu1qii,11,3,3,66,pd,3,0.0,1.0,26.236,1,1,0.0
kx834pa56n2j1sij32zu1qii,12,3,3,24,pd,2,2.0,0.0,17.08,1,1,0.0
l6m44ya9hf1jsm05qwyu8n1s,1,3,1,55,pd,2,0.0,1.0,4.428,1,1,0.0
l6m44ya9hf1jsm05qwyu8n1s,2,3,1,66,pd,1,0.0,1.0,4.652,1,1,0.0
l6m44ya9hf1jsm05qwyu8n1s,3,3,1,30,pd,1,0.0,1.0,6.58,1,1,0.0
l6m44ya9hf1jsm05qwyu8n1s,4,3,1,58,md,2,1.0,0.0,8.772,1,1,0.0
l6m44ya9hf1jsm05qwyu8n1s,5,3,1,45,pd,3,0.0,1.0,5.66,1,1,0.0
l6m44ya9hf1jsm05qwyu8n1s,6,3,1,29,pd,3,3.0,0.0,9.972,1,1,0.0
l6m44ya9hf1jsm05qwyu8n1s,7,3,1,17,pd,2,1.0,0.0,17.051,1,1,0.0
l6m44ya9hf1jsm05qwyu8n1s,8,3,1,24,pd,3,0.0,1.0,13.965,1,1,0.0
l6m44ya9hf1jsm05qwyu8n1s,9,3,1,72,pd,2,0.0,1.0,10.92,1,1,0.0
l6m44ya9hf1jsm05qwyu8n1s,10,3,1,64,pd,3,0.0,1.0,12.901,1,1,0.0
l6m44ya9hf1jsm05qwyu8n1s,11,3,1,76,pd,3,2.0,0.0,13.645,1,1,0.0
l6m44ya9hf1jsm05qwyu8n1s,12,3,1,35,pd,3,1.0,0.0,14.668,1,1,0.0
lcumyg3r2l43ji3yzajenmkx,1,3,3,45,pd,2,0.0,1.0,14.389,1,1,0.0
lcumyg3r2l43ji3yzajenmkx,2,3,3,55,pd,1,0.0,1.0,7.693,1,1,0.0
lcumyg3r2l43ji3yzajenmkx,3,3,3,30,pd,3,0.0,1.0,19.608,1,1,0.0
lcumyg3r2l43ji3yzajenmkx,4,3,3,58,md,1,0.0,1.0,8.285,1,1,0.0
lcumyg3r2l43ji3yzajenmkx,5,3,3,17,pd,1,2.0,0.0,25.281,1,1,0.0
lcumyg3r2l43ji3yzajenmkx,6,3,3,72,pd,1,1.0,0.0,20.56,1,1,0.0
lcumyg3r2l43ji3yzajenmkx,7,3,3,29,pd,2,0.0,1.0,11.972,1,1,0.0
lcumyg3r2l43ji3yzajenmkx,8,3,3,76,pd,2,0.0,1.0,7.268,1,1,0.0
lcumyg3r2l43ji3yzajenmkx,9,3,3,35,pd,2,0.0,1.0,22.109,1,1,0.0
lcumyg3r2l43ji3yzajenmkx,10,3,3,64,pd,2,0.0,1.0,13.383,1,1,0.0
lcumyg3r2l43ji3yzajenmkx,11,3,3,66,pd,3,0.0,1.0,24.557,1,1,0.0
lcumyg3r2l43ji3yzajenmkx,12,3,3,24,pd,2,0.0,1.0,19.095,1,1,0.0
lgzvkqrqs46d2jeqth187kt6,1,3,1,55,pd,2,0.0,1.0,25.676,1,1,0.0
lgzvkqrqs46d2jeqth187kt6,2,3,1,66,pd,1,0.0,1.0,9.275,1,1,0.0
lgzvkqrqs46d2jeqth187kt6,3,3,1,30,pd,1,0.0,1.0,13.415,1,1,0.0
lgzvkqrqs46d2jeqth187kt6,4,3,1,58,md,2,0.0,1.0,19.439,1,1,0.0
lgzvkqrqs46d2jeqth187kt6,5,3,1,45,pd,3,,,,1,1,0.0
lgzvkqrqs46d2jeqth187kt6,6,3,1,29,pd,3,0.0,1.0,19.789,1,1,0.0
lgzvkqrqs46d2jeqth187kt6,7,3,1,17,pd,2,0.0,1.0,13.562,1,1,0.0
lgzvkqrqs46d2jeqth187kt6,8,3,1,24,pd,3,0.0,1.0,16.237,1,1,0.0
lgzvkqrqs46d2jeqth187kt6,9,3,1,72,pd,2,2.0,0.0,21.989,1,1,0.0
lgzvkqrqs46d2jeqth187kt6,10,3,1,64,pd,3,0.0,1.0,14.871,1,1,0.0
lgzvkqrqs46d2jeqth187kt6,11,3,1,76,pd,3,3.0,0.0,28.152,1,1,0.0
lgzvkqrqs46d2jeqth187kt6,12,3,1,35,pd,3,0.0,1.0,20.261,1,1,0.0
m8ezoj16iut6jnfcv0cloyrs,1,3,1,55,pd,2,0.0,1.0,11.905,1,1,0.0
m8ezoj16iut6jnfcv0cloyrs,2,3,1,66,pd,1,0.0,1.0,4.784,1,1,0.0
m8ezoj16iut6jnfcv0cloyrs,3,3,1,30,pd,1,0.0,1.0,8.905,1,1,0.0
m8ezoj16iut6jnfcv0cloyrs,4,3,1,58,md,2,1.0,0.0,8.173,1,1,0.0
m8ezoj16iut6jnfcv0cloyrs,5,3,1,45,pd,3,1.0,0.0,8.891,1,1,0.0
m8ezoj16iut6jnfcv0cloyrs,6,3,1,29,pd,3,0.0,1.0,10.677,1,1,0.0
m8ezoj16iut6jnfcv0cloyrs,7,3,1,17,pd,2,1.0,0.0,13.048,1,1,0.0
m8ezoj16iut6jnfcv0cloyrs,8,3,1,24,pd,3,3.0,0.0,13.683,1,1,0.0
m8ezoj16iut6jnfcv0cloyrs,9,3,1,72,pd,2,0.0,1.0,13.433,1,1,0.0
m8ezoj16iut6jnfcv0cloyrs,10,3,1,64,pd,3,0.0,1.0,9.809,1,1,0.0
m8ezoj16iut6jnfcv0cloyrs,11,3,1,76,pd,3,1.0,0.0,13.651,1,1,0.0
m8ezoj16iut6jnfcv0cloyrs,12,3,1,35,pd,3,3.0,0.0,21.939,1,1,0.0
mce8ffaz0jhibwi2l8ftnsk7,1,3,3,45,pd,2,0.0,1.0,16.874,1,1,0.0
mce8ffaz0jhibwi2l8ftnsk7,2,3,3,55,pd,1,0.0,1.0,28.584,1,1,0.0
mce8ffaz0jhibwi2l8ftnsk7,3,3,3,30,pd,3,0.0,1.0,25.498,1,1,0.0
mce8ffaz0jhibwi2l8ftnsk7,4,3,3,58,md,1,1.0,0.0,11.192,1,1,0.0
mce8ffaz0jhibwi2l8ftnsk7,5,3,3,17,pd,1,0.0,1.0,15.024,1,1,0.0
mce8ffaz0jhibwi2l8ftnsk7,6,3,3,72,pd,1,0.0,1.0,11.245,1,1,0.0
mce8ffaz0jhibwi2l8ftnsk7,7,3,3,29,pd,2,0.0,1.0,16.072,1,1,0.0
mce8ffaz0jhibwi2l8ftnsk7,8,3,3,76,pd,2,1.0,0.0,25.446,1,1,0.0
mce8ffaz0jhibwi2l8ftnsk7,9,3,3,35,pd,2,0.0,1.0,12.448,1,1,0.0
mce8ffaz0jhibwi2l8ftnsk7,10,3,3,64,pd,2,0.0,1.0,17.053,1,1,0.0
mce8ffaz0jhibwi2l8ftnsk7,11,3,3,66,pd,3,0.0,1.0,15.041,1,1,0.0
mce8ffaz0jhibwi2l8ftnsk7,12,3,3,24,pd,2,0.0,1.0,14.917,1,1,0.0
mfaomhbw04yx9mipttpsveyn,1,3,1,55,pd,2,2.0,0.0,16.849,1,1,0.0
mfaomhbw04yx9mipttpsveyn,2,3,1,66,pd,1,0.0,1.0,14.372,1,1,0.0
mfaomhbw04yx9mipttpsveyn,3,3,1,30,pd,1,3.0,0.0,13.319,1,1,0.0
mfaomhbw04yx9mipttpsveyn,4,3,1,58,md,2,1.0,0.0,13.375,1,1,0.0
mfaomhbw04yx9mipttpsveyn,5,3,1,45,pd,3,0.0,1.0,15.813,1,1,0.0
mfaomhbw04yx9mipttpsveyn,6,3,1,29,pd,3,0.0,1.0,20.849,1,1,0.0
mfaomhbw04yx9mipttpsveyn,7,3,1,17,pd,2,0.0,1.0,26.336,1,1,0.0
mfaomhbw04yx9mipttpsveyn,8,3,1,24,pd,3,0.0,1.0,22.392,1,1,0.0
mfaomhbw04yx9mipttpsveyn,9,3,1,72,pd,2,0.0,1.0,20.761,1,1,0.0
mfaomhbw04yx9mipttpsveyn,10,3,1,64,pd,3,1.0,0.0,6.566,1,1,0.0
mfaomhbw04yx9mipttpsveyn,11,3,1,76,pd,3,0.0,1.0,16.808,1,1,0.0
mfaomhbw04yx9mipttpsveyn,12,3,1,35,pd,3,1.0,0.0,23.786,1,1,0.0
mnqxftxd0fdijb3g3d25k8o4,1,3,2,45,pd,1,0.0,1.0,21.961,1,1,0.0
mnqxftxd0fdijb3g3d25k8o4,2,3,2,30,pd,2,,,,1,1,0.0
mnqxftxd0fdijb3g3d25k8o4,3,3,2,55,pd,3,3.0,0.0,18.535,1,1,0.0
mnqxftxd0fdijb3g3d25k8o4,4,3,2,29,pd,1,0.0,1.0,21.154,1,1,0.0
mnqxftxd0fdijb3g3d25k8o4,5,3,2,64,pd,1,0.0,1.0,20.912,1,1,0.0
mnqxftxd0fdijb3g3d25k8o4,6,3,2,35,pd,1,1.0,0.0,17.808,1,1,0.0
mnqxftxd0fdijb3g3d25k8o4,7,3,2,24,pd,1,0.0,1.0,17.255,1,1,0.0
mnqxftxd0fdijb3g3d25k8o4,8,3,2,17,pd,3,0.0,1.0,14.971,1,1,0.0
mnqxftxd0fdijb3g3d25k8o4,9,3,2,58,md,3,1.0,0.0,13.894,1,1,0.0
mnqxftxd0fdijb3g3d25k8o4,10,3,2,76,pd,1,2.0,0.0,15.058,1,1,0.0
mnqxftxd0fdijb3g3d25k8o4,11,3,2,72,pd,3,2.0,0.0,18.147,1,1,0.0
mnqxftxd0fdijb3g3d25k8o4,12,3,2,66,pd,2,1.0,0.0,18.737,1,1,0.0
n0tjhn39vpoezs9wjk0gntyf,1,3,1,55,pd,2,0.0,1.0,16.197,1,1,0.0
n0tjhn39vpoezs9wjk0gntyf,2,3,1,66,pd,1,0.0,1.0,17.947,1,1,0.0
n0tjhn39vpoezs9wjk0gntyf,3,3,1,30,pd,1,0.0,1.0,13.712,1,1,0.0
n0tjhn39vpoezs9wjk0gntyf,4,3,1,58,md,2,1.0,0.0,14.133,1,1,0.0
n0tjhn39vpoezs9wjk0gntyf,5,3,1,45,pd,3,0.0,1.0,21.689,1,1,0.0
n0tjhn39vpoezs9wjk0gntyf,6,3,1,29,pd,3,3.0,0.0,24.095,1,1,0.0
n0tjhn39vpoezs9wjk0gntyf,7,3,1,17,pd,2,0.0,1.0,30.576,1,1,0.0
n0tjhn39vpoezs9wjk0gntyf,8,3,1,24,pd,3,3.0,0.0,9.478,1,1,0.0
n0tjhn39vpoezs9wjk0gntyf,9,3,1,72,pd,2,0.0,1.0,15.581,1,1,0.0
n0tjhn39vpoezs9wjk0gntyf,10,3,1,64,pd,3,1.0,0.0,22.91,1,1,0.0
n0tjhn39vpoezs9wjk0gntyf,11,3,1,76,pd,3,0.0,1.0,24.534,1,1,0.0
n0tjhn39vpoezs9wjk0gntyf,12,3,1,35,pd,3,0.0,1.0,26.648,1,1,0.0
n6eyi6k1oosxo133kugr9f9d,1,3,1,55,pd,2,0.0,1.0,27.007,1,1,0.0
n6eyi6k1oosxo133kugr9f9d,2,3,1,66,pd,1,0.0,1.0,7.59,1,1,0.0
n6eyi6k1oosxo133kugr9f9d,3,3,1,30,pd,1,0.0,1.0,12.009,1,1,0.0
n6eyi6k1oosxo133kugr9f9d,4,3,1,58,md,2,0.0,1.0,25.659,1,1,0.0
n6eyi6k1oosxo133kugr9f9d,5,3,1,45,pd,3,0.0,1.0,17.359,1,1,0.0
n6eyi6k1oosxo133kugr9f9d,6,3,1,29,pd,3,0.0,1.0,18.959,1,1,0.0
n6eyi6k1oosxo133kugr9f9d,7,3,1,17,pd,2,0.0,1.0,23.283,1,1,0.0
n6eyi6k1oosxo133kugr9f9d,8,3,1,24,pd,3,1.0,0.0,18.863,1,1,0.0
n6eyi6k1oosxo133kugr9f9d,9,3,1,72,pd,2,,,,1,1,0.0
n6eyi6k1oosxo133kugr9f9d,10,3,1,64,pd,3,2.0,0.0,7.122,1,1,0.0
n6eyi6k1oosxo133kugr9f9d,11,3,1,76,pd,3,0.0,1.0,7.519,1,1,0.0
n6eyi6k1oosxo133kugr9f9d,12,3,1,35,pd,3,2.0,0.0,2.68,1,1,0.0
ni3u1j0yq0w15u4va0pbif6q,1,3,2,45,pd,1,2.0,0.0,24.236,1,1,0.0
ni3u1j0yq0w15u4va0pbif6q,2,3,2,30,pd,2,2.0,0.0,29.276,1,1,0.0
ni3u1j0yq0w15u4va0pbif6q,3,3,2,55,pd,3,0.0,1.0,26.78,1,1,0.0
ni3u1j0yq0w15u4va0pbif6q,4,3,2,29,pd,1,0.0,1.0,13.475,1,1,0.0
ni3u1j0yq0w15u4va0pbif6q,5,3,2,64,pd,1,0.0,1.0,23.787,1,1,0.0
ni3u1j0yq0w15u4va0pbif6q,6,3,2,35,pd,1,0.0,1.0,11.604,1,1,0.0
ni3u1j0yq0w15u4va0pbif6q,7,3,2,24,pd,1,0.0,1.0,19.516,1,1,0.0
ni3u1j0yq0w15u4va0pbif6q,8,3,2,17,pd,3,1.0,0.0,26.394,1,1,0.0
ni3u1j0yq0w15u4va0pbif6q,9,3,2,58,md,3,3.0,0.0,15.826,1,1,0.0
ni3u1j0yq0w15u4va0pbif6q,10,3,2,76,pd,1,1.0,0.0,27.388,1,1,0.0
ni3u1j0yq0w15u4va0pbif6q,11,3,2,72,pd,3,,,,1,1,0.0
ni3u1j0yq0w15u4va0pbif6q,12,3,2,66,pd,2,0.0,1.0,22.856,1,1,0.0
no9etujarmhhxqnd88zig7hw,1,3,1,55,pd,2,0.0,1.0,8.454,1,1,0.0
no9etujarmhhxqnd88zig7hw,2,3,1,66,pd,1,0.0,1.0,6.219,1,1,0.0
no9etujarmhhxqnd88zig7hw,3,3,1,30,pd,1,3.0,0.0,4.9,1,1,0.0
no9etujarmhhxqnd88zig7hw,4,3,1,58,md,2,1.0,0.0,20.252,1,1,0.0
no9etujarmhhxqnd88zig7hw,5,3,1,45,pd,3,0.0,1.0,14.313,1,1,0.0
no9etujarmhhxqnd88zig7hw,6,3,1,29,pd,3,0.0,1.0,12.249,1,1,0.0
no9etujarmhhxqnd88zig7hw,7,3,1,17,pd,2,,,,1,1,0.0
no9etujarmhhxqnd88zig7hw,8,3,1,24,pd,3,0.0,1.0,13.321,1,1,0.0
no9etujarmhhxqnd88zig7hw,9,3,1,72,pd,2,0.0,1.0,15.858,1,1,0.0
no9etujarmhhxqnd88zig7hw,10,3,1,64,pd,3,0.0,1.0,21.478,1,1,0.0
no9etujarmhhxqnd88zig7hw,11,3,1,76,pd,3,2.0,0.0,16.171,1,1,0.0
no9etujarmhhxqnd88zig7hw,12,3,1,35,pd,3,1.0,0.0,16.778,1,1,0.0
nvpselq4oo94p257gc1a25iw,1,3,1,55,pd,2,0.0,1.0,8.319,1,1,0.0
nvpselq4oo94p257gc1a25iw,2,3,1,66,pd,1,0.0,1.0,9.487,1,1,0.0
nvpselq4oo94p257gc1a25iw,3,3,1,30,pd,1,0.0,1.0,8.246,1,1,0.0
nvpselq4oo94p257gc1a25iw,4,3,1,58,md,2,1.0,0.0,11.408,1,1,0.0
nvpselq4oo94p257gc1a25iw,5,3,1,45,pd,3,0.0,1.0,8.964,1,1,0.0
nvpselq4oo94p257gc1a25iw,6,3,1,29,pd,3,0.0,1.0,14.362,1,1,0.0
nvpselq4oo94p257gc1a25iw,7,3,1,17,pd,2,0.0,1.0,10.525,1,1,0.0
nvpselq4oo94p257gc1a25iw,8,3,1,24,pd,3,0.0,1.0,18.441,1,1,0.0
nvpselq4oo94p257gc1a25iw,9,3,1,72,pd,2,1.0,0.0,14.726,1,1,0.0
nvpselq4oo94p257gc1a25iw,10,3,1,64,pd,3,0.0,1.0,15.29,1,1,0.0
nvpselq4oo94p257gc1a25iw,11,3,1,76,pd,3,3.0,0.0,6.756,1,1,0.0
nvpselq4oo94p257gc1a25iw,12,3,1,35,pd,3,2.0,0.0,21.769,1,1,0.0
nw0cegr0f9yq4no9oueeczjw,1,3,2,45,pd,1,0.0,1.0,8.572,1,1,0.0
nw0cegr0f9yq4no9oueeczjw,2,3,2,30,pd,2,0.0,1.0,14.504,1,1,0.0
nw0cegr0f9yq4no9oueeczjw,3,3,2,55,pd,3,2.0,0.0,15.423,1,1,0.0
nw0cegr0f9yq4no9oueeczjw,4,3,2,29,pd,1,0.0,1.0,22.607,1,1,0.0
nw0cegr0f9yq4no9oueeczjw,5,3,2,64,pd,1,0.0,1.0,12.042,1,1,0.0
nw0cegr0f9yq4no9oueeczjw,6,3,2,35,pd,1,0.0,1.0,11.058,1,1,0.0
nw0cegr0f9yq4no9oueeczjw,7,3,2,24,pd,1,0.0,1.0,10.045,1,1,0.0
nw0cegr0f9yq4no9oueeczjw,8,3,2,17,pd,3,0.0,1.0,23.275,1,1,0.0
nw0cegr0f9yq4no9oueeczjw,9,3,2,58,md,3,1.0,0.0,13.735,1,1,0.0
nw0cegr0f9yq4no9oueeczjw,10,3,2,76,pd,1,0.0,1.0,18.103,1,1,0.0
nw0cegr0f9yq4no9oueeczjw,11,3,2,72,pd,3,1.0,0.0,22.827,1,1,0.0
nw0cegr0f9yq4no9oueeczjw,12,3,2,66,pd,2,,,,1,1,0.0
o38nghilxzxtavbu0wsiy2l5,1,3,3,45,pd,2,1.0,0.0,5.506,1,1,0.0
o38nghilxzxtavbu0wsiy2l5,2,3,3,55,pd,1,2.0,0.0,5.52,1,1,0.0
o38nghilxzxtavbu0wsiy2l5,3,3,3,30,pd,3,2.0,0.0,7.416,1,1,0.0
o38nghilxzxtavbu0wsiy2l5,4,3,3,58,md,1,3.0,0.0,8.963,1,1,0.0
o38nghilxzxtavbu0wsiy2l5,5,3,3,17,pd,1,3.0,0.0,3.054,1,1,0.0
o38nghilxzxtavbu0wsiy2l5,6,3,3,72,pd,1,1.0,0.0,5.214,1,1,0.0
o38nghilxzxtavbu0wsiy2l5,7,3,3,29,pd,2,3.0,0.0,6.345,1,1,0.0
o38nghilxzxtavbu0wsiy2l5,8,3,3,76,pd,2,0.0,1.0,7.526,1,1,0.0
o38nghilxzxtavbu0wsiy2l5,9,3,3,35,pd,2,3.0,0.0,3.68,1,1,0.0
o38nghilxzxtavbu0wsiy2l5,10,3,3,64,pd,2,2.0,0.0,5.543,1,1,0.0
o38nghilxzxtavbu0wsiy2l5,11,3,3,66,pd,3,1.0,0.0,4.201,1,1,0.0
o38nghilxzxtavbu0wsiy2l5,12,3,3,24,pd,2,1.0,0.0,2.779,1,1,0.0
opj9y1sz66t3r6bjrh50ka3i,1,3,1,55,pd,2,3.0,0.0,10.324,1,1,0.0
opj9y1sz66t3r6bjrh50ka3i,2,3,1,66,pd,1,0.0,1.0,10.366,1,1,0.0
opj9y1sz66t3r6bjrh50ka3i,3,3,1,30,pd,1,1.0,0.0,13.69,1,1,0.0
opj9y1sz66t3r6bjrh50ka3i,4,3,1,58,md,2,1.0,0.0,12.706,1,1,0.0
opj9y1sz66t3r6bjrh50ka3i,5,3,1,45,pd,3,2.0,0.0,13.506,1,1,0.0
opj9y1sz66t3r6bjrh50ka3i,6,3,1,29,pd,3,3.0,0.0,16.025,1,1,2.0
opj9y1sz66t3r6bjrh50ka3i,7,3,1,17,pd,2,0.0,1.0,10.258,1,1,0.0
opj9y1sz66t3r6bjrh50ka3i,8,3,1,24,pd,3,3.0,0.0,9.844,1,1,0.0
opj9y1sz66t3r6bjrh50ka3i,9,3,1,72,pd,2,2.0,0.0,5.779,1,1,0.0
opj9y1sz66t3r6bjrh50ka3i,10,3,1,64,pd,3,3.0,0.0,9.411,1,1,0.0
opj9y1sz66t3r6bjrh50ka3i,11,3,1,76,pd,3,3.0,0.0,2.526,1,1,0.0
opj9y1sz66t3r6bjrh50ka3i,12,3,1,35,pd,3,0.0,1.0,8.116,1,1,0.0
p664ko4hnx2kyewaf12h0xhk,1,3,2,45,pd,1,2.0,0.0,3.98,1,1,0.0
p664ko4hnx2kyewaf12h0xhk,2,3,2,30,pd,2,3.0,0.0,4.297,1,1,0.0
p664ko4hnx2kyewaf12h0xhk,3,3,2,55,pd,3,0.0,1.0,6.02,1,1,0.0
p664ko4hnx2kyewaf12h0xhk,4,3,2,29,pd,1,2.0,0.0,4.017,1,1,0.0
p664ko4hnx2kyewaf12h0xhk,5,3,2,64,pd,1,1.0,0.0,5.745,1,1,0.0
p664ko4hnx2kyewaf12h0xhk,6,3,2,35,pd,1,0.0,1.0,4.779,1,1,0.0
p664ko4hnx2kyewaf12h0xhk,7,3,2,24,pd,1,0.0,1.0,5.423,1,1,0.0
p664ko4hnx2kyewaf12h0xhk,8,3,2,17,pd,3,0.0,1.0,5.41,1,1,0.0
p664ko4hnx2kyewaf12h0xhk,9,3,2,58,md,3,0.0,1.0,5.077,1,1,0.0
p664ko4hnx2kyewaf12h0xhk,10,3,2,76,pd,1,1.0,0.0,4.758,1,1,0.0
p664ko4hnx2kyewaf12h0xhk,11,3,2,72,pd,3,0.0,1.0,4.477,1,1,0.0
p664ko4hnx2kyewaf12h0xhk,12,3,2,66,pd,2,3.0,0.0,5.459,1,1,0.0
pmgtj39vj19t57cb5zmkqheq,1,3,3,45,pd,2,1.0,0.0,3.113,1,1,0.0
pmgtj39vj19t57cb5zmkqheq,2,3,3,55,pd,1,0.0,1.0,3.352,1,1,0.0
pmgtj39vj19t57cb5zmkqheq,3,3,3,30,pd,3,0.0,1.0,5.075,1,1,0.0
pmgtj39vj19t57cb5zmkqheq,4,3,3,58,md,1,3.0,0.0,5.787,1,1,0.0
pmgtj39vj19t57cb5zmkqheq,5,3,3,17,pd,1,2.0,0.0,5.118,1,1,0.0
pmgtj39vj19t57cb5zmkqheq,6,3,3,72,pd,1,2.0,0.0,4.685,1,1,0.0
pmgtj39vj19t57cb5zmkqheq,7,3,3,29,pd,2,2.0,0.0,4.442,1,1,0.0
pmgtj39vj19t57cb5zmkqheq,8,3,3,76,pd,2,2.0,0.0,3.487,1,1,0.0
pmgtj39vj19t57cb5zmkqheq,9,3,3,35,pd,2,2.0,0.0,4.434,1,1,0.0
pmgtj39vj19t57cb5zmkqheq,10,3,3,64,pd,2,2.0,0.0,4.832,1,1,0.0
pmgtj39vj19t57cb5zmkqheq,11,3,3,66,pd,3,0.0,1.0,6.372,1,1,0.0
pmgtj39vj19t57cb5zmkqheq,12,3,3,24,pd,2,1.0,0.0,8.043,1,1,0.0
puvybepqr6nhcroheexfltg7,1,3,2,45,pd,1,2.0,0.0,17.877,1,1,0.0
puvybepqr6nhcroheexfltg7,2,3,2,30,pd,2,0.0,1.0,8.322,1,1,0.0
puvybepqr6nhcroheexfltg7,3,3,2,55,pd,3,1.0,0.0,8.891,1,1,0.0
puvybepqr6nhcroheexfltg7,4,3,2,29,pd,1,1.0,0.0,27.18,1,1,0.0
puvybepqr6nhcroheexfltg7,5,3,2,64,pd,1,1.0,0.0,9.55,1,1,0.0
puvybepqr6nhcroheexfltg7,6,3,2,35,pd,1,0.0,1.0,26.175,1,1,0.0
puvybepqr6nhcroheexfltg7,7,3,2,24,pd,1,,,,1,1,0.0
puvybepqr6nhcroheexfltg7,8,3,2,17,pd,3,2.0,0.0,16.422,1,1,0.0
puvybepqr6nhcroheexfltg7,9,3,2,58,md,3,3.0,0.0,13.229,1,1,0.0
puvybepqr6nhcroheexfltg7,10,3,2,76,pd,1,1.0,0.0,8.246,1,1,0.0
puvybepqr6nhcroheexfltg7,11,3,2,72,pd,3,2.0,0.0,6.953,1,1,0.0
puvybepqr6nhcroheexfltg7,12,3,2,66,pd,2,1.0,0.0,9.006,1,1,0.0
qdf2mfp8poxa6dsi27a0za66,1,3,1,55,pd,2,0.0,1.0,16.825,1,1,0.0
qdf2mfp8poxa6dsi27a0za66,2,3,1,66,pd,1,0.0,1.0,9.202,1,1,0.0
qdf2mfp8poxa6dsi27a0za66,3,3,1,30,pd,1,0.0,1.0,17.247,1,1,0.0
qdf2mfp8poxa6dsi27a0za66,4,3,1,58,md,2,0.0,1.0,19.482,1,1,0.0
qdf2mfp8poxa6dsi27a0za66,5,3,1,45,pd,3,0.0,1.0,27.728,1,1,0.0
qdf2mfp8poxa6dsi27a0za66,6,3,1,29,pd,3,3.0,0.0,23.134,1,1,0.0
qdf2mfp8poxa6dsi27a0za66,7,3,1,17,pd,2,1.0,0.0,16.669,1,1,0.0
qdf2mfp8poxa6dsi27a0za66,8,3,1,24,pd,3,0.0,1.0,18.911,1,1,0.0
qdf2mfp8poxa6dsi27a0za66,9,3,1,72,pd,2,0.0,1.0,6.76,1,1,0.0
qdf2mfp8poxa6dsi27a0za66,10,3,1,64,pd,3,1.0,0.0,4.616,1,1,0.0
qdf2mfp8poxa6dsi27a0za66,11,3,1,76,pd,3,2.0,0.0,12.744,1,1,0.0
qdf2mfp8poxa6dsi27a0za66,12,3,1,35,pd,3,0.0,1.0,14.909,1,1,0.0
r93yrn75ehiob4n560tt02k0,1,3,3,45,pd,2,0.0,1.0,25.37,1,1,0.0
r93yrn75ehiob4n560tt02k0,2,3,3,55,pd,1,0.0,1.0,16.042,1,1,0.0
r93yrn75ehiob4n560tt02k0,3,3,3,30,pd,3,0.0,1.0,15.087,1,1,0.0
r93yrn75ehiob4n560tt02k0,4,3,3,58,md,1,0.0,1.0,25.423,1,1,0.0
r93yrn75ehiob4n560tt02k0,5,3,3,17,pd,1,1.0,0.0,28.595,1,1,0.0
r93yrn75ehiob4n560tt02k0,6,3,3,72,pd,1,2.0,0.0,28.279,1,1,0.0
r93yrn75ehiob4n560tt02k0,7,3,3,29,pd,2,0.0,1.0,28.249,1,1,0.0
r93yrn75ehiob4n560tt02k0,8,3,3,76,pd,2,0.0,1.0,22.713,1,1,0.0
r93yrn75ehiob4n560tt02k0,9,3,3,35,pd,2,0.0,1.0,25.291,1,1,0.0
r93yrn75ehiob4n560tt02k0,10,3,3,64,pd,2,0.0,1.0,28.925,1,1,0.0
r93yrn75ehiob4n560tt02k0,11,3,3,66,pd,3,0.0,1.0,23.029,1,1,0.0
r93yrn75ehiob4n560tt02k0,12,3,3,24,pd,2,0.0,1.0,20.631,1,1,0.0
rkli3iolzfwbybhroh8mw008,1,3,1,55,pd,2,2.0,0.0,18.574,1,1,0.0
rkli3iolzfwbybhroh8mw008,2,3,1,66,pd,1,1.0,0.0,26.935,1,1,0.0
rkli3iolzfwbybhroh8mw008,3,3,1,30,pd,1,0.0,1.0,22.116,1,1,0.0
rkli3iolzfwbybhroh8mw008,4,3,1,58,md,2,2.0,0.0,8.699,1,1,0.0
rkli3iolzfwbybhroh8mw008,5,3,1,45,pd,3,0.0,1.0,25.685,1,1,0.0
rkli3iolzfwbybhroh8mw008,6,3,1,29,pd,3,3.0,0.0,21.773,1,1,0.0
rkli3iolzfwbybhroh8mw008,7,3,1,17,pd,2,1.0,0.0,20.364,1,1,0.0
rkli3iolzfwbybhroh8mw008,8,3,1,24,pd,3,1.0,0.0,10.32,1,1,0.0
rkli3iolzfwbybhroh8mw008,9,3,1,72,pd,2,0.0,1.0,2.497,1,1,0.0
rkli3iolzfwbybhroh8mw008,10,3,1,64,pd,3,1.0,0.0,2.126,1,1,0.0
rkli3iolzfwbybhroh8mw008,11,3,1,76,pd,3,0.0,1.0,9.674,1,1,0.0
rkli3iolzfwbybhroh8mw008,12,3,1,35,pd,3,1.0,0.0,2.001,1,1,0.0
s0g6irwfnbimdq5e9l854o7w,1,3,2,45,pd,1,0.0,1.0,19.849,1,1,0.0
s0g6irwfnbimdq5e9l854o7w,2,3,2,30,pd,2,0.0,1.0,10.507,1,1,0.0
s0g6irwfnbimdq5e9l854o7w,3,3,2,55,pd,3,0.0,1.0,14.485,1,1,0.0
s0g6irwfnbimdq5e9l854o7w,4,3,2,29,pd,1,0.0,1.0,7.053,1,1,0.0
s0g6irwfnbimdq5e9l854o7w,5,3,2,64,pd,1,0.0,1.0,26.35,1,1,0.0
s0g6irwfnbimdq5e9l854o7w,6,3,2,35,pd,1,0.0,1.0,13.476,1,1,0.0
s0g6irwfnbimdq5e9l854o7w,7,3,2,24,pd,1,0.0,1.0,9.154,1,1,0.0
s0g6irwfnbimdq5e9l854o7w,8,3,2,17,pd,3,1.0,0.0,26.005,1,1,0.0
s0g6irwfnbimdq5e9l854o7w,9,3,2,58,md,3,1.0,0.0,14.085,1,1,0.0
s0g6irwfnbimdq5e9l854o7w,10,3,2,76,pd,1,0.0,1.0,27.248,1,1,0.0
s0g6irwfnbimdq5e9l854o7w,11,3,2,72,pd,3,1.0,0.0,28.106,1,1,0.0
s0g6irwfnbimdq5e9l854o7w,12,3,2,66,pd,2,3.0,0.0,18.063,1,1,0.0
sf0938kne0bj4f1b2tn9q03j,1,3,2,45,pd,1,0.0,1.0,15.29,1,1,0.0
sf0938kne0bj4f1b2tn9q03j,2,3,2,30,pd,2,0.0,1.0,14.974,1,1,0.0
sf0938kne0bj4f1b2tn9q03j,3,3,2,55,pd,3,0.0,1.0,12.081,1,1,0.0
sf0938kne0bj4f1b2tn9q03j,4,3,2,29,pd,1,0.0,1.0,17.015,1,1,0.0
sf0938kne0bj4f1b2tn9q03j,5,3,2,64,pd,1,0.0,1.0,21.666,1,1,0.0
sf0938kne0bj4f1b2tn9q03j,6,3,2,35,pd,1,0.0,1.0,12.899,1,1,0.0
sf0938kne0bj4f1b2tn9q03j,7,3,2,24,pd,1,2.0,0.0,17.925,1,1,0.0
sf0938kne0bj4f1b2tn9q03j,8,3,2,17,pd,3,0.0,1.0,16.73,1,1,0.0
sf0938kne0bj4f1b2tn9q03j,9,3,2,58,md,3,0.0,1.0,19.839,1,1,0.0
sf0938kne0bj4f1b2tn9q03j,10,3,2,76,pd,1,2.0,0.0,17.27,1,1,0.0
sf0938kne0bj4f1b2tn9q03j,11,3,2,72,pd,3,1.0,0.0,18.579,1,1,0.0
sf0938kne0bj4f1b2tn9q03j,12,3,2,66,pd,2,2.0,0.0,17.995,1,1,0.0
sp7vppyr5mupqaclooyzeyi5,1,3,3,45,pd,2,0.0,1.0,20.344,1,1,0.0
sp7vppyr5mupqaclooyzeyi5,2,3,3,55,pd,1,0.0,1.0,13.896,1,1,0.0
sp7vppyr5mupqaclooyzeyi5,3,3,3,30,pd,3,0.0,1.0,12.513,1,1,0.0
sp7vppyr5mupqaclooyzeyi5,4,3,3,58,md,1,0.0,1.0,15.969,1,1,0.0
sp7vppyr5mupqaclooyzeyi5,5,3,3,17,pd,1,1.0,0.0,29.434,1,1,0.0
sp7vppyr5mupqaclooyzeyi5,6,3,3,72,pd,1,0.0,1.0,21.211,1,1,0.0
sp7vppyr5mupqaclooyzeyi5,7,3,3,29,pd,2,0.0,1.0,10.081,1,1,0.0
sp7vppyr5mupqaclooyzeyi5,8,3,3,76,pd,2,0.0,1.0,12.732,1,1,0.0
sp7vppyr5mupqaclooyzeyi5,9,3,3,35,pd,2,0.0,1.0,26.97,1,1,0.0
sp7vppyr5mupqaclooyzeyi5,10,3,3,64,pd,2,0.0,1.0,17.459,1,1,0.0
sp7vppyr5mupqaclooyzeyi5,11,3,3,66,pd,3,0.0,1.0,27.713,1,1,0.0
sp7vppyr5mupqaclooyzeyi5,12,3,3,24,pd,2,0.0,1.0,29.05,1,1,0.0
ssupc0jmqz42x4q16zjlfrz4,1,3,3,45,pd,2,0.0,1.0,24.004,1,1,0.0
ssupc0jmqz42x4q16zjlfrz4,2,3,3,55,pd,1,0.0,1.0,22.194,1,1,0.0
ssupc0jmqz42x4q16zjlfrz4,3,3,3,30,pd,3,0.0,1.0,15.825,1,1,0.0
ssupc0jmqz42x4q16zjlfrz4,4,3,3,58,md,1,2.0,0.0,27.327,1,1,0.0
ssupc0jmqz42x4q16zjlfrz4,5,3,3,17,pd,1,1.0,0.0,29.415,1,1,0.0
ssupc0jmqz42x4q16zjlfrz4,6,3,3,72,pd,1,2.0,0.0,23.522,1,1,0.0
ssupc0jmqz42x4q16zjlfrz4,7,3,3,29,pd,2,0.0,1.0,14.224,1,1,0.0
ssupc0jmqz42x4q16zjlfrz4,8,3,3,76,pd,2,0.0,1.0,21.314,1,1,0.0
ssupc0jmqz42x4q16zjlfrz4,9,3,3,35,pd,2,0.0,1.0,21.002,1,1,0.0
ssupc0jmqz42x4q16zjlfrz4,10,3,3,64,pd,2,,,,1,1,0.0
ssupc0jmqz42x4q16zjlfrz4,11,3,3,66,pd,3,0.0,1.0,22.559,1,1,0.0
ssupc0jmqz42x4q16zjlfrz4,12,3,3,24,pd,2,0.0,1.0,12.744,1,1,0.0
sujlea0qq3ilrxgjyu9vx1i7,1,3,1,55,pd,2,0.0,1.0,8.785,1,1,0.0
sujlea0qq3ilrxgjyu9vx1i7,2,3,1,66,pd,1,0.0,1.0,6.129,1,1,0.0
sujlea0qq3ilrxgjyu9vx1i7,3,3,1,30,pd,1,0.0,1.0,6.783,1,1,0.0
sujlea0qq3ilrxgjyu9vx1i7,4,3,1,58,md,2,0.0,1.0,14.717,1,1,0.0
sujlea0qq3ilrxgjyu9vx1i7,5,3,1,45,pd,3,0.0,1.0,8.298,1,1,0.0
sujlea0qq3ilrxgjyu9vx1i7,6,3,1,29,pd,3,3.0,0.0,10.069,1,1,0.0
sujlea0qq3ilrxgjyu9vx1i7,7,3,1,17,pd,2,0.0,1.0,13.305,1,1,0.0
sujlea0qq3ilrxgjyu9vx1i7,8,3,1,24,pd,3,3.0,0.0,7.39,1,1,0.0
sujlea0qq3ilrxgjyu9vx1i7,9,3,1,72,pd,2,1.0,0.0,2.321,1,1,0.0
sujlea0qq3ilrxgjyu9vx1i7,10,3,1,64,pd,3,2.0,0.0,4.646,1,1,0.0
sujlea0qq3ilrxgjyu9vx1i7,11,3,1,76,pd,3,1.0,0.0,10.529,1,1,0.0
sujlea0qq3ilrxgjyu9vx1i7,12,3,1,35,pd,3,1.0,0.0,1.938,1,1,0.0
summdzyf24gtjdfq5p284m54,1,3,2,45,pd,1,0.0,1.0,15.178,1,1,0.0
summdzyf24gtjdfq5p284m54,2,3,2,30,pd,2,0.0,1.0,15.577,1,1,0.0
summdzyf24gtjdfq5p284m54,3,3,2,55,pd,3,0.0,1.0,19.682,1,1,0.0
summdzyf24gtjdfq5p284m54,4,3,2,29,pd,1,0.0,1.0,12.441,1,1,0.0
summdzyf24gtjdfq5p284m54,5,3,2,64,pd,1,0.0,1.0,17.463,1,1,0.0
summdzyf24gtjdfq5p284m54,6,3,2,35,pd,1,0.0,1.0,15.766,1,1,0.0
summdzyf24gtjdfq5p284m54,7,3,2,24,pd,1,0.0,1.0,10.267,1,1,0.0
summdzyf24gtjdfq5p284m54,8,3,2,17,pd,3,0.0,1.0,29.616,1,1,0.0
summdzyf24gtjdfq5p284m54,9,3,2,58,md,3,0.0,1.0,20.703,1,1,0.0
summdzyf24gtjdfq5p284m54,10,3,2,76,pd,1,0.0,1.0,25.467,1,1,0.0
summdzyf24gtjdfq5p284m54,11,3,2,72,pd,3,0.0,1.0,18.362,1,1,0.0
summdzyf24gtjdfq5p284m54,12,3,2,66,pd,2,0.0,1.0,22.603,1,1,0.0
tfecdrhzmoqe3zza3lf00xns,1,3,1,55,pd,2,0.0,1.0,10.88,1,1,0.0
tfecdrhzmoqe3zza3lf00xns,2,3,1,66,pd,1,0.0,1.0,7.199,1,1,0.0
tfecdrhzmoqe3zza3lf00xns,3,3,1,30,pd,1,0.0,1.0,6.304,1,1,0.0
tfecdrhzmoqe3zza3lf00xns,4,3,1,58,md,2,1.0,0.0,13.276,1,1,0.0
tfecdrhzmoqe3zza3lf00xns,5,3,1,45,pd,3,0.0,1.0,9.969,1,1,0.0
tfecdrhzmoqe3zza3lf00xns,6,3,1,29,pd,3,3.0,0.0,14.662,1,1,0.0
tfecdrhzmoqe3zza3lf00xns,7,3,1,17,pd,2,0.0,1.0,12.582,1,1,0.0
tfecdrhzmoqe3zza3lf00xns,8,3,1,24,pd,3,0.0,1.0,14.652,1,1,0.0
tfecdrhzmoqe3zza3lf00xns,9,3,1,72,pd,2,0.0,1.0,17.97,1,1,0.0
tfecdrhzmoqe3zza3lf00xns,10,3,1,64,pd,3,0.0,1.0,16.512,1,1,0.0
tfecdrhzmoqe3zza3lf00xns,11,3,1,76,pd,3,1.0,0.0,25.722,1,1,0.0
tfecdrhzmoqe3zza3lf00xns,12,3,1,35,pd,3,0.0,1.0,9.488,1,1,0.0
tkebd2u00mijr52j5q42wb6v,1,3,2,45,pd,1,0.0,1.0,27.597,1,1,0.0
tkebd2u00mijr52j5q42wb6v,2,3,2,30,pd,2,3.0,0.0,29.325,1,1,0.0
tkebd2u00mijr52j5q42wb6v,3,3,2,55,pd,3,0.0,1.0,11.927,1,1,0.0
tkebd2u00mijr52j5q42wb6v,4,3,2,29,pd,1,0.0,1.0,7.544,1,1,0.0
tkebd2u00mijr52j5q42wb6v,5,3,2,64,pd,1,1.0,0.0,18.633,1,1,0.0
tkebd2u00mijr52j5q42wb6v,6,3,2,35,pd,1,0.0,1.0,27.55,1,1,0.0
tkebd2u00mijr52j5q42wb6v,7,3,2,24,pd,1,0.0,1.0,17.984,1,1,0.0
tkebd2u00mijr52j5q42wb6v,8,3,2,17,pd,3,1.0,0.0,28.095,1,1,0.0
tkebd2u00mijr52j5q42wb6v,9,3,2,58,md,3,0.0,1.0,12.984,1,1,0.0
tkebd2u00mijr52j5q42wb6v,10,3,2,76,pd,1,2.0,0.0,15.72,1,1,0.0
tkebd2u00mijr52j5q42wb6v,11,3,2,72,pd,3,0.0,1.0,17.896,1,1,0.0
tkebd2u00mijr52j5q42wb6v,12,3,2,66,pd,2,0.0,1.0,14.744,1,1,0.0
ub8bc92u2mmdjcctx7tx4yja,1,3,3,45,pd,2,0.0,1.0,16.756,0,1,0.0
ub8bc92u2mmdjcctx7tx4yja,2,3,3,55,pd,1,0.0,1.0,7.166,0,1,0.0
ub8bc92u2mmdjcctx7tx4yja,3,3,3,30,pd,3,0.0,1.0,14.404,0,1,0.0
ub8bc92u2mmdjcctx7tx4yja,4,3,3,58,md,1,0.0,1.0,16.406,0,1,0.0
ub8bc92u2mmdjcctx7tx4yja,5,3,3,17,pd,1,0.0,1.0,26.953,0,1,0.0
ub8bc92u2mmdjcctx7tx4yja,6,3,3,72,pd,1,0.0,1.0,20.163,0,1,0.0
ub8bc92u2mmdjcctx7tx4yja,7,3,3,29,pd,2,0.0,1.0,26.133,0,1,0.0
ub8bc92u2mmdjcctx7tx4yja,8,3,3,76,pd,2,0.0,1.0,23.572,0,1,0.0
ub8bc92u2mmdjcctx7tx4yja,9,3,3,35,pd,2,0.0,1.0,26.182,0,1,0.0
ub8bc92u2mmdjcctx7tx4yja,10,3,3,64,pd,2,0.0,1.0,25.436,0,1,0.0
ub8bc92u2mmdjcctx7tx4yja,11,3,3,66,pd,3,1.0,0.0,27.95,0,1,0.0
ub8bc92u2mmdjcctx7tx4yja,12,3,3,24,pd,2,0.0,1.0,25.905,0,1,0.0
ui91v4b9jg8uez798uvkb5mf,1,3,2,45,pd,1,0.0,1.0,10.545,1,1,0.0
ui91v4b9jg8uez798uvkb5mf,2,3,2,30,pd,2,0.0,1.0,12.389,1,1,0.0
ui91v4b9jg8uez798uvkb5mf,3,3,2,55,pd,3,0.0,1.0,14.176,1,1,0.0
ui91v4b9jg8uez798uvkb5mf,4,3,2,29,pd,1,0.0,1.0,15.712,1,1,0.0
ui91v4b9jg8uez798uvkb5mf,5,3,2,64,pd,1,0.0,1.0,25.116,1,1,0.0
ui91v4b9jg8uez798uvkb5mf,6,3,2,35,pd,1,3.0,0.0,16.813,1,1,0.0
ui91v4b9jg8uez798uvkb5mf,7,3,2,24,pd,1,0.0,1.0,11.334,1,1,0.0
ui91v4b9jg8uez798uvkb5mf,8,3,2,17,pd,3,0.0,1.0,14.713,1,1,0.0
ui91v4b9jg8uez798uvkb5mf,9,3,2,58,md,3,1.0,0.0,24.564,1,1,0.0
ui91v4b9jg8uez798uvkb5mf,10,3,2,76,pd,1,2.0,0.0,25.764,1,1,0.0
ui91v4b9jg8uez798uvkb5mf,11,3,2,72,pd,3,0.0,1.0,14.595,1,1,0.0
ui91v4b9jg8uez798uvkb5mf,12,3,2,66,pd,2,0.0,1.0,21.315,1,1,0.0
uongz2kgkz6a4v4sgt7ziq87,1,3,3,45,pd,2,0.0,1.0,12.597,1,1,0.0
uongz2kgkz6a4v4sgt7ziq87,2,3,3,55,pd,1,0.0,1.0,21.588,1,1,0.0
uongz2kgkz6a4v4sgt7ziq87,3,3,3,30,pd,3,0.0,1.0,21.579,1,1,0.0
uongz2kgkz6a4v4sgt7ziq87,4,3,3,58,md,1,0.0,1.0,28.193,1,1,0.0
uongz2kgkz6a4v4sgt7ziq87,5,3,3,17,pd,1,0.0,1.0,21.446,1,1,0.0
uongz2kgkz6a4v4sgt7ziq87,6,3,3,72,pd,1,0.0,1.0,27.039,1,1,0.0
uongz2kgkz6a4v4sgt7ziq87,7,3,3,29,pd,2,3.0,0.0,27.598,1,1,0.0
uongz2kgkz6a4v4sgt7ziq87,8,3,3,76,pd,2,2.0,0.0,25.173,1,1,0.0
uongz2kgkz6a4v4sgt7ziq87,9,3,3,35,pd,2,,,,1,1,0.0
uongz2kgkz6a4v4sgt7ziq87,10,3,3,64,pd,2,1.0,0.0,22.856,1,1,0.0
uongz2kgkz6a4v4sgt7ziq87,11,3,3,66,pd,3,0.0,1.0,25.339,1,1,0.0
uongz2kgkz6a4v4sgt7ziq87,12,3,3,24,pd,2,3.0,0.0,16.343,1,1,0.0
vtu233hx78xg91qgizxctygo,1,3,2,45,pd,1,0.0,1.0,19.518,1,1,0.0
vtu233hx78xg91qgizxctygo,2,3,2,30,pd,2,0.0,1.0,13.31,1,1,0.0
vtu233hx78xg91qgizxctygo,3,3,2,55,pd,3,1.0,0.0,20.621,1,1,0.0
vtu233hx78xg91qgizxctygo,4,3,2,29,pd,1,1.0,0.0,24.328,1,1,0.0
vtu233hx78xg91qgizxctygo,5,3,2,64,pd,1,0.0,1.0,19.36,1,1,0.0
vtu233hx78xg91qgizxctygo,6,3,2,35,pd,1,0.0,1.0,21.562,1,1,0.0
vtu233hx78xg91qgizxctygo,7,3,2,24,pd,1,0.0,1.0,20.829,1,1,0.0
vtu233hx78xg91qgizxctygo,8,3,2,17,pd,3,0.0,1.0,27.31,1,1,0.0
vtu233hx78xg91qgizxctygo,9,3,2,58,md,3,0.0,1.0,24.3,1,1,0.0
vtu233hx78xg91qgizxctygo,10,3,2,76,pd,1,1.0,0.0,29.712,1,1,0.0
vtu233hx78xg91qgizxctygo,11,3,2,72,pd,3,0.0,1.0,29.738,1,1,0.0
vtu233hx78xg91qgizxctygo,12,3,2,66,pd,2,1.0,0.0,28.708,1,1,0.0
vzsb1otkxqvzqnxuey4hxj9k,1,3,1,55,pd,2,0.0,1.0,18.183,1,1,0.0
vzsb1otkxqvzqnxuey4hxj9k,2,3,1,66,pd,1,0.0,1.0,7.92,1,1,0.0
vzsb1otkxqvzqnxuey4hxj9k,3,3,1,30,pd,1,0.0,1.0,18.868,1,1,0.0
vzsb1otkxqvzqnxuey4hxj9k,4,3,1,58,md,2,1.0,0.0,18.825,1,1,0.0
vzsb1otkxqvzqnxuey4hxj9k,5,3,1,45,pd,3,0.0,1.0,15.195,1,1,0.0
vzsb1otkxqvzqnxuey4hxj9k,6,3,1,29,pd,3,0.0,1.0,23.225,1,1,0.0
vzsb1otkxqvzqnxuey4hxj9k,7,3,1,17,pd,2,0.0,1.0,28.941,1,1,0.0
vzsb1otkxqvzqnxuey4hxj9k,8,3,1,24,pd,3,0.0,1.0,20.793,1,1,0.0
vzsb1otkxqvzqnxuey4hxj9k,9,3,1,72,pd,2,3.0,0.0,28.896,1,1,0.0
vzsb1otkxqvzqnxuey4hxj9k,10,3,1,64,pd,3,0.0,1.0,20.882,1,1,0.0
vzsb1otkxqvzqnxuey4hxj9k,11,3,1,76,pd,3,,,,1,1,0.0
vzsb1otkxqvzqnxuey4hxj9k,12,3,1,35,pd,3,0.0,1.0,27.697,1,1,0.0
wgbgi4jdiifgzcxgz0lyrvce,1,3,1,55,pd,2,1.0,0.0,5.927,1,1,0.0
wgbgi4jdiifgzcxgz0lyrvce,2,3,1,66,pd,1,0.0,1.0,5.535,1,1,0.0
wgbgi4jdiifgzcxgz0lyrvce,3,3,1,30,pd,1,3.0,0.0,11.462,1,1,0.0
wgbgi4jdiifgzcxgz0lyrvce,4,3,1,58,md,2,0.0,1.0,9.997,1,1,0.0
wgbgi4jdiifgzcxgz0lyrvce,5,3,1,45,pd,3,1.0,0.0,11.24,1,1,0.0
wgbgi4jdiifgzcxgz0lyrvce,6,3,1,29,pd,3,3.0,0.0,12.75,1,1,0.0
wgbgi4jdiifgzcxgz0lyrvce,7,3,1,17,pd,2,1.0,0.0,15.273,1,1,0.0
wgbgi4jdiifgzcxgz0lyrvce,8,3,1,24,pd,3,1.0,0.0,8.401,1,1,0.0
wgbgi4jdiifgzcxgz0lyrvce,9,3,1,72,pd,2,0.0,1.0,11.046,1,1,0.0
wgbgi4jdiifgzcxgz0lyrvce,10,3,1,64,pd,3,3.0,0.0,17.396,1,1,0.0
wgbgi4jdiifgzcxgz0lyrvce,11,3,1,76,pd,3,2.0,0.0,15.747,1,1,0.0
wgbgi4jdiifgzcxgz0lyrvce,12,3,1,35,pd,3,2.0,0.0,18.894,1,1,0.0
wjpogymczm3nnxjpcv18839w,1,3,3,45,pd,2,0.0,1.0,11.004,1,1,0.0
wjpogymczm3nnxjpcv18839w,2,3,3,55,pd,1,1.0,0.0,8.514,1,1,0.0
wjpogymczm3nnxjpcv18839w,3,3,3,30,pd,3,3.0,0.0,7.498,1,1,0.0
wjpogymczm3nnxjpcv18839w,4,3,3,58,md,1,2.0,0.0,8.66,1,1,0.0
wjpogymczm3nnxjpcv18839w,5,3,3,17,pd,1,3.0,0.0,10.65,1,1,0.0
wjpogymczm3nnxjpcv18839w,6,3,3,72,pd,1,0.0,1.0,8.776,1,1,0.0
wjpogymczm3nnxjpcv18839w,7,3,3,29,pd,2,2.0,0.0,11.675,1,1,0.0
wjpogymczm3nnxjpcv18839w,8,3,3,76,pd,2,3.0,0.0,9.497,1,1,0.0
wjpogymczm3nnxjpcv18839w,9,3,3,35,pd,2,0.0,1.0,8.788,1,1,0.0
wjpogymczm3nnxjpcv18839w,10,3,3,64,pd,2,0.0,1.0,7.164,1,1,0.0
wjpogymczm3nnxjpcv18839w,11,3,3,66,pd,3,0.0,1.0,11.923,1,1,0.0
wjpogymczm3nnxjpcv18839w,12,3,3,24,pd,2,2.0,0.0,9.865,1,1,0.0
x4watxnbjv7ayinbqtr7mmm4,1,3,2,45,pd,1,0.0,1.0,11.522,1,1,0.0
x4watxnbjv7ayinbqtr7mmm4,2,3,2,30,pd,2,0.0,1.0,10.503,1,1,0.0
x4watxnbjv7ayinbqtr7mmm4,3,3,2,55,pd,3,0.0,1.0,10.705,1,1,0.0
x4watxnbjv7ayinbqtr7mmm4,4,3,2,29,pd,1,0.0,1.0,13.159,1,1,0.0
x4watxnbjv7ayinbqtr7mmm4,5,3,2,64,pd,1,0.0,1.0,16.761,1,1,0.0
x4watxnbjv7ayinbqtr7mmm4,6,3,2,35,pd,1,0.0,1.0,7.255,1,1,0.0
x4watxnbjv7ayinbqtr7mmm4,7,3,2,24,pd,1,0.0,1.0,14.801,1,1,0.0
x4watxnbjv7ayinbqtr7mmm4,8,3,2,17,pd,3,0.0,1.0,16.454,1,1,0.0
x4watxnbjv7ayinbqtr7mmm4,9,3,2,58,md,3,0.0,1.0,7.871,1,1,0.0
x4watxnbjv7ayinbqtr7mmm4,10,3,2,76,pd,1,0.0,1.0,4.669,1,1,0.0
x4watxnbjv7ayinbqtr7mmm4,11,3,2,72,pd,3,0.0,1.0,5.099,1,1,0.0
x4watxnbjv7ayinbqtr7mmm4,12,3,2,66,pd,2,0.0,1.0,10.988,1,1,0.0
xiirbbvwmswudkbnsy197q90,1,3,3,45,pd,2,0.0,1.0,12.122,1,1,0.0
xiirbbvwmswudkbnsy197q90,2,3,3,55,pd,1,0.0,1.0,6.79,1,1,0.0
xiirbbvwmswudkbnsy197q90,3,3,3,30,pd,3,0.0,1.0,10.453,1,1,0.0
xiirbbvwmswudkbnsy197q90,4,3,3,58,md,1,1.0,0.0,13.12,1,1,0.0
xiirbbvwmswudkbnsy197q90,5,3,3,17,pd,1,0.0,1.0,13.539,1,1,0.0
xiirbbvwmswudkbnsy197q90,6,3,3,72,pd,1,0.0,1.0,16.482,1,1,0.0
xiirbbvwmswudkbnsy197q90,7,3,3,29,pd,2,3.0,0.0,15.845,1,1,0.0
xiirbbvwmswudkbnsy197q90,8,3,3,76,pd,2,1.0,0.0,12.735,1,1,0.0
xiirbbvwmswudkbnsy197q90,9,3,3,35,pd,2,0.0,1.0,23.61,1,1,0.0
xiirbbvwmswudkbnsy197q90,10,3,3,64,pd,2,1.0,0.0,9.944,1,1,0.0
xiirbbvwmswudkbnsy197q90,11,3,3,66,pd,3,0.0,1.0,12.625,1,1,0.0
xiirbbvwmswudkbnsy197q90,12,3,3,24,pd,2,0.0,1.0,11.656,1,1,0.0
yhlmo6ysmov10hnf5clfpjy7,1,3,1,55,pd,2,0.0,1.0,10.201,1,1,0.0
yhlmo6ysmov10hnf5clfpjy7,2,3,1,66,pd,1,0.0,1.0,5.293,1,1,0.0
yhlmo6ysmov10hnf5clfpjy7,3,3,1,30,pd,1,0.0,1.0,9.979,1,1,0.0
yhlmo6ysmov10hnf5clfpjy7,4,3,1,58,md,2,0.0,1.0,9.013,1,1,0.0
yhlmo6ysmov10hnf5clfpjy7,5,3,1,45,pd,3,0.0,1.0,9.109,1,1,0.0
yhlmo6ysmov10hnf5clfpjy7,6,3,1,29,pd,3,0.0,1.0,6.992,1,1,0.0
yhlmo6ysmov10hnf5clfpjy7,7,3,1,17,pd,2,1.0,0.0,21.57,1,1,0.0
yhlmo6ysmov10hnf5clfpjy7,8,3,1,24,pd,3,0.0,1.0,16.874,1,1,0.0
yhlmo6ysmov10hnf5clfpjy7,9,3,1,72,pd,2,3.0,0.0,10.639,1,1,0.0
yhlmo6ysmov10hnf5clfpjy7,10,3,1,64,pd,3,2.0,0.0,9.937,1,1,0.0
yhlmo6ysmov10hnf5clfpjy7,11,3,1,76,pd,3,1.0,0.0,8.642,1,1,0.0
yhlmo6ysmov10hnf5clfpjy7,12,3,1,35,pd,3,0.0,1.0,12.505,1,1,0.0
z4jh5bkeucisdyknn1hmidaz,1,3,2,45,pd,1,0.0,1.0,13.937,1,1,0.0
z4jh5bkeucisdyknn1hmidaz,2,3,2,30,pd,2,0.0,1.0,8.796,1,1,0.0
z4jh5bkeucisdyknn1hmidaz,3,3,2,55,pd,3,0.0,1.0,13.789,1,1,0.0
z4jh5bkeucisdyknn1hmidaz,4,3,2,29,pd,1,0.0,1.0,6.743,1,1,0.0
z4jh5bkeucisdyknn1hmidaz,5,3,2,64,pd,1,1.0,0.0,12.603,1,1,0.0
z4jh5bkeucisdyknn1hmidaz,6,3,2,35,pd,1,2.0,0.0,17.33,1,1,0.0
z4jh5bkeucisdyknn1hmidaz,7,3,2,24,pd,1,0.0,1.0,6.896,1,1,0.0
z4jh5bkeucisdyknn1hmidaz,8,3,2,17,pd,3,0.0,1.0,22.836,1,1,0.0
z4jh5bkeucisdyknn1hmidaz,9,3,2,58,md,3,1.0,0.0,19.228,1,1,0.0
z4jh5bkeucisdyknn1hmidaz,10,3,2,76,pd,1,3.0,0.0,8.44,1,1,0.0
z4jh5bkeucisdyknn1hmidaz,11,3,2,72,pd,3,0.0,1.0,4.977,1,1,0.0
z4jh5bkeucisdyknn1hmidaz,12,3,2,66,pd,2,0.0,1.0,7.932,1,1,0.0
za5wauivmcddsxred0ihde77,1,3,3,45,pd,2,0.0,1.0,10.975,1,1,0.0
za5wauivmcddsxred0ihde77,2,3,3,55,pd,1,0.0,1.0,6.688,1,1,0.0
za5wauivmcddsxred0ihde77,3,3,3,30,pd,3,0.0,1.0,7.533,1,1,0.0
za5wauivmcddsxred0ihde77,4,3,3,58,md,1,0.0,1.0,15.803,1,1,0.0
za5wauivmcddsxred0ihde77,5,3,3,17,pd,1,0.0,1.0,14.78,1,1,0.0
za5wauivmcddsxred0ihde77,6,3,3,72,pd,1,0.0,1.0,12.843,1,1,0.0
za5wauivmcddsxred0ihde77,7,3,3,29,pd,2,0.0,1.0,8.646,1,1,0.0
za5wauivmcddsxred0ihde77,8,3,3,76,pd,2,1.0,0.0,7.806,1,1,0.0
za5wauivmcddsxred0ihde77,9,3,3,35,pd,2,0.0,1.0,10.153,1,1,0.0
za5wauivmcddsxred0ihde77,10,3,3,64,pd,2,2.0,0.0,8.963,1,1,0.0
za5wauivmcddsxred0ihde77,11,3,3,66,pd,3,1.0,0.0,10.245,1,1,0.0
za5wauivmcddsxred0ihde77,12,3,3,24,pd,2,2.0,0.0,8.92,1,1,0.0
zebzdrfvenjm5qr7zul7jc0u,1,3,2,45,pd,1,0.0,1.0,4.332,1,1,0.0
zebzdrfvenjm5qr7zul7jc0u,2,3,2,30,pd,2,2.0,0.0,8.661,1,1,0.0
zebzdrfvenjm5qr7zul7jc0u,3,3,2,55,pd,3,0.0,1.0,7.296,1,1,0.0
zebzdrfvenjm5qr7zul7jc0u,4,3,2,29,pd,1,0.0,1.0,7.968,1,1,0.0
zebzdrfvenjm5qr7zul7jc0u,5,3,2,64,pd,1,0.0,1.0,11.141,1,1,0.0
zebzdrfvenjm5qr7zul7jc0u,6,3,2,35,pd,1,0.0,1.0,10.165,1,1,0.0
zebzdrfvenjm5qr7zul7jc0u,7,3,2,24,pd,1,0.0,1.0,17.53,1,1,0.0
zebzdrfvenjm5qr7zul7jc0u,8,3,2,17,pd,3,0.0,1.0,10.594,1,1,0.0
zebzdrfvenjm5qr7zul7jc0u,9,3,2,58,md,3,1.0,0.0,14.456,1,1,0.0
zebzdrfvenjm5qr7zul7jc0u,10,3,2,76,pd,1,0.0,1.0,16.526,1,1,0.0
zebzdrfvenjm5qr7zul7jc0u,11,3,2,72,pd,3,1.0,0.0,18.799,1,1,0.0
zebzdrfvenjm5qr7zul7jc0u,12,3,2,66,pd,2,0.0,1.0,17.725,1,1,0.0
ztl7qy2bocyvre2xwqlky3me,1,3,1,55,pd,2,2.0,0.0,7.541,1,1,0.0
ztl7qy2bocyvre2xwqlky3me,2,3,1,66,pd,1,3.0,0.0,4.484,1,1,0.0
ztl7qy2bocyvre2xwqlky3me,3,3,1,30,pd,1,3.0,0.0,4.141,1,1,0.0
ztl7qy2bocyvre2xwqlky3me,4,3,1,58,md,2,3.0,0.0,4.977,1,1,0.0
ztl7qy2bocyvre2xwqlky3me,5,3,1,45,pd,3,0.0,1.0,6.134,1,1,0.0
ztl7qy2bocyvre2xwqlky3me,6,3,1,29,pd,3,3.0,0.0,4.411,1,1,0.0
ztl7qy2bocyvre2xwqlky3me,7,3,1,17,pd,2,1.0,0.0,3.864,1,1,0.0
ztl7qy2bocyvre2xwqlky3me,8,3,1,24,pd,3,1.0,0.0,4.697,1,1,0.0
ztl7qy2bocyvre2xwqlky3me,9,3,1,72,pd,2,2.0,0.0,3.359,1,1,0.0
ztl7qy2bocyvre2xwqlky3me,10,3,1,64,pd,3,2.0,0.0,4.761,1,1,0.0
ztl7qy2bocyvre2xwqlky3me,11,3,1,76,pd,3,0.0,1.0,4.126,1,1,0.0
ztl7qy2bocyvre2xwqlky3me,12,3,1,35,pd,3,2.0,0.0,3.305,1,1,0.0
