subject,trial,test_form,stimulus,correct,choice,accuracy,rt,all_loaded,minimum_resolution
0fn46b0vpigmdhpkswfb0mye,1,0,a11,4,5.0,0.0,12.532,1,1
0fn46b0vpigmdhpkswfb0mye,2,0,a24,4,1.0,0.0,24.781,1,1
0fn46b0vpigmdhpkswfb0mye,3,0,a28,7,7.0,1.0,14.916,1,1
0fn46b0vpigmdhpkswfb0mye,4,0,a36,1,5.0,0.0,27.413,1,1
0fn46b0vpigmdhpkswfb0mye,5,0,a43,4,3.0,0.0,27.589,1,1
0fn46b0vpigmdhpkswfb0mye,6,0,a48,5,6.0,0.0,20.157,1,1
0fn46b0vpigmdhpkswfb0mye,7,0,a49,6,6.0,1.0,9.428,1,1
0fn46b0vpigmdhpkswfb0mye,8,0,a53,0,0.0,1.0,13.038,1,1
0fn46b0vpigmdhpkswfb0mye,9,0,a55,1,2.0,0.0,29.752,1,1
0hl5k6dw9a2hun024rqfhkg0,1,0,a11,4,4.0,1.0,20.267,1,1
0hl5k6dw9a2hun024rqfhkg0,2,0,a24,4,4.0,1.0,13.839,1,1
0hl5k6dw9a2hun024rqfhkg0,3,0,a28,7,7.0,1.0,16.496,1,1
0hl5k6dw9a2hun024rqfhkg0,4,0,a36,1,3.0,0.0,29.894,1,1
0hl5k6dw9a2hun024rqfhkg0,5,0,a43,4,4.0,1.0,22.406,1,1
0hl5k6dw9a2hun024rqfhkg0,6,0,a48,5,,,,1,1
0hl5k6dw9a2hun024rqfhkg0,7,0,a49,6,6.0,1.0,10.334,1,1
0hl5k6dw9a2hun024rqfhkg0,8,0,a53,0,0.0,1.0,7.492,1,1
0hl5k6dw9a2hun024rqfhkg0,9,0,a55,1,6.0,0.0,27.09,1,1
0m0dkmh3y3hksejvcy3w0f3v,1,0,a11,4,3.0,0.0,28.928,1,1
0m0dkmh3y3hksejvcy3w0f3v,2,0,a24,4,4.0,1.0,14.32,1,1
0m0dkmh3y3hksejvcy3w0f3v,3,0,a28,7,7.0,1.0,10.584,1,1
0m0dkmh3y3hksejvcy3w0f3v,4,0,a36,1,2.0,0.0,23.15,1,1
0m0dkmh3y3hksejvcy3w0f3v,5,0,a43,4,4.0,1.0,16.882,1,1
0m0dkmh3y3hksejvcy3w0f3v,6,0,a48,5,7.0,0.0,29.728,1,1
0m0dkmh3y3hksejvcy3w0f3v,7,0,a49,6,6.0,1.0,11.814,1,1
0m0dkmh3y3hksejvcy3w0f3v,8,0,a53,0,0.0,1.0,29.142,1,1
0m0dkmh3y3hksejvcy3w0f3v,9,0,a55,1,1.0,1.0,29.428,1,1
0q10tq8kaq3aegf7c03e4s9t,1,0,a11,4,4.0,1.0,19.483,1,1
0q10tq8kaq3aegf7c03e4s9t,2,0,a24,4,4.0,1.0,9.261,1,1
0q10tq8kaq3aegf7c03e4s9t,3,0,a28,7,7.0,1.0,16.337,1,1
0q10tq8kaq3aegf7c03e4s9t,4,0,a36,1,2.0,0.0,15.939,1,1
0q10tq8kaq3aegf7c03e4s9t,5,0,a43,4,4.0,1.0,26.267,1,1
0q10tq8kaq3aegf7c03e4s9t,6,0,a48,5,7.0,0.0,16.488,1,1
0q10tq8kaq3aegf7c03e4s9t,7,0,a49,6,6.0,1.0,12.28,1,1
0q10tq8kaq3aegf7c03e4s9t,8,0,a53,0,0.0,1.0,13.112,1,1
0q10tq8kaq3aegf7c03e4s9t,9,0,a55,1,,,,1,1
0r0rukhznftdhj8ks4dd3eps,1,0,a11,4,4.0,1.0,21.937,1,1
0r0rukhznftdhj8ks4dd3eps,2,0,a24,4,3.0,0.0,26.524,1,1
0r0rukhznftdhj8ks4dd3eps,3,0,a28,7,2.0,0.0,21.388,1,1
0r0rukhznftdhj8ks4dd3eps,4,0,a36,1,0.0,0.0,24.317,1,1
0r0rukhznftdhj8ks4dd3eps,5,0,a43,4,4.0,1.0,18.45,1,1
0r0rukhznftdhj8ks4dd3eps,6,0,a48,5,,,,1,1
0r0rukhznftdhj8ks4dd3eps,7,0,a49,6,2.0,0.0,10.047,1,1
0r0rukhznftdhj8ks4dd3eps,8,0,a53,0,1.0,0.0,26.065,1,1
0r0rukhznftdhj8ks4dd3eps,9,0,a55,1,6.0,0.0,13.044,1,1
15ebams12i453mvmckqt1eyi,1,0,a11,4,4.0,1.0,14.577,1,1
15ebams12i453mvmckqt1eyi,2,0,a24,4,4.0,1.0,21.224,1,1
15ebams12i453mvmckqt1eyi,3,0,a28,7,7.0,1.0,20.687,1,1
15ebams12i453mvmckqt1eyi,4,0,a36,1,1.0,1.0,27.132,1,1
15ebams12i453mvmckqt1eyi,5,0,a43,4,1.0,0.0,20.177,1,1
15ebams12i453mvmckqt1eyi,6,0,a48,5,4.0,0.0,25.591,1,1
15ebams12i453mvmckqt1eyi,7,0,a49,6,6.0,1.0,6.387,1,1
15ebams12i453mvmckqt1eyi,8,0,a53,0,0.0,1.0,27.088,1,1
15ebams12i453mvmckqt1eyi,9,0,a55,1,6.0,0.0,15.09,1,1
1h6c4xc876vyp61ouzu9r3tr,1,0,a11,4,4.0,1.0,7.244,1,1
1h6c4xc876vyp61ouzu9r3tr,2,0,a24,4,0.0,0.0,18.183,1,1
1h6c4xc876vyp61ouzu9r3tr,3,0,a28,7,7.0,1.0,11.543,1,1
1h6c4xc876vyp61ouzu9r3tr,4,0,a36,1,3.0,0.0,15.151,1,1
1h6c4xc876vyp61ouzu9r3tr,5,0,a43,4,4.0,1.0,12.58,1,1
1h6c4xc876vyp61ouzu9r3tr,6,0,a48,5,1.0,0.0,13.451,1,1
1h6c4xc876vyp61ouzu9r3tr,7,0,a49,6,6.0,1.0,5.336,1,1
1h6c4xc876vyp61ouzu9r3tr,8,0,a53,0,6.0,0.0,7.686,1,1
1h6c4xc876vyp61ouzu9r3tr,9,0,a55,1,6.0,0.0,14.702,1,1
1z9tl0tgp1u1hd7qxdu4ugfw,1,0,a11,4,4.0,1.0,8.455,1,1
1z9tl0tgp1u1hd7qxdu4ugfw,2,0,a24,4,5.0,0.0,28.986,1,1
1z9tl0tgp1u1hd7qxdu4ugfw,3,0,a28,7,7.0,1.0,6.852,1,1
1z9tl0tgp1u1hd7qxdu4ugfw,4,0,a36,1,1.0,1.0,20.625,1,1
1z9tl0tgp1u1hd7qxdu4ugfw,5,0,a43,4,4.0,1.0,18.205,1,1
1z9tl0tgp1u1hd7qxdu4ugfw,6,0,a48,5,6.0,0.0,19.848,1,1
1z9tl0tgp1u1hd7qxdu4ugfw,7,0,a49,6,6.0,1.0,7.133,1,1
1z9tl0tgp1u1hd7qxdu4ugfw,8,0,a53,0,0.0,1.0,7.938,1,1
1z9tl0tgp1u1hd7qxdu4ugfw,9,0,a55,1,1.0,1.0,15.528,1,1
28lrxegugl5cjmbl038832yt,1,0,a11,4,4.0,1.0,8.428,1,1
28lrxegugl5cjmbl038832yt,2,0,a24,4,5.0,0.0,14.966,1,1
28lrxegugl5cjmbl038832yt,3,0,a28,7,7.0,1.0,4.588,1,1
28lrxegugl5cjmbl038832yt,4,0,a36,1,4.0,0.0,20.36,1,1
28lrxegugl5cjmbl038832yt,5,0,a43,4,0.0,0.0,13.934,1,1
28lrxegugl5cjmbl038832yt,6,0,a48,5,2.0,0.0,9.592,1,1
28lrxegugl5cjmbl038832yt,7,0,a49,6,6.0,1.0,8.146,1,1
28lrxegugl5cjmbl038832yt,8,0,a53,0,4.0,0.0,11.156,1,1
28lrxegugl5cjmbl038832yt,9,0,a55,1,6.0,0.0,4.815,1,1
2zhhgttgak8yl2icy6p5maq3,1,0,a11,4,5.0,0.0,24.96,1,1
2zhhgttgak8yl2icy6p5maq3,2,0,a24,4,1.0,0.0,18.753,1,1
2zhhgttgak8yl2icy6p5maq3,3,0,a28,7,7.0,1.0,26.914,1,1
2zhhgttgak8yl2icy6p5maq3,4,0,a36,1,,,,1,1
2zhhgttgak8yl2icy6p5maq3,5,0,a43,4,4.0,1.0,24.237,1,1
2zhhgttgak8yl2icy6p5maq3,6,0,a48,5,,,,1,1
2zhhgttgak8yl2icy6p5maq3,7,0,a49,6,6.0,1.0,14.846,1,1
2zhhgttgak8yl2icy6p5maq3,8,0,a53,0,,,,1,1
2zhhgttgak8yl2icy6p5maq3,9,0,a55,1,7.0,0.0,26.154,1,1
3lfx7v98cdm905xf5atvmmoh,1,0,a11,4,2.0,0.0,7.39,1,1
3lfx7v98cdm905xf5atvmmoh,2,0,a24,4,5.0,0.0,6.116,1,1
3lfx7v98cdm905xf5atvmmoh,3,0,a28,7,7.0,1.0,6.016,1,1
3lfx7v98cdm905xf5atvmmoh,4,0,a36,1,0.0,0.0,7.461,1,1
3lfx7v98cdm905xf5atvmmoh,5,0,a43,4,7.0,0.0,11.905,1,1
3lfx7v98cdm905xf5atvmmoh,6,0,a48,5,1.0,0.0,9.923,1,1
3lfx7v98cdm905xf5atvmmoh,7,0,a49,6,6.0,1.0,3.893,1,1
3lfx7v98cdm905xf5atvmmoh,8,0,a53,0,4.0,0.0,10.91,1,1
3lfx7v98cdm905xf5atvmmoh,9,0,a55,1,3.0,0.0,9.584,1,1
4860s149fvexikc9f5ukhza6,1,0,a11,4,4.0,1.0,17.898,1,1
4860s149fvexikc9f5ukhza6,2,0,a24,4,1.0,0.0,22.964,1,1
4860s149fvexikc9f5ukhza6,3,0,a28,7,7.0,1.0,7.807,1,1
4860s149fvexikc9f5ukhza6,4,0,a36,1,,,,1,1
4860s149fvexikc9f5ukhza6,5,0,a43,4,0.0,0.0,9.373,1,1
4860s149fvexikc9f5ukhza6,6,0,a48,5,1.0,0.0,9.433,1,1
4860s149fvexikc9f5ukhza6,7,0,a49,6,6.0,1.0,8.532,1,1
4860s149fvexikc9f5ukhza6,8,0,a53,0,6.0,0.0,12.444,1,1
4860s149fvexikc9f5ukhza6,9,0,a55,1,6.0,0.0,6.427,1,1
4cxyj4dfixaii8ddxcr9c57l,1,0,a11,4,5.0,0.0,13.452,1,1
4cxyj4dfixaii8ddxcr9c57l,2,0,a24,4,3.0,0.0,12.58,1,1
4cxyj4dfixaii8ddxcr9c57l,3,0,a28,7,1.0,0.0,14.031,1,1
4cxyj4dfixaii8ddxcr9c57l,4,0,a36,1,1.0,1.0,16.447,1,1
4cxyj4dfixaii8ddxcr9c57l,5,0,a43,4,3.0,0.0,10.167,1,1
4cxyj4dfixaii8ddxcr9c57l,6,0,a48,5,0.0,0.0,16.269,1,1
4cxyj4dfixaii8ddxcr9c57l,7,0,a49,6,6.0,1.0,10.98,1,1
4cxyj4dfixaii8ddxcr9c57l,8,0,a53,0,0.0,1.0,14.203,1,1
4cxyj4dfixaii8ddxcr9c57l,9,0,a55,1,0.0,0.0,11.517,1,1
4dsinf5it1vmhp2qvqf6hmqv,1,0,a11,4,0.0,0.0,7.625,1,1
4dsinf5it1vmhp2qvqf6hmqv,2,0,a24,4,5.0,0.0,15.54,1,1
4dsinf5it1vmhp2qvqf6hmqv,3,0,a28,7,7.0,1.0,10.349,1,1
4dsinf5it1vmhp2qvqf6hmqv,4,0,a36,1,6.0,0.0,29.508,1,1
4dsinf5it1vmhp2qvqf6hmqv,5,0,a43,4,4.0,1.0,12.359,1,1
4dsinf5it1vmhp2qvqf6hmqv,6,0,a48,5,2.0,0.0,23.475,1,1
4dsinf5it1vmhp2qvqf6hmqv,7,0,a49,6,6.0,1.0,12.244,1,1
4dsinf5it1vmhp2qvqf6hmqv,8,0,a53,0,0.0,1.0,8.105,1,1
4dsinf5it1vmhp2qvqf6hmqv,9,0,a55,1,6.0,0.0,26.166,1,1
5l2u7j2h21z19tcxhsjk2c08,1,0,a11,4,4.0,1.0,14.616,1,1
5l2u7j2h21z19tcxhsjk2c08,2,0,a24,4,4.0,1.0,14.526,1,1
5l2u7j2h21z19tcxhsjk2c08,3,0,a28,7,7.0,1.0,10.914,1,1
5l2u7j2h21z19tcxhsjk2c08,4,0,a36,1,2.0,0.0,27.171,1,1
5l2u7j2h21z19tcxhsjk2c08,5,0,a43,4,4.0,1.0,17.971,1,1
5l2u7j2h21z19tcxhsjk2c08,6,0,a48,5,4.0,0.0,27.103,1,1
5l2u7j2h21z19tcxhsjk2c08,7,0,a49,6,6.0,1.0,16.218,1,1
5l2u7j2h21z19tcxhsjk2c08,8,0,a53,0,0.0,1.0,9.349,1,1
5l2u7j2h21z19tcxhsjk2c08,9,0,a55,1,1.0,1.0,18.692,1,1
5xplh8hs67ttduk01u4cnqlh,1,0,a11,4,5.0,0.0,6.752,1,1
5xplh8hs67ttduk01u4cnqlh,2,0,a24,4,5.0,0.0,7.964,1,1
5xplh8hs67ttduk01u4cnqlh,3,0,a28,7,7.0,1.0,7.248,1,1
5xplh8hs67ttduk01u4cnqlh,4,0,a36,1,5.0,0.0,10.078,1,1
5xplh8hs67ttduk01u4cnqlh,5,0,a43,4,7.0,0.0,12.882,1,1
5xplh8hs67ttduk01u4cnqlh,6,0,a48,5,4.0,0.0,8.972,1,1
5xplh8hs67ttduk01u4cnqlh,7,0,a49,6,6.0,1.0,13.063,1,1
5xplh8hs67ttduk01u4cnqlh,8,0,a53,0,1.0,0.0,11.591,1,1
5xplh8hs67ttduk01u4cnqlh,9,0,a55,1,6.0,0.0,5.071,1,1
6vbm9zf46dicbp9lguwjfgey,1,0,a11,4,0.0,0.0,15.567,1,1
6vbm9zf46dicbp9lguwjfgey,2,0,a24,4,4.0,1.0,16.162,1,1
6vbm9zf46dicbp9lguwjfgey,3,0,a28,7,7.0,1.0,21.365,1,1
6vbm9zf46dicbp9lguwjfgey,4,0,a36,1,5.0,0.0,25.585,1,1
6vbm9zf46dicbp9lguwjfgey,5,0,a43,4,4.0,1.0,16.116,1,1
6vbm9zf46dicbp9lguwjfgey,6,0,a48,5,6.0,0.0,13.779,1,1
6vbm9zf46dicbp9lguwjfgey,7,0,a49,6,0.0,0.0,4.514,1,1
6vbm9zf46dicbp9lguwjfgey,8,0,a53,0,7.0,0.0,2.781,1,1
6vbm9zf46dicbp9lguwjfgey,9,0,a55,1,6.0,0.0,2.369,1,1
6w9ojjc7tj02tgn3xrbdmcy6,1,0,a11,4,4.0,1.0,17.642,1,1
6w9ojjc7tj02tgn3xrbdmcy6,2,0,a24,4,4.0,1.0,24.57,1,1
6w9ojjc7tj02tgn3xrbdmcy6,3,0,a28,7,7.0,1.0,20.313,1,1
6w9ojjc7tj02tgn3xrbdmcy6,4,0,a36,1,,,,1,1
6w9ojjc7tj02tgn3xrbdmcy6,5,0,a43,4,4.0,1.0,24.95,1,1
6w9ojjc7tj02tgn3xrbdmcy6,6,0,a48,5,7.0,0.0,22.485,1,1
6w9ojjc7tj02tgn3xrbdmcy6,7,0,a49,6,6.0,1.0,10.126,1,1
6w9ojjc7tj02tgn3xrbdmcy6,8,0,a53,0,0.0,1.0,11.416,1,1
6w9ojjc7tj02tgn3xrbdmcy6,9,0,a55,1,2.0,0.0,28.48,1,1
7povmb6awscd62wrex2p6g8d,1,0,a11,4,4.0,1.0,15.413,1,1
7povmb6awscd62wrex2p6g8d,2,0,a24,4,0.0,0.0,12.691,1,1
7povmb6awscd62wrex2p6g8d,3,0,a28,7,7.0,1.0,10.629,1,1
7povmb6awscd62wrex2p6g8d,4,0,a36,1,3.0,0.0,12.42,1,1
7povmb6awscd62wrex2p6g8d,5,0,a43,4,7.0,0.0,10.404,1,1
7povmb6awscd62wrex2p6g8d,6,0,a48,5,7.0,0.0,18.686,1,1
7povmb6awscd62wrex2p6g8d,7,0,a49,6,6.0,1.0,12.2,1,1
7povmb6awscd62wrex2p6g8d,8,0,a53,0,0.0,1.0,16.041,1,1
7povmb6awscd62wrex2p6g8d,9,0,a55,1,1.0,1.0,16.637,1,1
89alqlb24wckatlpcdik234f,1,0,a11,4,4.0,1.0,6.637,1,1
89alqlb24wckatlpcdik234f,2,0,a24,4,4.0,1.0,5.47,1,1
89alqlb24wckatlpcdik234f,3,0,a28,7,7.0,1.0,9.659,1,1
89alqlb24wckatlpcdik234f,4,0,a36,1,2.0,0.0,7.749,1,1
89alqlb24wckatlpcdik234f,5,0,a43,4,1.0,0.0,18.165,1,1
89alqlb24wckatlpcdik234f,6,0,a48,5,6.0,0.0,16.635,1,1
89alqlb24wckatlpcdik234f,7,0,a49,6,6.0,1.0,7.37,1,1
89alqlb24wckatlpcdik234f,8,0,a53,0,0.0,1.0,6.681,1,1
89alqlb24wckatlpcdik234f,9,0,a55,1,1.0,1.0,11.765,1,1
8mhbvgqqnyqb3l21i90su6he,1,0,a11,4,5.0,0.0,13.946,1,1
8mhbvgqqnyqb3l21i90su6he,2,0,a24,4,4.0,1.0,17.083,1,1
8mhbvgqqnyqb3l21i90su6he,3,0,a28,7,5.0,0.0,21.033,1,1
8mhbvgqqnyqb3l21i90su6he,4,0,a36,1,2.0,0.0,16.377,1,1
8mhbvgqqnyqb3l21i90su6he,5,0,a43,4,4.0,1.0,6.655,1,1
8mhbvgqqnyqb3l21i90su6he,6,0,a48,5,1.0,0.0,5.913,1,1
8mhbvgqqnyqb3l21i90su6he,7,0,a49,6,2.0,0.0,6.551,1,1
8mhbvgqqnyqb3l21i90su6he,8,0,a53,0,2.0,0.0,7.758,1,1
8mhbvgqqnyqb3l21i90su6he,9,0,a55,1,6.0,0.0,6.187,1,1
8nffzdd3kyzjfr9b8rot84xh,1,0,a11,4,4.0,1.0,11.003,1,1
8nffzdd3kyzjfr9b8rot84xh,2,0,a24,4,0.0,0.0,15.285,1,1
8nffzdd3kyzjfr9b8rot84xh,3,0,a28,7,7.0,1.0,12.94,1,1
8nffzdd3kyzjfr9b8rot84xh,4,0,a36,1,1.0,1.0,17.83,1,1
8nffzdd3kyzjfr9b8rot84xh,5,0,a43,4,7.0,0.0,29.742,1,1
8nffzdd3kyzjfr9b8rot84xh,6,0,a48,5,7.0,0.0,26.835,1,1
8nffzdd3kyzjfr9b8rot84xh,7,0,a49,6,6.0,1.0,10.587,1,1
8nffzdd3kyzjfr9b8rot84xh,8,0,a53,0,6.0,0.0,29.048,1,1
8nffzdd3kyzjfr9b8rot84xh,9,0,a55,1,2.0,0.0,11.873,1,1
8tjnnr68n5kd8w3slqldd88t,1,0,a11,4,0.0,0.0,8.723,1,1
8tjnnr68n5kd8w3slqldd88t,2,0,a24,4,4.0,1.0,11.492,1,1
8tjnnr68n5kd8w3slqldd88t,3,0,a28,7,7.0,1.0,6.328,1,1
8tjnnr68n5kd8w3slqldd88t,4,0,a36,1,1.0,1.0,25.769,1,1
8tjnnr68n5kd8w3slqldd88t,5,0,a43,4,4.0,1.0,24.689,1,1
8tjnnr68n5kd8w3slqldd88t,6,0,a48,5,7.0,0.0,29.456,1,1
8tjnnr68n5kd8w3slqldd88t,7,0,a49,6,6.0,1.0,4.168,1,1
8tjnnr68n5kd8w3slqldd88t,8,0,a53,0,0.0,1.0,7.593,1,1
8tjnnr68n5kd8w3slqldd88t,9,0,a55,1,0.0,0.0,25.516,1,1
956dsja0kqtsmwj2ytzsgewv,1,0,a11,4,4.0,1.0,13.704,1,1
956dsja0kqtsmwj2ytzsgewv,2,0,a24,4,4.0,1.0,10.606,1,1
956dsja0kqtsmwj2ytzsgewv,3,0,a28,7,7.0,1.0,8.855,1,1
956dsja0kqtsmwj2ytzsgewv,4,0,a36,1,1.0,1.0,14.442,1,1
956dsja0kqtsmwj2ytzsgewv,5,0,a43,4,4.0,1.0,19.194,1,1
956dsja0kqtsmwj2ytzsgewv,6,0,a48,5,5.0,1.0,23.922,1,1
956dsja0kqtsmwj2ytzsgewv,7,0,a49,6,6.0,1.0,7.693,1,1
956dsja0kqtsmwj2ytzsgewv,8,0,a53,0,2.0,0.0,28.143,1,1
956dsja0kqtsmwj2ytzsgewv,9,0,a55,1,1.0,1.0,29.744,1,1
967oec9l1nvfo0ziqgqy1te2,1,0,a11,4,3.0,0.0,9.211,1,1
967oec9l1nvfo0ziqgqy1te2,2,0,a24,4,4.0,1.0,10.45,1,1
967oec9l1nvfo0ziqgqy1te2,3,0,a28,7,7.0,1.0,15.29,1,1
967oec9l1nvfo0ziqgqy1te2,4,0,a36,1,2.0,0.0,14.653,1,1
967oec9l1nvfo0ziqgqy1te2,5,0,a43,4,3.0,0.0,29.152,1,1
967oec9l1nvfo0ziqgqy1te2,6,0,a48,5,4.0,0.0,28.432,1,1
967oec9l1nvfo0ziqgqy1te2,7,0,a49,6,6.0,1.0,12.865,1,1
967oec9l1nvfo0ziqgqy1te2,8,0,a53,0,0.0,1.0,14.818,1,1
967oec9l1nvfo0ziqgqy1te2,9,0,a55,1,6.0,0.0,16.222,1,1
98go0w582iiympeu2js4xcwp,1,0,a11,4,5.0,0.0,18.653,1,1
98go0w582iiympeu2js4xcwp,2,0,a24,4,5.0,0.0,27.182,1,1
98go0w582iiympeu2js4xcwp,3,0,a28,7,7.0,1.0,16.387,1,1
98go0w582iiympeu2js4xcwp,4,0,a36,1,2.0,0.0,14.713,1,1
98go0w582iiympeu2js4xcwp,5,0,a43,4,4.0,1.0,24.673,1,1
98go0w582iiympeu2js4xcwp,6,0,a48,5,6.0,0.0,18.816,1,1
98go0w582iiympeu2js4xcwp,7,0,a49,6,6.0,1.0,10.257,1,1
98go0w582iiympeu2js4xcwp,8,0,a53,0,2.0,0.0,14.24,1,1
98go0w582iiympeu2js4xcwp,9,0,a55,1,0.0,0.0,22.222,1,1
9afw5te4a1v33a52p16gw5wy,1,0,a11,4,4.0,1.0,10.305,1,1
9afw5te4a1v33a52p16gw5wy,2,0,a24,4,5.0,0.0,5.363,1,1
9afw5te4a1v33a52p16gw5wy,3,0,a28,7,7.0,1.0,13.16,1,1
9afw5te4a1v33a52p16gw5wy,4,0,a36,1,1.0,1.0,17.608,1,1
9afw5te4a1v33a52p16gw5wy,5,0,a43,4,3.0,0.0,16.621,1,1
9afw5te4a1v33a52p16gw5wy,6,0,a48,5,6.0,0.0,10.2,1,1
9afw5te4a1v33a52p16gw5wy,7,0,a49,6,6.0,1.0,6.478,1,1
9afw5te4a1v33a52p16gw5wy,8,0,a53,0,7.0,0.0,14.736,1,1
9afw5te4a1v33a52p16gw5wy,9,0,a55,1,6.0,0.0,4.308,1,1
9odg3d3q0fk9hedo3u35n5bi,1,0,a11,4,2.0,0.0,21.169,1,1
9odg3d3q0fk9hedo3u35n5bi,2,0,a24,4,4.0,1.0,19.485,1,1
9odg3d3q0fk9hedo3u35n5bi,3,0,a28,7,7.0,1.0,13.011,1,1
9odg3d3q0fk9hedo3u35n5bi,4,0,a36,1,4.0,0.0,25.888,1,1
9odg3d3q0fk9hedo3u35n5bi,5,0,a43,4,4.0,1.0,13.665,1,1
9odg3d3q0fk9hedo3u35n5bi,6,0,a48,5,6.0,0.0,13.504,1,1
9odg3d3q0fk9hedo3u35n5bi,7,0,a49,6,2.0,0.0,10.091,1,1
9odg3d3q0fk9hedo3u35n5bi,8,0,a53,0,0.0,1.0,21.861,1,1
9odg3d3q0fk9hedo3u35n5bi,9,0,a55,1,4.0,0.0,29.154,1,1
a9i6yhw5fdy05k2trwjtly6v,1,0,a11,4,5.0,0.0,7.626,1,1
a9i6yhw5fdy05k2trwjtly6v,2,0,a24,4,2.0,0.0,10.698,1,1
a9i6yhw5fdy05k2trwjtly6v,3,0,a28,7,7.0,1.0,5.722,1,1
a9i6yhw5fdy05k2trwjtly6v,4,0,a36,1,4.0,0.0,17.092,1,1
a9i6yhw5fdy05k2trwjtly6v,5,0,a43,4,4.0,1.0,9.587,1,1
a9i6yhw5fdy05k2trwjtly6v,6,0,a48,5,7.0,0.0,9.377,1,1
a9i6yhw5fdy05k2trwjtly6v,7,0,a49,6,2.0,0.0,11.619,1,1
a9i6yhw5fdy05k2trwjtly6v,8,0,a53,0,3.0,0.0,5.572,1,1
a9i6yhw5fdy05k2trwjtly6v,9,0,a55,1,4.0,0.0,10.784,1,1
a9xyo7m7jpfr3cef88kci6nd,1,0,a11,4,4.0,1.0,19.479,1,1
a9xyo7m7jpfr3cef88kci6nd,2,0,a24,4,4.0,1.0,17.813,1,1
a9xyo7m7jpfr3cef88kci6nd,3,0,a28,7,7.0,1.0,17.729,1,1
a9xyo7m7jpfr3cef88kci6nd,4,0,a36,1,3.0,0.0,28.399,1,1
a9xyo7m7jpfr3cef88kci6nd,5,0,a43,4,4.0,1.0,16.44,1,1
a9xyo7m7jpfr3cef88kci6nd,6,0,a48,5,6.0,0.0,14.829,1,1
a9xyo7m7jpfr3cef88kci6nd,7,0,a49,6,6.0,1.0,7.261,1,1
a9xyo7m7jpfr3cef88kci6nd,8,0,a53,0,0.0,1.0,16.589,1,1
a9xyo7m7jpfr3cef88kci6nd,9,0,a55,1,4.0,0.0,29.423,1,1
aa1lgg9pkqjbkzl6nfteph4k,1,0,a11,4,2.0,0.0,5.483,1,1
aa1lgg9pkqjbkzl6nfteph4k,2,0,a24,4,4.0,1.0,11.512,1,1
aa1lgg9pkqjbkzl6nfteph4k,3,0,a28,7,7.0,1.0,13.217,1,1
aa1lgg9pkqjbkzl6nfteph4k,4,0,a36,1,2.0,0.0,14.037,1,1
aa1lgg9pkqjbkzl6nfteph4k,5,0,a43,4,4.0,1.0,16.092,1,1
aa1lgg9pkqjbkzl6nfteph4k,6,0,a48,5,1.0,0.0,25.722,1,1
aa1lgg9pkqjbkzl6nfteph4k,7,0,a49,6,2.0,0.0,14.415,1,1
aa1lgg9pkqjbkzl6nfteph4k,8,0,a53,0,6.0,0.0,5.295,1,1
aa1lgg9pkqjbkzl6nfteph4k,9,0,a55,1,3.0,0.0,6.501,1,1
afp14too3qdtpy7yf24t34qb,1,0,a11,4,4.0,1.0,6.9,1,1
afp14too3qdtpy7yf24t34qb,2,0,a24,4,2.0,0.0,4.79,1,1
afp14too3qdtpy7yf24t34qb,3,0,a28,7,7.0,1.0,4.787,1,1
afp14too3qdtpy7yf24t34qb,4,0,a36,1,7.0,0.0,7.378,1,1
afp14too3qdtpy7yf24t34qb,5,0,a43,4,7.0,0.0,10.61,1,1
afp14too3qdtpy7yf24t34qb,6,0,a48,5,3.0,0.0,9.473,1,1
afp14too3qdtpy7yf24t34qb,7,0,a49,6,0.0,0.0,4.736,1,1
afp14too3qdtpy7yf24t34qb,8,0,a53,0,6.0,0.0,7.328,1,1
afp14too3qdtpy7yf24t34qb,9,0,a55,1,2.0,0.0,5.202,1,1
anvk62nkqtvq89v6zob2vgni,1,0,a11,4,4.0,1.0,15.758,1,1
anvk62nkqtvq89v6zob2vgni,2,0,a24,4,5.0,0.0,15.179,1,1
anvk62nkqtvq89v6zob2vgni,3,0,a28,7,7.0,1.0,9.19,1,1
anvk62nkqtvq89v6zob2vgni,4,0,a36,1,1.0,1.0,19.658,1,1
anvk62nkqtvq89v6zob2vgni,5,0,a43,4,4.0,1.0,17.345,1,1
anvk62nkqtvq89v6zob2vgni,6,0,a48,5,7.0,0.0,11.275,1,1
anvk62nkqtvq89v6zob2vgni,7,0,a49,6,6.0,1.0,12.912,1,1
anvk62nkqtvq89v6zob2vgni,8,0,a53,0,0.0,1.0,7.238,1,1
anvk62nkqtvq89v6zob2vgni,9,0,a55,1,0.0,0.0,15.115,1,1
asix2f04aq38c2o8gdn3j8uk,1,0,a11,4,4.0,1.0,21.084,1,1
asix2f04aq38c2o8gdn3j8uk,2,0,a24,4,0.0,0.0,15.527,1,1
asix2f04aq38c2o8gdn3j8uk,3,0,a28,7,7.0,1.0,9.712,1,1
asix2f04aq38c2o8gdn3j8uk,4,0,a36,1,6.0,0.0,15.954,1,1
asix2f04aq38c2o8gdn3j8uk,5,0,a43,4,4.0,1.0,16.313,1,1
asix2f04aq38c2o8gdn3j8uk,6,0,a48,5,1.0,0.0,17.535,1,1
asix2f04aq38c2o8gdn3j8uk,7,0,a49,6,2.0,0.0,14.793,1,1
asix2f04aq38c2o8gdn3j8uk,8,0,a53,0,1.0,0.0,12.007,1,1
asix2f04aq38c2o8gdn3j8uk,9,0,a55,1,2.0,0.0,13.755,1,1
av4jenhfprndgcu5lslrmlmz,1,0,a11,4,0.0,0.0,16.248,1,1
av4jenhfprndgcu5lslrmlmz,2,0,a24,4,1.0,0.0,28.595,1,1
av4jenhfprndgcu5lslrmlmz,3,0,a28,7,7.0,1.0,16.476,1,1
av4jenhfprndgcu5lslrmlmz,4,0,a36,1,2.0,0.0,15.692,1,1
av4jenhfprndgcu5lslrmlmz,5,0,a43,4,7.0,0.0,19.03,1,1
av4jenhfprndgcu5lslrmlmz,6,0,a48,5,1.0,0.0,24.028,1,1
av4jenhfprndgcu5lslrmlmz,7,0,a49,6,6.0,1.0,9.432,1,1
av4jenhfprndgcu5lslrmlmz,8,0,a53,0,0.0,1.0,7.771,1,1
av4jenhfprndgcu5lslrmlmz,9,0,a55,1,3.0,0.0,17.382,1,1
azj78vq0mta467n8doj63c8h,1,0,a11,4,5.0,0.0,6.256,1,1
azj78vq0mta467n8doj63c8h,2,0,a24,4,5.0,0.0,9.49,1,1
azj78vq0mta467n8doj63c8h,3,0,a28,7,7.0,1.0,12.624,1,1
azj78vq0mta467n8doj63c8h,4,0,a36,1,1.0,1.0,16.025,1,1
azj78vq0mta467n8doj63c8h,5,0,a43,4,7.0,0.0,17.336,1,1
azj78vq0mta467n8doj63c8h,6,0,a48,5,1.0,0.0,27.313,1,1
azj78vq0mta467n8doj63c8h,7,0,a49,6,4.0,0.0,8.193,1,1
azj78vq0mta467n8doj63c8h,8,0,a53,0,0.0,1.0,9.183,1,1
azj78vq0mta467n8doj63c8h,9,0,a55,1,6.0,0.0,24.719,1,1
bnhqnb4drhbfpj3fixyznexn,1,0,a11,4,4.0,1.0,8.05,1,1
bnhqnb4drhbfpj3fixyznexn,2,0,a24,4,4.0,1.0,11.423,1,1
bnhqnb4drhbfpj3fixyznexn,3,0,a28,7,7.0,1.0,7.397,1,1
bnhqnb4drhbfpj3fixyznexn,4,0,a36,1,1.0,1.0,13.614,1,1
bnhqnb4drhbfpj3fixyznexn,5,0,a43,4,4.0,1.0,8.82,1,1
bnhqnb4drhbfpj3fixyznexn,6,0,a48,5,5.0,1.0,24.07,1,1
bnhqnb4drhbfpj3fixyznexn,7,0,a49,6,6.0,1.0,7.827,1,1
bnhqnb4drhbfpj3fixyznexn,8,0,a53,0,0.0,1.0,6.541,1,1
bnhqnb4drhbfpj3fixyznexn,9,0,a55,1,,,,1,1
bppynjwoe619kl445jdxl5yu,1,0,a11,4,5.0,0.0,19.738,1,1
bppynjwoe619kl445jdxl5yu,2,0,a24,4,2.0,0.0,15.797,1,1
bppynjwoe619kl445jdxl5yu,3,0,a28,7,,,,1,1
bppynjwoe619kl445jdxl5yu,4,0,a36,1,7.0,0.0,14.093,1,1
bppynjwoe619kl445jdxl5yu,5,0,a43,4,7.0,0.0,19.075,1,1
bppynjwoe619kl445jdxl5yu,6,0,a48,5,3.0,0.0,4.48,1,1
bppynjwoe619kl445jdxl5yu,7,0,a49,6,6.0,1.0,9.553,1,1
bppynjwoe619kl445jdxl5yu,8,0,a53,0,0.0,1.0,3.123,1,1
bppynjwoe619kl445jdxl5yu,9,0,a55,1,6.0,0.0,6.389,1,1
bw6rdole1yt1jot1wgxfzimi,1,0,a11,4,5.0,0.0,20.097,1,1
bw6rdole1yt1jot1wgxfzimi,2,0,a24,4,4.0,1.0,17.621,1,1
bw6rdole1yt1jot1wgxfzimi,3,0,a28,7,7.0,1.0,16.512,1,1
bw6rdole1yt1jot1wgxfzimi,4,0,a36,1,1.0,1.0,23.787,1,1
bw6rdole1yt1jot1wgxfzimi,5,0,a43,4,1.0,0.0,21.351,1,1
bw6rdole1yt1jot1wgxfzimi,6,0,a48,5,5.0,1.0,20.522,1,1
bw6rdole1yt1jot1wgxfzimi,7,0,a49,6,2.0,0.0,14.726,1,1
bw6rdole1yt1jot1wgxfzimi,8,0,a53,0,2.0,0.0,12.601,1,1
bw6rdole1yt1jot1wgxfzimi,9,0,a55,1,4.0,0.0,24.649,1,1
byjabzdbugkiw5v2g2rhwok3,1,0,a11,4,5.0,0.0,9.604,1,1
byjabzdbugkiw5v2g2rhwok3,2,0,a24,4,1.0,0.0,13.727,1,1
byjabzdbugkiw5v2g2rhwok3,3,0,a28,7,2.0,0.0,8.427,1,1
byjabzdbugkiw5v2g2rhwok3,4,0,a36,1,1.0,1.0,13.359,1,1
byjabzdbugkiw5v2g2rhwok3,5,0,a43,4,1.0,0.0,10.972,1,1
byjabzdbugkiw5v2g2rhwok3,6,0,a48,5,7.0,0.0,13.636,1,1
byjabzdbugkiw5v2g2rhwok3,7,0,a49,6,6.0,1.0,9.419,1,1
byjabzdbugkiw5v2g2rhwok3,8,0,a53,0,6.0,0.0,11.558,1,1
byjabzdbugkiw5v2g2rhwok3,9,0,a55,1,5.0,0.0,17.164,1,1
ccizjdhpne8gyrqv46ky4uzr,1,0,a11,4,4.0,1.0,15.477,1,1
ccizjdhpne8gyrqv46ky4uzr,2,0,a24,4,4.0,1.0,24.52,1,1
ccizjdhpne8gyrqv46ky4uzr,3,0,a28,7,7.0,1.0,21.642,1,1
ccizjdhpne8gyrqv46ky4uzr,4,0,a36,1,5.0,0.0,25.895,1,1
ccizjdhpne8gyrqv46ky4uzr,5,0,a43,4,4.0,1.0,19.963,1,1
ccizjdhpne8gyrqv46ky4uzr,6,0,a48,5,7.0,0.0,25.447,1,1
ccizjdhpne8gyrqv46ky4uzr,7,0,a49,6,6.0,1.0,12.554,1,1
ccizjdhpne8gyrqv46ky4uzr,8,0,a53,0,6.0,0.0,11.405,1,1
ccizjdhpne8gyrqv46ky4uzr,9,0,a55,1,6.0,0.0,17.335,1,1
cf2exwv92q3639ajwcqxjp6h,1,0,a11,4,4.0,1.0,19.538,1,1
cf2exwv92q3639ajwcqxjp6h,2,0,a24,4,5.0,0.0,24.643,1,1
cf2exwv92q3639ajwcqxjp6h,3,0,a28,7,7.0,1.0,13.032,1,1
cf2exwv92q3639ajwcqxjp6h,4,0,a36,1,1.0,1.0,16.3,1,1
cf2exwv92q3639ajwcqxjp6h,5,0,a43,4,4.0,1.0,29.987,1,1
cf2exwv92q3639ajwcqxjp6h,6,0,a48,5,6.0,0.0,26.386,1,1
cf2exwv92q3639ajwcqxjp6h,7,0,a49,6,6.0,1.0,7.878,1,1
cf2exwv92q3639ajwcqxjp6h,8,0,a53,0,6.0,0.0,23.349,1,1
cf2exwv92q3639ajwcqxjp6h,9,0,a55,1,6.0,0.0,19.642,1,1
d4bq4ejxbk7pr3js2mbpxvnv,1,0,a11,4,4.0,1.0,22.355,1,1
d4bq4ejxbk7pr3js2mbpxvnv,2,0,a24,4,4.0,1.0,16.563,1,1
d4bq4ejxbk7pr3js2mbpxvnv,3,0,a28,7,7.0,1.0,15.517,1,1
d4bq4ejxbk7pr3js2mbpxvnv,4,0,a36,1,3.0,0.0,20.618,1,1
d4bq4ejxbk7pr3js2mbpxvnv,5,0,a43,4,4.0,1.0,19.148,1,1
d4bq4ejxbk7pr3js2mbpxvnv,6,0,a48,5,7.0,0.0,22.275,1,1
d4bq4ejxbk7pr3js2mbpxvnv,7,0,a49,6,2.0,0.0,17.718,1,1
d4bq4ejxbk7pr3js2mbpxvnv,8,0,a53,0,3.0,0.0,29.947,1,1
d4bq4ejxbk7pr3js2mbpxvnv,9,0,a55,1,6.0,0.0,14.585,1,1
de5c3l1czdxwwc2gc8g08i0w,1,0,a11,4,4.0,1.0,8.652,1,1
de5c3l1czdxwwc2gc8g08i0w,2,0,a24,4,4.0,1.0,9.814,1,1
de5c3l1czdxwwc2gc8g08i0w,3,0,a28,7,7.0,1.0,9.925,1,1
de5c3l1czdxwwc2gc8g08i0w,4,0,a36,1,3.0,0.0,25.493,1,1
de5c3l1czdxwwc2gc8g08i0w,5,0,a43,4,4.0,1.0,14.775,1,1
de5c3l1czdxwwc2gc8g08i0w,6,0,a48,5,7.0,0.0,28.376,1,1
de5c3l1czdxwwc2gc8g08i0w,7,0,a49,6,6.0,1.0,6.899,1,1
de5c3l1czdxwwc2gc8g08i0w,8,0,a53,0,0.0,1.0,27.284,1,1
de5c3l1czdxwwc2gc8g08i0w,9,0,a55,1,7.0,0.0,14.486,1,1
e3214r8tm5mfp8lm8ih2lice,1,0,a11,4,3.0,0.0,20.071,1,1
e3214r8tm5mfp8lm8ih2lice,2,0,a24,4,5.0,0.0,7.552,1,1
e3214r8tm5mfp8lm8ih2lice,3,0,a28,7,7.0,1.0,8.486,1,1
e3214r8tm5mfp8lm8ih2lice,4,0,a36,1,7.0,0.0,20.624,1,1
e3214r8tm5mfp8lm8ih2lice,5,0,a43,4,7.0,0.0,23.115,1,1
e3214r8tm5mfp8lm8ih2lice,6,0,a48,5,7.0,0.0,14.508,1,1
e3214r8tm5mfp8lm8ih2lice,7,0,a49,6,3.0,0.0,19.148,1,1
e3214r8tm5mfp8lm8ih2lice,8,0,a53,0,6.0,0.0,26.4,1,1
e3214r8tm5mfp8lm8ih2lice,9,0,a55,1,0.0,0.0,8.624,1,1
e376vxc79im577e1uo2asiry,1,0,a11,4,0.0,0.0,9.608,1,1
e376vxc79im577e1uo2asiry,2,0,a24,4,4.0,1.0,10.943,1,1
e376vxc79im577e1uo2asiry,3,0,a28,7,7.0,1.0,14.665,1,1
e376vxc79im577e1uo2asiry,4,0,a36,1,1.0,1.0,27.855,1,1
e376vxc79im577e1uo2asiry,5,0,a43,4,4.0,1.0,13.048,1,1
e376vxc79im577e1uo2asiry,6,0,a48,5,,,,1,1
e376vxc79im577e1uo2asiry,7,0,a49,6,6.0,1.0,14.303,1,1
e376vxc79im577e1uo2asiry,8,0,a53,0,0.0,1.0,21.132,1,1
e376vxc79im577e1uo2asiry,9,0,a55,1,5.0,0.0,29.154,1,1
eqbm3l2nnu77opdbld781z3b,1,0,a11,4,5.0,0.0,6.231,1,1
eqbm3l2nnu77opdbld781z3b,2,0,a24,4,3.0,0.0,4.764,1,1
eqbm3l2nnu77opdbld781z3b,3,0,a28,7,7.0,1.0,4.983,1,1
eqbm3l2nnu77opdbld781z3b,4,0,a36,1,1.0,1.0,8.308,1,1
eqbm3l2nnu77opdbld781z3b,5,0,a43,4,0.0,0.0,3.946,1,1
eqbm3l2nnu77opdbld781z3b,6,0,a48,5,3.0,0.0,3.911,1,1
eqbm3l2nnu77opdbld781z3b,7,0,a49,6,2.0,0.0,5.368,1,1
eqbm3l2nnu77opdbld781z3b,8,0,a53,0,6.0,0.0,4.8,1,1
eqbm3l2nnu77opdbld781z3b,9,0,a55,1,3.0,0.0,4.327,1,1
ez50wkrb4elook0xp2tbgyuo,1,0,a11,4,4.0,1.0,20.278,1,1
ez50wkrb4elook0xp2tbgyuo,2,0,a24,4,,,,1,1
ez50wkrb4elook0xp2tbgyuo,3,0,a28,7,7.0,1.0,18.388,1,1
ez50wkrb4elook0xp2tbgyuo,4,0,a36,1,2.0,0.0,15.21,1,1
ez50wkrb4elook0xp2tbgyuo,5,0,a43,4,4.0,1.0,12.784,1,1
ez50wkrb4elook0xp2tbgyuo,6,0,a48,5,7.0,0.0,22.01,1,1
ez50wkrb4elook0xp2tbgyuo,7,0,a49,6,6.0,1.0,13.215,1,1
ez50wkrb4elook0xp2tbgyuo,8,0,a53,0,0.0,1.0,9.924,1,1
ez50wkrb4elook0xp2tbgyuo,9,0,a55,1,0.0,0.0,15.296,1,1
g9mk524o0jgndv79kvb7ider,1,0,a11,4,1.0,0.0,4.704,1,1
g9mk524o0jgndv79kvb7ider,2,0,a24,4,4.0,1.0,15.332,1,1
g9mk524o0jgndv79kvb7ider,3,0,a28,7,2.0,0.0,13.45,1,1
g9mk524o0jgndv79kvb7ider,4,0,a36,1,7.0,0.0,18.336,1,1
g9mk524o0jgndv79kvb7ider,5,0,a43,4,3.0,0.0,18.275,1,1
g9mk524o0jgndv79kvb7ider,6,0,a48,5,7.0,0.0,16.729,1,1
g9mk524o0jgndv79kvb7ider,7,0,a49,6,6.0,1.0,11.113,1,1
g9mk524o0jgndv79kvb7ider,8,0,a53,0,6.0,0.0,6.525,1,1
g9mk524o0jgndv79kvb7ider,9,0,a55,1,7.0,0.0,20.503,1,1
ggk9m091rqrozt1olw3xwtap,1,0,a11,4,4.0,1.0,11.462,1,1
ggk9m091rqrozt1olw3xwtap,2,0,a24,4,4.0,1.0,25.619,1,1
ggk9m091rqrozt1olw3xwtap,3,0,a28,7,7.0,1.0,28.501,1,1
ggk9m091rqrozt1olw3xwtap,4,0,a36,1,1.0,1.0,17.112,1,1
ggk9m091rqrozt1olw3xwtap,5,0,a43,4,4.0,1.0,18.622,1,1
ggk9m091rqrozt1olw3xwtap,6,0,a48,5,0.0,0.0,29.408,1,1
ggk9m091rqrozt1olw3xwtap,7,0,a49,6,6.0,1.0,9.496,1,1
ggk9m091rqrozt1olw3xwtap,8,0,a53,0,0.0,1.0,7.793,1,1
ggk9m091rqrozt1olw3xwtap,9,0,a55,1,3.0,0.0,28.984,1,1
gj44aa56fjnz93pzshgpycyj,1,0,a11,4,4.0,1.0,28.404,1,1
gj44aa56fjnz93pzshgpycyj,2,0,a24,4,4.0,1.0,13.356,1,1
gj44aa56fjnz93pzshgpycyj,3,0,a28,7,,,,1,1
gj44aa56fjnz93pzshgpycyj,4,0,a36,1,,,,1,1
gj44aa56fjnz93pzshgpycyj,5,0,a43,4,7.0,0.0,7.006,1,1
gj44aa56fjnz93pzshgpycyj,6,0,a48,5,6.0,0.0,27.028,1,1
gj44aa56fjnz93pzshgpycyj,7,0,a49,6,2.0,0.0,13.932,1,1
gj44aa56fjnz93pzshgpycyj,8,0,a53,0,1.0,0.0,27.468,1,1
gj44aa56fjnz93pzshgpycyj,9,0,a55,1,5.0,0.0,29.166,1,1
hnl0vcoxwm84ddt2nu7xm7tg,1,0,a11,4,4.0,1.0,8.074,1,1
hnl0vcoxwm84ddt2nu7xm7tg,2,0,a24,4,0.0,0.0,11.092,1,1
hnl0vcoxwm84ddt2nu7xm7tg,3,0,a28,7,4.0,0.0,4.325,1,1
hnl0vcoxwm84ddt2nu7xm7tg,4,0,a36,1,3.0,0.0,2.26,1,1
hnl0vcoxwm84ddt2nu7xm7tg,5,0,a43,4,3.0,0.0,3.012,1,1
hnl0vcoxwm84ddt2nu7xm7tg,6,0,a48,5,1.0,0.0,1.548,1,1
hnl0vcoxwm84ddt2nu7xm7tg,7,0,a49,6,0.0,0.0,3.13,1,1
hnl0vcoxwm84ddt2nu7xm7tg,8,0,a53,0,6.0,0.0,1.569,1,1
hnl0vcoxwm84ddt2nu7xm7tg,9,0,a55,1,0.0,0.0,1.582,1,1
hvbemxqiy5t79oi53f8oskob,1,0,a11,4,4.0,1.0,8.544,1,1
hvbemxqiy5t79oi53f8oskob,2,0,a24,4,5.0,0.0,15.415,1,1
hvbemxqiy5t79oi53f8oskob,3,0,a28,7,7.0,1.0,6.232,1,1
hvbemxqiy5t79oi53f8oskob,4,0,a36,1,2.0,0.0,7.053,1,1
hvbemxqiy5t79oi53f8oskob,5,0,a43,4,4.0,1.0,8.858,1,1
hvbemxqiy5t79oi53f8oskob,6,0,a48,5,6.0,0.0,6.539,1,1
hvbemxqiy5t79oi53f8oskob,7,0,a49,6,2.0,0.0,8.012,1,1
hvbemxqiy5t79oi53f8oskob,8,0,a53,0,6.0,0.0,10.774,1,1
hvbemxqiy5t79oi53f8oskob,9,0,a55,1,3.0,0.0,13.216,1,1
hx2aifix9ct6lkvbn9g194jx,1,0,a11,4,5.0,0.0,6.874,1,1
hx2aifix9ct6lkvbn9g194jx,2,0,a24,4,0.0,0.0,11.856,1,1
hx2aifix9ct6lkvbn9g194jx,3,0,a28,7,7.0,1.0,11.01,1,1
hx2aifix9ct6lkvbn9g194jx,4,0,a36,1,1.0,1.0,28.618,1,1
hx2aifix9ct6lkvbn9g194jx,5,0,a43,4,4.0,1.0,17.572,1,1
hx2aifix9ct6lkvbn9g194jx,6,0,a48,5,2.0,0.0,26.344,1,1
hx2aifix9ct6lkvbn9g194jx,7,0,a49,6,7.0,0.0,19.295,1,1
hx2aifix9ct6lkvbn9g194jx,8,0,a53,0,3.0,0.0,28.086,1,1
hx2aifix9ct6lkvbn9g194jx,9,0,a55,1,7.0,0.0,25.834,1,1
i0f191mbhx31o0b6m91c9f84,1,0,a11,4,4.0,1.0,28.028,1,1
i0f191mbhx31o0b6m91c9f84,2,0,a24,4,4.0,1.0,13.864,1,1
i0f191mbhx31o0b6m91c9f84,3,0,a28,7,7.0,1.0,11.035,1,1
i0f191mbhx31o0b6m91c9f84,4,0,a36,1,4.0,0.0,29.394,1,1
i0f191mbhx31o0b6m91c9f84,5,0,a43,4,4.0,1.0,27.128,1,1
i0f191mbhx31o0b6m91c9f84,6,0,a48,5,,,,1,1
i0f191mbhx31o0b6m91c9f84,7,0,a49,6,6.0,1.0,11.717,1,1
i0f191mbhx31o0b6m91c9f84,8,0,a53,0,0.0,1.0,13.835,1,1
i0f191mbhx31o0b6m91c9f84,9,0,a55,1,0.0,0.0,29.248,1,1
il0yopf471got4tcy1yijcn1,1,0,a11,4,4.0,1.0,9.052,1,1
il0yopf471got4tcy1yijcn1,2,0,a24,4,4.0,1.0,9.977,1,1
il0yopf471got4tcy1yijcn1,3,0,a28,7,7.0,1.0,9.524,1,1
il0yopf471got4tcy1yijcn1,4,0,a36,1,2.0,0.0,26.538,1,1
il0yopf471got4tcy1yijcn1,5,0,a43,4,4.0,1.0,27.485,1,1
il0yopf471got4tcy1yijcn1,6,0,a48,5,4.0,0.0,13.397,1,1
il0yopf471got4tcy1yijcn1,7,0,a49,6,6.0,1.0,10.863,1,1
il0yopf471got4tcy1yijcn1,8,0,a53,0,0.0,1.0,9.763,1,1
il0yopf471got4tcy1yijcn1,9,0,a55,1,1.0,1.0,14.881,1,1
im9lykiocrw08y7xyox1xavi,1,0,a11,4,2.0,0.0,11.403,1,1
im9lykiocrw08y7xyox1xavi,2,0,a24,4,5.0,0.0,20.017,1,1
im9lykiocrw08y7xyox1xavi,3,0,a28,7,7.0,1.0,25.788,1,1
im9lykiocrw08y7xyox1xavi,4,0,a36,1,2.0,0.0,29.24,1,1
im9lykiocrw08y7xyox1xavi,5,0,a43,4,4.0,1.0,19.672,1,1
im9lykiocrw08y7xyox1xavi,6,0,a48,5,,,,1,1
im9lykiocrw08y7xyox1xavi,7,0,a49,6,6.0,1.0,11.545,1,1
im9lykiocrw08y7xyox1xavi,8,0,a53,0,0.0,1.0,18.34,1,1
im9lykiocrw08y7xyox1xavi,9,0,a55,1,5.0,0.0,23.736,1,1
jil1mat350anq2m149vr3jud,1,0,a11,4,4.0,1.0,20.328,1,1
jil1mat350anq2m149vr3jud,2,0,a24,4,4.0,1.0,17.598,1,1
jil1mat350anq2m149vr3jud,3,0,a28,7,7.0,1.0,17.029,1,1
jil1mat350anq2m149vr3jud,4,0,a36,1,3.0,0.0,26.641,1,1
jil1mat350anq2m149vr3jud,5,0,a43,4,4.0,1.0,18.714,1,1
jil1mat350anq2m149vr3jud,6,0,a48,5,4.0,0.0,21.454,1,1
jil1mat350anq2m149vr3jud,7,0,a49,6,6.0,1.0,10.787,1,1
jil1mat350anq2m149vr3jud,8,0,a53,0,0.0,1.0,26.814,1,1
jil1mat350anq2m149vr3jud,9,0,a55,1,1.0,1.0,22.496,1,1
jvmclaemywybgwnglxbma49a,1,0,a11,4,4.0,1.0,4.272,1,1
jvmclaemywybgwnglxbma49a,2,0,a24,4,3.0,0.0,6.998,1,1
jvmclaemywybgwnglxbma49a,3,0,a28,7,3.0,0.0,5.613,1,1
jvmclaemywybgwnglxbma49a,4,0,a36,1,1.0,1.0,17.353,1,1
jvmclaemywybgwnglxbma49a,5,0,a43,4,4.0,1.0,10.167,1,1
jvmclaemywybgwnglxbma49a,6,0,a48,5,6.0,0.0,19.559,1,1
jvmclaemywybgwnglxbma49a,7,0,a49,6,6.0,1.0,10.476,1,1
jvmclaemywybgwnglxbma49a,8,0,a53,0,1.0,0.0,7.956,1,1
jvmclaemywybgwnglxbma49a,9,0,a55,1,6.0,0.0,9.135,1,1
kfwpo7jdu24osnoenb40egtw,1,0,a11,4,4.0,1.0,11.776,1,1
kfwpo7jdu24osnoenb40egtw,2,0,a24,4,4.0,1.0,10.222,1,1
kfwpo7jdu24osnoenb40egtw,3,0,a28,7,7.0,1.0,15.397,1,1
kfwpo7jdu24osnoenb40egtw,4,0,a36,1,4.0,0.0,23.103,1,1
kfwpo7jdu24osnoenb40egtw,5,0,a43,4,4.0,1.0,24.385,1,1
kfwpo7jdu24osnoenb40egtw,6,0,a48,5,6.0,0.0,18.471,1,1
kfwpo7jdu24osnoenb40egtw,7,0,a49,6,6.0,1.0,14.784,1,1
kfwpo7jdu24osnoenb40egtw,8,0,a53,0,0.0,1.0,9.174,1,1
kfwpo7jdu24osnoenb40egtw,9,0,a55,1,1.0,1.0,25.923,1,1
lfsgp4idbpimodp9n7rc9y5c,1,0,a11,4,4.0,1.0,6.191,1,1
lfsgp4idbpimodp9n7rc9y5c,2,0,a24,4,4.0,1.0,19.959,1,1
lfsgp4idbpimodp9n7rc9y5c,3,0,a28,7,2.0,0.0,24.191,1,1
lfsgp4idbpimodp9n7rc9y5c,4,0,a36,1,4.0,0.0,28.697,1,1
lfsgp4idbpimodp9n7rc9y5c,5,0,a43,4,4.0,1.0,15.032,1,1
lfsgp4idbpimodp9n7rc9y5c,6,0,a48,5,7.0,0.0,25.952,1,1
lfsgp4idbpimodp9n7rc9y5c,7,0,a49,6,6.0,1.0,19.523,1,1
lfsgp4idbpimodp9n7rc9y5c,8,0,a53,0,2.0,0.0,19.579,1,1
lfsgp4idbpimodp9n7rc9y5c,9,0,a55,1,5.0,0.0,14.815,1,1
ll8rlyc2xpgl2naa2uz384xf,1,0,a11,4,3.0,0.0,8.051,1,1
ll8rlyc2xpgl2naa2uz384xf,2,0,a24,4,4.0,1.0,12.126,1,1
ll8rlyc2xpgl2naa2uz384xf,3,0,a28,7,7.0,1.0,8.404,1,1
ll8rlyc2xpgl2naa2uz384xf,4,0,a36,1,0.0,0.0,14.646,1,1
ll8rlyc2xpgl2naa2uz384xf,5,0,a43,4,4.0,1.0,9.225,1,1
ll8rlyc2xpgl2naa2uz384xf,6,0,a48,5,6.0,0.0,13.453,1,1
ll8rlyc2xpgl2naa2uz384xf,7,0,a49,6,6.0,1.0,12.015,1,1
ll8rlyc2xpgl2naa2uz384xf,8,0,a53,0,6.0,0.0,9.8,1,1
ll8rlyc2xpgl2naa2uz384xf,9,0,a55,1,3.0,0.0,11.272,1,1
lvol8dltzukphy1oje5k5c64,1,0,a11,4,3.0,0.0,28.652,1,1
lvol8dltzukphy1oje5k5c64,2,0,a24,4,0.0,0.0,14.877,1,1
lvol8dltzukphy1oje5k5c64,3,0,a28,7,7.0,1.0,29.311,1,1
lvol8dltzukphy1oje5k5c64,4,0,a36,1,1.0,1.0,26.996,1,1
lvol8dltzukphy1oje5k5c64,5,0,a43,4,0.0,0.0,27.954,1,1
lvol8dltzukphy1oje5k5c64,6,0,a48,5,3.0,0.0,16.296,1,1
lvol8dltzukphy1oje5k5c64,7,0,a49,6,6.0,1.0,21.077,1,1
lvol8dltzukphy1oje5k5c64,8,0,a53,0,0.0,1.0,17.654,1,1
lvol8dltzukphy1oje5k5c64,9,0,a55,1,,,,1,1
m1zqyty0761pxx7uyrp1n03i,1,0,a11,4,2.0,0.0,6.827,1,1
m1zqyty0761pxx7uyrp1n03i,2,0,a24,4,3.0,0.0,15.095,1,1
m1zqyty0761pxx7uyrp1n03i,3,0,a28,7,7.0,1.0,12.866,1,1
m1zqyty0761pxx7uyrp1n03i,4,0,a36,1,7.0,0.0,16.796,1,1
m1zqyty0761pxx7uyrp1n03i,5,0,a43,4,7.0,0.0,12.622,1,1
m1zqyty0761pxx7uyrp1n03i,6,0,a48,5,0.0,0.0,5.502,1,1
m1zqyty0761pxx7uyrp1n03i,7,0,a49,6,0.0,0.0,8.088,1,1
m1zqyty0761pxx7uyrp1n03i,8,0,a53,0,6.0,0.0,8.32,1,1
m1zqyty0761pxx7uyrp1n03i,9,0,a55,1,6.0,0.0,11.416,1,1
m6euo5dahcrknmef8xnwnqo1,1,0,a11,4,0.0,0.0,3.712,1,1
m6euo5dahcrknmef8xnwnqo1,2,0,a24,4,0.0,0.0,6.87,1,1
m6euo5dahcrknmef8xnwnqo1,3,0,a28,7,3.0,0.0,10.182,1,1
m6euo5dahcrknmef8xnwnqo1,4,0,a36,1,5.0,0.0,9.957,1,1
m6euo5dahcrknmef8xnwnqo1,5,0,a43,4,0.0,0.0,9.47,1,1
m6euo5dahcrknmef8xnwnqo1,6,0,a48,5,6.0,0.0,6.885,1,1
m6euo5dahcrknmef8xnwnqo1,7,0,a49,6,3.0,0.0,5.166,1,1
m6euo5dahcrknmef8xnwnqo1,8,0,a53,0,1.0,0.0,6.023,1,1
m6euo5dahcrknmef8xnwnqo1,9,0,a55,1,5.0,0.0,3.264,1,1
mng3ey5qtxa7ix3z2pwzg1ai,1,0,a11,4,4.0,1.0,16.988,1,1
mng3ey5qtxa7ix3z2pwzg1ai,2,0,a24,4,4.0,1.0,22.918,1,1
mng3ey5qtxa7ix3z2pwzg1ai,3,0,a28,7,7.0,1.0,28.402,1,1
mng3ey5qtxa7ix3z2pwzg1ai,4,0,a36,1,7.0,0.0,26.218,1,1
mng3ey5qtxa7ix3z2pwzg1ai,5,0,a43,4,4.0,1.0,20.655,1,1
mng3ey5qtxa7ix3z2pwzg1ai,6,0,a48,5,7.0,0.0,28.627,1,1
mng3ey5qtxa7ix3z2pwzg1ai,7,0,a49,6,6.0,1.0,12.532,1,1
mng3ey5qtxa7ix3z2pwzg1ai,8,0,a53,0,0.0,1.0,28.107,1,1
mng3ey5qtxa7ix3z2pwzg1ai,9,0,a55,1,3.0,0.0,29.553,1,1
mw5r4darxp61hmv2w1iwkosq,1,0,a11,4,0.0,0.0,10.424,1,1
mw5r4darxp61hmv2w1iwkosq,2,0,a24,4,4.0,1.0,7.76,1,1
mw5r4darxp61hmv2w1iwkosq,3,0,a28,7,1.0,0.0,14.257,1,1
mw5r4darxp61hmv2w1iwkosq,4,0,a36,1,2.0,0.0,11.481,1,1
mw5r4darxp61hmv2w1iwkosq,5,0,a43,4,0.0,0.0,7.286,1,1
mw5r4darxp61hmv2w1iwkosq,6,0,a48,5,5.0,1.0,2.017,1,1
mw5r4darxp61hmv2w1iwkosq,7,0,a49,6,2.0,0.0,5.252,1,1
mw5r4darxp61hmv2w1iwkosq,8,0,a53,0,5.0,0.0,1.938,1,1
mw5r4darxp61hmv2w1iwkosq,9,0,a55,1,4.0,0.0,7.517,1,1
mye510vhgdmfdevtglsk8t7c,1,0,a11,4,1.0,0.0,18.714,1,1
mye510vhgdmfdevtglsk8t7c,2,0,a24,4,4.0,1.0,10.945,1,1
mye510vhgdmfdevtglsk8t7c,3,0,a28,7,7.0,1.0,16.415,1,1
mye510vhgdmfdevtglsk8t7c,4,0,a36,1,0.0,0.0,25.6,1,1
mye510vhgdmfdevtglsk8t7c,5,0,a43,4,7.0,0.0,27.382,1,1
mye510vhgdmfdevtglsk8t7c,6,0,a48,5,7.0,0.0,19.314,1,1
mye510vhgdmfdevtglsk8t7c,7,0,a49,6,6.0,1.0,13.297,1,1
mye510vhgdmfdevtglsk8t7c,8,0,a53,0,0.0,1.0,15.967,1,1
mye510vhgdmfdevtglsk8t7c,9,0,a55,1,5.0,0.0,19.654,1,1
n65b9vugk5sxia28xuilt3ix,1,0,a11,4,5.0,0.0,10.901,1,1
n65b9vugk5sxia28xuilt3ix,2,0,a24,4,4.0,1.0,27.376,1,1
n65b9vugk5sxia28xuilt3ix,3,0,a28,7,3.0,0.0,11.017,1,1
n65b9vugk5sxia28xuilt3ix,4,0,a36,1,1.0,1.0,24.868,1,1
n65b9vugk5sxia28xuilt3ix,5,0,a43,4,,,,1,1
n65b9vugk5sxia28xuilt3ix,6,0,a48,5,4.0,0.0,28.226,1,1
n65b9vugk5sxia28xuilt3ix,7,0,a49,6,0.0,0.0,20.504,1,1
n65b9vugk5sxia28xuilt3ix,8,0,a53,0,0.0,1.0,10.061,1,1
n65b9vugk5sxia28xuilt3ix,9,0,a55,1,0.0,0.0,28.728,1,1
o6car17xnr6q7oun43y55x56,1,0,a11,4,4.0,1.0,14.236,1,1
o6car17xnr6q7oun43y55x56,2,0,a24,4,0.0,0.0,14.956,1,1
o6car17xnr6q7oun43y55x56,3,0,a28,7,7.0,1.0,22.168,1,1
o6car17xnr6q7oun43y55x56,4,0,a36,1,1.0,1.0,28.954,1,1
o6car17xnr6q7oun43y55x56,5,0,a43,4,4.0,1.0,29.639,1,1
o6car17xnr6q7oun43y55x56,6,0,a48,5,2.0,0.0,29.69,1,1
o6car17xnr6q7oun43y55x56,7,0,a49,6,6.0,1.0,11.283,1,1
o6car17xnr6q7oun43y55x56,8,0,a53,0,1.0,0.0,19.217,1,1
o6car17xnr6q7oun43y55x56,9,0,a55,1,6.0,0.0,14.102,1,1
oax11o9wyud7rz0zvt9icd01,1,0,a11,4,1.0,0.0,3.415,1,1
oax11o9wyud7rz0zvt9icd01,2,0,a24,4,5.0,0.0,6.816,1,1
oax11o9wyud7rz0zvt9icd01,3,0,a28,7,7.0,1.0,4.535,1,1
oax11o9wyud7rz0zvt9icd01,4,0,a36,1,5.0,0.0,5.621,1,1
oax11o9wyud7rz0zvt9icd01,5,0,a43,4,7.0,0.0,6.138,1,1
oax11o9wyud7rz0zvt9icd01,6,0,a48,5,7.0,0.0,7.375,1,1
oax11o9wyud7rz0zvt9icd01,7,0,a49,6,3.0,0.0,8.536,1,1
oax11o9wyud7rz0zvt9icd01,8,0,a53,0,1.0,0.0,12.218,1,1
oax11o9wyud7rz0zvt9icd01,9,0,a55,1,6.0,0.0,7.752,1,1
op2ekinxv9a2npqflkr38e27,1,0,a11,4,5.0,0.0,15.33,1,1
op2ekinxv9a2npqflkr38e27,2,0,a24,4,5.0,0.0,8.484,1,1
op2ekinxv9a2npqflkr38e27,3,0,a28,7,2.0,0.0,6.515,1,1
op2ekinxv9a2npqflkr38e27,4,0,a36,1,7.0,0.0,8.372,1,1
op2ekinxv9a2npqflkr38e27,5,0,a43,4,0.0,0.0,8.795,1,1
op2ekinxv9a2npqflkr38e27,6,0,a48,5,5.0,1.0,0.995,1,1
op2ekinxv9a2npqflkr38e27,7,0,a49,6,6.0,1.0,4.645,1,1
op2ekinxv9a2npqflkr38e27,8,0,a53,0,1.0,0.0,2.204,1,1
op2ekinxv9a2npqflkr38e27,9,0,a55,1,0.0,0.0,1.365,1,1
ppkkpyald2omvvano9w4qtjo,1,0,a11,4,4.0,1.0,7.336,1,1
ppkkpyald2omvvano9w4qtjo,2,0,a24,4,1.0,0.0,19.298,1,1
ppkkpyald2omvvano9w4qtjo,3,0,a28,7,7.0,1.0,11.664,1,1
ppkkpyald2omvvano9w4qtjo,4,0,a36,1,1.0,1.0,12.344,1,1
ppkkpyald2omvvano9w4qtjo,5,0,a43,4,4.0,1.0,13.618,1,1
ppkkpyald2omvvano9w4qtjo,6,0,a48,5,5.0,1.0,16.842,1,1
ppkkpyald2omvvano9w4qtjo,7,0,a49,6,6.0,1.0,9.053,1,1
ppkkpyald2omvvano9w4qtjo,8,0,a53,0,0.0,1.0,9.15,1,1
ppkkpyald2omvvano9w4qtjo,9,0,a55,1,0.0,0.0,28.761,1,1
pznw9xfn6j8krszd374d30qq,1,0,a11,4,4.0,1.0,11.248,1,1
pznw9xfn6j8krszd374d30qq,2,0,a24,4,4.0,1.0,21.941,1,1
pznw9xfn6j8krszd374d30qq,3,0,a28,7,7.0,1.0,11.243,1,1
pznw9xfn6j8krszd374d30qq,4,0,a36,1,1.0,1.0,16.191,1,1
pznw9xfn6j8krszd374d30qq,5,0,a43,4,4.0,1.0,15.57,1,1
pznw9xfn6j8krszd374d30qq,6,0,a48,5,5.0,1.0,25.897,1,1
pznw9xfn6j8krszd374d30qq,7,0,a49,6,6.0,1.0,8.708,1,1
pznw9xfn6j8krszd374d30qq,8,0,a53,0,0.0,1.0,14.687,1,1
pznw9xfn6j8krszd374d30qq,9,0,a55,1,1.0,1.0,26.486,1,1
q53ml06lqb3m7zla808vwwjo,1,0,a11,4,4.0,1.0,11.739,1,1
q53ml06lqb3m7zla808vwwjo,2,0,a24,4,4.0,1.0,17.51,1,1
q53ml06lqb3m7zla808vwwjo,3,0,a28,7,7.0,1.0,6.907,1,1
q53ml06lqb3m7zla808vwwjo,4,0,a36,1,1.0,1.0,29.037,1,1
q53ml06lqb3m7zla808vwwjo,5,0,a43,4,4.0,1.0,15.467,1,1
q53ml06lqb3m7zla808vwwjo,6,0,a48,5,5.0,1.0,29.01,1,1
q53ml06lqb3m7zla808vwwjo,7,0,a49,6,6.0,1.0,10.669,1,1
q53ml06lqb3m7zla808vwwjo,8,0,a53,0,0.0,1.0,21.001,1,1
q53ml06lqb3m7zla808vwwjo,9,0,a55,1,5.0,0.0,28.984,1,1
qkg4ltvaqtf0vzxdyr0uoetq,1,0,a11,4,5.0,0.0,4.886,1,1
qkg4ltvaqtf0vzxdyr0uoetq,2,0,a24,4,1.0,0.0,9.522,1,1
qkg4ltvaqtf0vzxdyr0uoetq,3,0,a28,7,2.0,0.0,12.607,1,1
qkg4ltvaqtf0vzxdyr0uoetq,4,0,a36,1,4.0,0.0,11.292,1,1
qkg4ltvaqtf0vzxdyr0uoetq,5,0,a43,4,3.0,0.0,6.358,1,1
qkg4ltvaqtf0vzxdyr0uoetq,6,0,a48,5,3.0,0.0,4.847,1,1
qkg4ltvaqtf0vzxdyr0uoetq,7,0,a49,6,0.0,0.0,3.376,1,1
qkg4ltvaqtf0vzxdyr0uoetq,8,0,a53,0,2.0,0.0,4.702,1,1
qkg4ltvaqtf0vzxdyr0uoetq,9,0,a55,1,2.0,0.0,8.593,1,1
qne2p6j6uql5ybweefs2ylqs,1,0,a11,4,3.0,0.0,9.886,1,1
qne2p6j6uql5ybweefs2ylqs,2,0,a24,4,3.0,0.0,7.3,1,1
qne2p6j6uql5ybweefs2ylqs,3,0,a28,7,5.0,0.0,18.853,1,1
qne2p6j6uql5ybweefs2ylqs,4,0,a36,1,2.0,0.0,19.386,1,1
qne2p6j6uql5ybweefs2ylqs,5,0,a43,4,0.0,0.0,6.818,1,1
qne2p6j6uql5ybweefs2ylqs,6,0,a48,5,0.0,0.0,8.981,1,1
qne2p6j6uql5ybweefs2ylqs,7,0,a49,6,2.0,0.0,10.503,1,1
qne2p6j6uql5ybweefs2ylqs,8,0,a53,0,3.0,0.0,9.318,1,1
qne2p6j6uql5ybweefs2ylqs,9,0,a55,1,6.0,0.0,5.484,1,1
r2nj0omoyqm7nrl6qumlldf8,1,0,a11,4,3.0,0.0,10.826,1,1
r2nj0omoyqm7nrl6qumlldf8,2,0,a24,4,,,,1,1
r2nj0omoyqm7nrl6qumlldf8,3,0,a28,7,7.0,1.0,19.166,1,1
r2nj0omoyqm7nrl6qumlldf8,4,0,a36,1,2.0,0.0,27.206,1,1
r2nj0omoyqm7nrl6qumlldf8,5,0,a43,4,4.0,1.0,17.652,1,1
r2nj0omoyqm7nrl6qumlldf8,6,0,a48,5,,,,1,1
r2nj0omoyqm7nrl6qumlldf8,7,0,a49,6,6.0,1.0,9.438,1,1
r2nj0omoyqm7nrl6qumlldf8,8,0,a53,0,0.0,1.0,15.528,1,1
r2nj0omoyqm7nrl6qumlldf8,9,0,a55,1,2.0,0.0,29.614,1,1
riw5fcm9ejqx68up5azqm3es,1,0,a11,4,4.0,1.0,12.485,1,1
riw5fcm9ejqx68up5azqm3es,2,0,a24,4,0.0,0.0,12.865,1,1
riw5fcm9ejqx68up5azqm3es,3,0,a28,7,7.0,1.0,13.542,1,1
riw5fcm9ejqx68up5azqm3es,4,0,a36,1,2.0,0.0,17.071,1,1
riw5fcm9ejqx68up5azqm3es,5,0,a43,4,4.0,1.0,10.603,1,1
riw5fcm9ejqx68up5azqm3es,6,0,a48,5,6.0,0.0,9.479,1,1
riw5fcm9ejqx68up5azqm3es,7,0,a49,6,6.0,1.0,7.467,1,1
riw5fcm9ejqx68up5azqm3es,8,0,a53,0,0.0,1.0,18.492,1,1
riw5fcm9ejqx68up5azqm3es,9,0,a55,1,3.0,0.0,16.338,1,1
rs1bbbdfe76pfioe4dqp0ijh,1,0,a11,4,4.0,1.0,15.125,1,1
rs1bbbdfe76pfioe4dqp0ijh,2,0,a24,4,4.0,1.0,10.704,1,1
rs1bbbdfe76pfioe4dqp0ijh,3,0,a28,7,7.0,1.0,8.3,1,1
rs1bbbdfe76pfioe4dqp0ijh,4,0,a36,1,1.0,1.0,20.117,1,1
rs1bbbdfe76pfioe4dqp0ijh,5,0,a43,4,4.0,1.0,20.0,1,1
rs1bbbdfe76pfioe4dqp0ijh,6,0,a48,5,4.0,0.0,16.859,1,1
rs1bbbdfe76pfioe4dqp0ijh,7,0,a49,6,6.0,1.0,11.629,1,1
rs1bbbdfe76pfioe4dqp0ijh,8,0,a53,0,0.0,1.0,13.792,1,1
rs1bbbdfe76pfioe4dqp0ijh,9,0,a55,1,2.0,0.0,20.561,1,1
ryi2j4qc8lzjxjsr03rclwu6,1,0,a11,4,2.0,0.0,2.972,1,1
ryi2j4qc8lzjxjsr03rclwu6,2,0,a24,4,5.0,0.0,8.404,1,1
ryi2j4qc8lzjxjsr03rclwu6,3,0,a28,7,2.0,0.0,5.191,1,1
ryi2j4qc8lzjxjsr03rclwu6,4,0,a36,1,3.0,0.0,5.693,1,1
ryi2j4qc8lzjxjsr03rclwu6,5,0,a43,4,2.0,0.0,10.572,1,1
ryi2j4qc8lzjxjsr03rclwu6,6,0,a48,5,3.0,0.0,3.645,1,1
ryi2j4qc8lzjxjsr03rclwu6,7,0,a49,6,3.0,0.0,2.735,1,1
ryi2j4qc8lzjxjsr03rclwu6,8,0,a53,0,5.0,0.0,2.438,1,1
ryi2j4qc8lzjxjsr03rclwu6,9,0,a55,1,7.0,0.0,4.923,1,1
rytyh90payxgctfyad81oigh,1,0,a11,4,3.0,0.0,10.596,1,1
rytyh90payxgctfyad81oigh,2,0,a24,4,4.0,1.0,4.998,1,1
rytyh90payxgctfyad81oigh,3,0,a28,7,7.0,1.0,24.85,1,1
rytyh90payxgctfyad81oigh,4,0,a36,1,2.0,0.0,17.133,1,1
rytyh90payxgctfyad81oigh,5,0,a43,4,1.0,0.0,11.672,1,1
rytyh90payxgctfyad81oigh,6,0,a48,5,7.0,0.0,13.295,1,1
rytyh90payxgctfyad81oigh,7,0,a49,6,6.0,1.0,12.888,1,1
rytyh90payxgctfyad81oigh,8,0,a53,0,6.0,0.0,19.822,1,1
rytyh90payxgctfyad81oigh,9,0,a55,1,5.0,0.0,22.881,1,1
s2vn99yrvujfl8amsyn6k3ko,1,0,a11,4,4.0,1.0,13.24,1,1
s2vn99yrvujfl8amsyn6k3ko,2,0,a24,4,4.0,1.0,10.775,1,1
s2vn99yrvujfl8amsyn6k3ko,3,0,a28,7,7.0,1.0,9.548,1,1
s2vn99yrvujfl8amsyn6k3ko,4,0,a36,1,2.0,0.0,19.485,1,1
s2vn99yrvujfl8amsyn6k3ko,5,0,a43,4,7.0,0.0,9.058,1,1
s2vn99yrvujfl8amsyn6k3ko,6,0,a48,5,5.0,1.0,18.515,1,1
s2vn99yrvujfl8amsyn6k3ko,7,0,a49,6,2.0,0.0,6.758,1,1
s2vn99yrvujfl8amsyn6k3ko,8,0,a53,0,0.0,1.0,9.604,1,1
s2vn99yrvujfl8amsyn6k3ko,9,0,a55,1,5.0,0.0,21.682,1,1
sefsrhwwims7htqmsdpuchcp,1,0,a11,4,4.0,1.0,12.971,1,1
sefsrhwwims7htqmsdpuchcp,2,0,a24,4,4.0,1.0,16.584,1,1
sefsrhwwims7htqmsdpuchcp,3,0,a28,7,3.0,0.0,14.145,1,1
sefsrhwwims7htqmsdpuchcp,4,0,a36,1,4.0,0.0,27.893,1,1
sefsrhwwims7htqmsdpuchcp,5,0,a43,4,4.0,1.0,16.989,1,1
sefsrhwwims7htqmsdpuchcp,6,0,a48,5,6.0,0.0,25.474,1,1
sefsrhwwims7htqmsdpuchcp,7,0,a49,6,6.0,1.0,11.841,1,1
sefsrhwwims7htqmsdpuchcp,8,0,a53,0,0.0,1.0,7.475,1,1
sefsrhwwims7htqmsdpuchcp,9,0,a55,1,6.0,0.0,25.581,1,1
u0uex6fq9wheaiubvgmukcmn,1,0,a11,4,4.0,1.0,12.607,1,1
u0uex6fq9wheaiubvgmukcmn,2,0,a24,4,4.0,1.0,7.841,1,1
u0uex6fq9wheaiubvgmukcmn,3,0,a28,7,3.0,0.0,10.676,1,1
u0uex6fq9wheaiubvgmukcmn,4,0,a36,1,2.0,0.0,12.731,1,1
u0uex6fq9wheaiubvgmukcmn,5,0,a43,4,7.0,0.0,14.62,1,1
u0uex6fq9wheaiubvgmukcmn,6,0,a48,5,6.0,0.0,18.076,1,1
u0uex6fq9wheaiubvgmukcmn,7,0,a49,6,2.0,0.0,9.795,1,1
u0uex6fq9wheaiubvgmukcmn,8,0,a53,0,0.0,1.0,19.989,1,1
u0uex6fq9wheaiubvgmukcmn,9,0,a55,1,2.0,0.0,25.579,1,1
uvc7j9o415wi07ev6iqlcd3d,1,0,a11,4,5.0,0.0,9.418,1,1
uvc7j9o415wi07ev6iqlcd3d,2,0,a24,4,4.0,1.0,15.353,1,1
uvc7j9o415wi07ev6iqlcd3d,3,0,a28,7,7.0,1.0,10.897,1,1
uvc7j9o415wi07ev6iqlcd3d,4,0,a36,1,1.0,1.0,28.056,1,1
uvc7j9o415wi07ev6iqlcd3d,5,0,a43,4,4.0,1.0,11.25,1,1
uvc7j9o415wi07ev6iqlcd3d,6,0,a48,5,7.0,0.0,29.35,1,1
uvc7j9o415wi07ev6iqlcd3d,7,0,a49,6,6.0,1.0,8.276,1,1
uvc7j9o415wi07ev6iqlcd3d,8,0,a53,0,0.0,1.0,8.194,1,1
uvc7j9o415wi07ev6iqlcd3d,9,0,a55,1,6.0,0.0,24.377,1,1
v2xveur4b14hvpqk7avlrass,1,0,a11,4,1.0,0.0,5.426,1,1
v2xveur4b14hvpqk7avlrass,2,0,a24,4,4.0,1.0,5.094,1,1
v2xveur4b14hvpqk7avlrass,3,0,a28,7,7.0,1.0,4.773,1,1
v2xveur4b14hvpqk7avlrass,4,0,a36,1,3.0,0.0,5.798,1,1
v2xveur4b14hvpqk7avlrass,5,0,a43,4,0.0,0.0,7.877,1,1
v2xveur4b14hvpqk7avlrass,6,0,a48,5,6.0,0.0,7.532,1,1
v2xveur4b14hvpqk7avlrass,7,0,a49,6,0.0,0.0,5.921,1,1
v2xveur4b14hvpqk7avlrass,8,0,a53,0,6.0,0.0,6.621,1,1
v2xveur4b14hvpqk7avlrass,9,0,a55,1,0.0,0.0,3.854,1,1
vng08aky7ejnmq8o1b85qypv,1,0,a11,4,4.0,1.0,7.67,1,1
vng08aky7ejnmq8o1b85qypv,2,0,a24,4,4.0,1.0,6.855,1,1
vng08aky7ejnmq8o1b85qypv,3,0,a28,7,7.0,1.0,19.515,1,1
vng08aky7ejnmq8o1b85qypv,4,0,a36,1,2.0,0.0,14.202,1,1
vng08aky7ejnmq8o1b85qypv,5,0,a43,4,1.0,0.0,11.51,1,1
vng08aky7ejnmq8o1b85qypv,6,0,a48,5,6.0,0.0,21.477,1,1
vng08aky7ejnmq8o1b85qypv,7,0,a49,6,6.0,1.0,16.084,1,1
vng08aky7ejnmq8o1b85qypv,8,0,a53,0,6.0,0.0,16.425,1,1
vng08aky7ejnmq8o1b85qypv,9,0,a55,1,3.0,0.0,14.115,1,1
vtdkc3ouy5kzlaxyzf64fsog,1,0,a11,4,4.0,1.0,8.091,1,1
vtdkc3ouy5kzlaxyzf64fsog,2,0,a24,4,4.0,1.0,12.732,1,1
vtdkc3ouy5kzlaxyzf64fsog,3,0,a28,7,7.0,1.0,7.403,1,1
vtdkc3ouy5kzlaxyzf64fsog,4,0,a36,1,1.0,1.0,29.358,1,1
vtdkc3ouy5kzlaxyzf64fsog,5,0,a43,4,4.0,1.0,12.374,1,1
vtdkc3ouy5kzlaxyzf64fsog,6,0,a48,5,7.0,0.0,29.232,1,1
vtdkc3ouy5kzlaxyzf64fsog,7,0,a49,6,6.0,1.0,8.085,1,1
vtdkc3ouy5kzlaxyzf64fsog,8,0,a53,0,0.0,1.0,10.667,1,1
vtdkc3ouy5kzlaxyzf64fsog,9,0,a55,1,5.0,0.0,29.433,1,1
w03j6ixw0cvbaf3tz1q1n1xg,1,0,a11,4,0.0,0.0,5.803,1,1
w03j6ixw0cvbaf3tz1q1n1xg,2,0,a24,4,4.0,1.0,6.522,1,1
w03j6ixw0cvbaf3tz1q1n1xg,3,0,a28,7,7.0,1.0,13.787,1,1
w03j6ixw0cvbaf3tz1q1n1xg,4,0,a36,1,3.0,0.0,9.275,1,1
w03j6ixw0cvbaf3tz1q1n1xg,5,0,a43,4,4.0,1.0,21.72,1,1
w03j6ixw0cvbaf3tz1q1n1xg,6,0,a48,5,5.0,1.0,17.531,1,1
w03j6ixw0cvbaf3tz1q1n1xg,7,0,a49,6,6.0,1.0,5.038,1,1
w03j6ixw0cvbaf3tz1q1n1xg,8,0,a53,0,0.0,1.0,27.711,1,1
w03j6ixw0cvbaf3tz1q1n1xg,9,0,a55,1,,,,1,1
wj1zzan8poi889015mfjaqg8,1,0,a11,4,4.0,1.0,21.859,1,1
wj1zzan8poi889015mfjaqg8,2,0,a24,4,3.0,0.0,25.51,1,1
wj1zzan8poi889015mfjaqg8,3,0,a28,7,7.0,1.0,21.642,1,1
wj1zzan8poi889015mfjaqg8,4,0,a36,1,,,,1,1
wj1zzan8poi889015mfjaqg8,5,0,a43,4,6.0,0.0,16.433,1,1
wj1zzan8poi889015mfjaqg8,6,0,a48,5,4.0,0.0,15.118,1,1
wj1zzan8poi889015mfjaqg8,7,0,a49,6,6.0,1.0,9.941,1,1
wj1zzan8poi889015mfjaqg8,8,0,a53,0,0.0,1.0,13.285,1,1
wj1zzan8poi889015mfjaqg8,9,0,a55,1,0.0,0.0,24.014,1,1
wo1e3fcsaft1cq07r4a1hnsf,1,0,a11,4,3.0,0.0,9.882,1,1
wo1e3fcsaft1cq07r4a1hnsf,2,0,a24,4,5.0,0.0,11.57,1,1
wo1e3fcsaft1cq07r4a1hnsf,3,0,a28,7,7.0,1.0,6.497,1,1
wo1e3fcsaft1cq07r4a1hnsf,4,0,a36,1,3.0,0.0,10.66,1,1
wo1e3fcsaft1cq07r4a1hnsf,5,0,a43,4,7.0,0.0,13.176,1,1
wo1e3fcsaft1cq07r4a1hnsf,6,0,a48,5,1.0,0.0,10.158,1,1
wo1e3fcsaft1cq07r4a1hnsf,7,0,a49,6,6.0,1.0,7.211,1,1
wo1e3fcsaft1cq07r4a1hnsf,8,0,a53,0,6.0,0.0,15.546,1,1
wo1e3fcsaft1cq07r4a1hnsf,9,0,a55,1,2.0,0.0,13.929,1,1
xj9c0s2fxa4bckbzxbn06gv6,1,0,a11,4,0.0,0.0,19.606,1,1
xj9c0s2fxa4bckbzxbn06gv6,2,0,a24,4,1.0,0.0,4.018,1,1
xj9c0s2fxa4bckbzxbn06gv6,3,0,a28,7,2.0,0.0,15.644,1,1
xj9c0s2fxa4bckbzxbn06gv6,4,0,a36,1,7.0,0.0,3.345,1,1
xj9c0s2fxa4bckbzxbn06gv6,5,0,a43,4,4.0,1.0,6.999,1,1
xj9c0s2fxa4bckbzxbn06gv6,6,0,a48,5,1.0,0.0,4.815,1,1
xj9c0s2fxa4bckbzxbn06gv6,7,0,a49,6,0.0,0.0,2.432,1,1
xj9c0s2fxa4bckbzxbn06gv6,8,0,a53,0,1.0,0.0,8.849,1,1
xj9c0s2fxa4bckbzxbn06gv6,9,0,a55,1,4.0,0.0,3.215,1,1
xqdx9c4vmw1n6lb22bk8rfcw,1,0,a11,4,3.0,0.0,12.663,1,1
xqdx9c4vmw1n6lb22bk8rfcw,2,0,a24,4,1.0,0.0,8.241,1,1
xqdx9c4vmw1n6lb22bk8rfcw,3,0,a28,7,1.0,0.0,4.944,1,1
xqdx9c4vmw1n6lb22bk8rfcw,4,0,a36,1,0.0,0.0,20.426,1,1
xqdx9c4vmw1n6lb22bk8rfcw,5,0,a43,4,1.0,0.0,2.084,1,1
xqdx9c4vmw1n6lb22bk8rfcw,6,0,a48,5,0.0,0.0,15.107,1,1
xqdx9c4vmw1n6lb22bk8rfcw,7,0,a49,6,3.0,0.0,2.619,1,1
xqdx9c4vmw1n6lb22bk8rfcw,8,0,a53,0,5.0,0.0,3.754,1,1
xqdx9c4vmw1n6lb22bk8rfcw,9,0,a55,1,7.0,0.0,2.582,1,1
xxybfz52ezoka90w8znhilo2,1,0,a11,4,4.0,1.0,8.384,1,1
xxybfz52ezoka90w8znhilo2,2,0,a24,4,4.0,1.0,15.987,1,1
xxybfz52ezoka90w8znhilo2,3,0,a28,7,7.0,1.0,15.561,1,1
xxybfz52ezoka90w8znhilo2,4,0,a36,1,5.0,0.0,19.108,1,1
xxybfz52ezoka90w8znhilo2,5,0,a43,4,4.0,1.0,22.175,1,1
xxybfz52ezoka90w8znhilo2,6,0,a48,5,7.0,0.0,24.254,1,1
xxybfz52ezoka90w8znhilo2,7,0,a49,6,6.0,1.0,9.068,1,1
xxybfz52ezoka90w8znhilo2,8,0,a53,0,0.0,1.0,17.807,1,1
xxybfz52ezoka90w8znhilo2,9,0,a55,1,2.0,0.0,27.869,1,1
y8mzed52lqcta4c84cbax7fx,1,0,a11,4,4.0,1.0,15.837,1,1
y8mzed52lqcta4c84cbax7fx,2,0,a24,4,4.0,1.0,12.125,1,1
y8mzed52lqcta4c84cbax7fx,3,0,a28,7,7.0,1.0,12.039,1,1
y8mzed52lqcta4c84cbax7fx,4,0,a36,1,1.0,1.0,21.867,1,1
y8mzed52lqcta4c84cbax7fx,5,0,a43,4,1.0,0.0,28.32,1,1
y8mzed52lqcta4c84cbax7fx,6,0,a48,5,2.0,0.0,20.084,1,1
y8mzed52lqcta4c84cbax7fx,7,0,a49,6,6.0,1.0,6.894,1,1
y8mzed52lqcta4c84cbax7fx,8,0,a53,0,0.0,1.0,5.959,1,1
y8mzed52lqcta4c84cbax7fx,9,0,a55,1,7.0,0.0,26.503,1,1
ybvq4cbvdgxgo01ea8wtptso,1,0,a11,4,5.0,0.0,11.226,1,1
ybvq4cbvdgxgo01ea8wtptso,2,0,a24,4,4.0,1.0,13.988,1,1
ybvq4cbvdgxgo01ea8wtptso,3,0,a28,7,7.0,1.0,10.781,1,1
ybvq4cbvdgxgo01ea8wtptso,4,0,a36,1,2.0,0.0,12.928,1,1
ybvq4cbvdgxgo01ea8wtptso,5,0,a43,4,,,,1,1
ybvq4cbvdgxgo01ea8wtptso,6,0,a48,5,4.0,0.0,19.973,1,1
ybvq4cbvdgxgo01ea8wtptso,7,0,a49,6,3.0,0.0,15.238,1,1
ybvq4cbvdgxgo01ea8wtptso,8,0,a53,0,5.0,0.0,24.284,1,1
ybvq4cbvdgxgo01ea8wtptso,9,0,a55,1,5.0,0.0,27.083,1,1
yn7n4t3dnix36slb9rbl8gez,1,0,a11,4,5.0,0.0,25.817,1,1
yn7n4t3dnix36slb9rbl8gez,2,0,a24,4,4.0,1.0,6.79,1,1
yn7n4t3dnix36slb9rbl8gez,3,0,a28,7,2.0,0.0,17.37,1,1
yn7n4t3dnix36slb9rbl8gez,4,0,a36,1,2.0,0.0,15.87,1,1
yn7n4t3dnix36slb9rbl8gez,5,0,a43,4,4.0,1.0,11.198,1,1
yn7n4t3dnix36slb9rbl8gez,6,0,a48,5,7.0,0.0,20.994,1,1
yn7n4t3dnix36slb9rbl8gez,7,0,a49,6,6.0,1.0,8.359,1,1
yn7n4t3dnix36slb9rbl8gez,8,0,a53,0,0.0,1.0,19.338,1,1
yn7n4t3dnix36slb9rbl8gez,9,0,a55,1,4.0,0.0,28.584,1,1
z5ooqugzl8562gmgzpkuku1o,1,0,a11,4,4.0,1.0,11.713,1,1
z5ooqugzl8562gmgzpkuku1o,2,0,a24,4,4.0,1.0,10.852,1,1
z5ooqugzl8562gmgzpkuku1o,3,0,a28,7,3.0,0.0,9.823,1,1
z5ooqugzl8562gmgzpkuku1o,4,0,a36,1,5.0,0.0,8.179,1,1
z5ooqugzl8562gmgzpkuku1o,5,0,a43,4,7.0,0.0,14.357,1,1
z5ooqugzl8562gmgzpkuku1o,6,0,a48,5,6.0,0.0,10.51,1,1
z5ooqugzl8562gmgzpkuku1o,7,0,a49,6,6.0,1.0,5.971,1,1
z5ooqugzl8562gmgzpkuku1o,8,0,a53,0,0.0,1.0,7.029,1,1
z5ooqugzl8562gmgzpkuku1o,9,0,a55,1,5.0,0.0,28.713,1,1
znjvg9yf3dvdi4x42vx36wgn,1,0,a11,4,0.0,0.0,7.452,1,1
znjvg9yf3dvdi4x42vx36wgn,2,0,a24,4,0.0,0.0,8.598,1,1
znjvg9yf3dvdi4x42vx36wgn,3,0,a28,7,7.0,1.0,13.398,1,1
znjvg9yf3dvdi4x42vx36wgn,4,0,a36,1,3.0,0.0,11.206,1,1
znjvg9yf3dvdi4x42vx36wgn,5,0,a43,4,4.0,1.0,13.238,1,1
znjvg9yf3dvdi4x42vx36wgn,6,0,a48,5,0.0,0.0,14.622,1,1
znjvg9yf3dvdi4x42vx36wgn,7,0,a49,6,6.0,1.0,7.173,1,1
znjvg9yf3dvdi4x42vx36wgn,8,0,a53,0,0.0,1.0,13.566,1,1
znjvg9yf3dvdi4x42vx36wgn,9,0,a55,1,3.0,0.0,16.27,1,1
