subject,trial,test_form,stimulus,correct,choice,accuracy,rt,all_loaded,minimum_resolution
02afxz4fercedkpoucq0nwv2,1,0,a11,4,4.0,1.0,15.063,1,1
02afxz4fercedkpoucq0nwv2,2,0,a24,4,4.0,1.0,18.478,1,1
02afxz4fercedkpoucq0nwv2,3,0,a28,7,7.0,1.0,6.002,1,1
02afxz4fercedkpoucq0nwv2,4,0,a36,1,2.0,0.0,12.178,1,1
02afxz4fercedkpoucq0nwv2,5,0,a43,4,1.0,0.0,13.473,1,1
02afxz4fercedkpoucq0nwv2,6,0,a48,5,3.0,0.0,18.282,1,1
02afxz4fercedkpoucq0nwv2,7,0,a49,6,6.0,1.0,15.456,1,1
02afxz4fercedkpoucq0nwv2,8,0,a53,0,0.0,1.0,4.096,1,1
02afxz4fercedkpoucq0nwv2,9,0,a55,1,2.0,0.0,4.73,1,1
06z78t8e7s50q0bufotmy2sh,1,0,a11,4,4.0,1.0,12.199,1,1
06z78t8e7s50q0bufotmy2sh,2,0,a24,4,4.0,1.0,12.573,1,1
06z78t8e7s50q0bufotmy2sh,3,0,a28,7,7.0,1.0,29.656,1,1
06z78t8e7s50q0bufotmy2sh,4,0,a36,1,,,,1,1
06z78t8e7s50q0bufotmy2sh,5,0,a43,4,4.0,1.0,24.361,1,1
06z78t8e7s50q0bufotmy2sh,6,0,a48,5,2.0,0.0,29.943,1,1
06z78t8e7s50q0bufotmy2sh,7,0,a49,6,6.0,1.0,24.802,1,1
06z78t8e7s50q0bufotmy2sh,8,0,a53,0,0.0,1.0,28.914,1,1
06z78t8e7s50q0bufotmy2sh,9,0,a55,1,3.0,0.0,29.927,1,1
0d2k1d6l575zu9b9qntyusym,1,0,a11,4,4.0,1.0,22.344,1,1
0d2k1d6l575zu9b9qntyusym,2,0,a24,4,4.0,1.0,17.778,1,1
0d2k1d6l575zu9b9qntyusym,3,0,a28,7,7.0,1.0,14.577,1,1
0d2k1d6l575zu9b9qntyusym,4,0,a36,1,7.0,0.0,28.771,1,1
0d2k1d6l575zu9b9qntyusym,5,0,a43,4,4.0,1.0,15.676,1,1
0d2k1d6l575zu9b9qntyusym,6,0,a48,5,3.0,0.0,21.097,1,1
0d2k1d6l575zu9b9qntyusym,7,0,a49,6,6.0,1.0,14.734,1,1
0d2k1d6l575zu9b9qntyusym,8,0,a53,0,0.0,1.0,10.2,1,1
0d2k1d6l575zu9b9qntyusym,9,0,a55,1,1.0,1.0,26.399,1,1
0hq9i9kgzqo0g7tid31bnu3i,1,0,a11,4,4.0,1.0,13.528,1,1
0hq9i9kgzqo0g7tid31bnu3i,2,0,a24,4,4.0,1.0,10.334,1,1
0hq9i9kgzqo0g7tid31bnu3i,3,0,a28,7,7.0,1.0,5.458,1,1
0hq9i9kgzqo0g7tid31bnu3i,4,0,a36,1,1.0,1.0,19.085,1,1
0hq9i9kgzqo0g7tid31bnu3i,5,0,a43,4,4.0,1.0,14.648,1,1
0hq9i9kgzqo0g7tid31bnu3i,6,0,a48,5,5.0,1.0,13.334,1,1
0hq9i9kgzqo0g7tid31bnu3i,7,0,a49,6,6.0,1.0,4.598,1,1
0hq9i9kgzqo0g7tid31bnu3i,8,0,a53,0,0.0,1.0,22.383,1,1
0hq9i9kgzqo0g7tid31bnu3i,9,0,a55,1,6.0,0.0,13.009,1,1
0hyzm81by1o1277t5zyxb36x,1,0,a11,4,4.0,1.0,17.531,1,1
0hyzm81by1o1277t5zyxb36x,2,0,a24,4,4.0,1.0,12.348,1,1
0hyzm81by1o1277t5zyxb36x,3,0,a28,7,7.0,1.0,12.699,1,1
0hyzm81by1o1277t5zyxb36x,4,0,a36,1,1.0,1.0,21.643,1,1
0hyzm81by1o1277t5zyxb36x,5,0,a43,4,4.0,1.0,17.732,1,1
0hyzm81by1o1277t5zyxb36x,6,0,a48,5,6.0,0.0,23.117,1,1
0hyzm81by1o1277t5zyxb36x,7,0,a49,6,6.0,1.0,12.932,1,1
0hyzm81by1o1277t5zyxb36x,8,0,a53,0,6.0,0.0,16.996,1,1
0hyzm81by1o1277t5zyxb36x,9,0,a55,1,0.0,0.0,29.988,1,1
0kq7fvgpezd7c2ugltf9v8il,1,0,a11,4,0.0,0.0,6.295,1,1
0kq7fvgpezd7c2ugltf9v8il,2,0,a24,4,4.0,1.0,10.294,1,1
0kq7fvgpezd7c2ugltf9v8il,3,0,a28,7,7.0,1.0,11.474,1,1
0kq7fvgpezd7c2ugltf9v8il,4,0,a36,1,7.0,0.0,8.722,1,1
0kq7fvgpezd7c2ugltf9v8il,5,0,a43,4,4.0,1.0,15.562,1,1
0kq7fvgpezd7c2ugltf9v8il,6,0,a48,5,0.0,0.0,11.114,1,1
0kq7fvgpezd7c2ugltf9v8il,7,0,a49,6,4.0,0.0,27.118,1,1
0kq7fvgpezd7c2ugltf9v8il,8,0,a53,0,0.0,1.0,5.482,1,1
0kq7fvgpezd7c2ugltf9v8il,9,0,a55,1,2.0,0.0,25.977,1,1
0xw4hsydjiw8n5x9emapoyfs,1,0,a11,4,5.0,0.0,7.738,1,1
0xw4hsydjiw8n5x9emapoyfs,2,0,a24,4,0.0,0.0,14.167,1,1
0xw4hsydjiw8n5x9emapoyfs,3,0,a28,7,3.0,0.0,8.036,1,1
0xw4hsydjiw8n5x9emapoyfs,4,0,a36,1,3.0,0.0,14.542,1,1
0xw4hsydjiw8n5x9emapoyfs,5,0,a43,4,4.0,1.0,24.571,1,1
0xw4hsydjiw8n5x9emapoyfs,6,0,a48,5,0.0,0.0,27.392,1,1
0xw4hsydjiw8n5x9emapoyfs,7,0,a49,6,6.0,1.0,13.394,1,1
0xw4hsydjiw8n5x9emapoyfs,8,0,a53,0,0.0,1.0,13.362,1,1
0xw4hsydjiw8n5x9emapoyfs,9,0,a55,1,6.0,0.0,20.497,1,1
0xzatwpgdlc9c9yh507r49d9,1,0,a11,4,4.0,1.0,11.467,1,1
0xzatwpgdlc9c9yh507r49d9,2,0,a24,4,4.0,1.0,10.468,1,1
0xzatwpgdlc9c9yh507r49d9,3,0,a28,7,7.0,1.0,13.256,1,1
0xzatwpgdlc9c9yh507r49d9,4,0,a36,1,0.0,0.0,28.185,1,1
0xzatwpgdlc9c9yh507r49d9,5,0,a43,4,4.0,1.0,18.418,1,1
0xzatwpgdlc9c9yh507r49d9,6,0,a48,5,,,,1,1
0xzatwpgdlc9c9yh507r49d9,7,0,a49,6,6.0,1.0,13.185,1,1
0xzatwpgdlc9c9yh507r49d9,8,0,a53,0,0.0,1.0,12.259,1,1
0xzatwpgdlc9c9yh507r49d9,9,0,a55,1,7.0,0.0,10.447,1,1
0y65ye74hdib59v4cgafca9a,1,0,a11,4,4.0,1.0,7.089,1,1
0y65ye74hdib59v4cgafca9a,2,0,a24,4,3.0,0.0,4.594,1,1
0y65ye74hdib59v4cgafca9a,3,0,a28,7,3.0,0.0,10.154,1,1
0y65ye74hdib59v4cgafca9a,4,0,a36,1,2.0,0.0,11.586,1,1
0y65ye74hdib59v4cgafca9a,5,0,a43,4,4.0,1.0,2.227,1,1
0y65ye74hdib59v4cgafca9a,6,0,a48,5,1.0,0.0,7.251,1,1
0y65ye74hdib59v4cgafca9a,7,0,a49,6,0.0,0.0,4.076,1,1
0y65ye74hdib59v4cgafca9a,8,0,a53,0,6.0,0.0,3.146,1,1
0y65ye74hdib59v4cgafca9a,9,0,a55,1,3.0,0.0,4.835,1,1
16r587c254747psrx93n4r9k,1,0,a11,4,2.0,0.0,10.477,1,1
16r587c254747psrx93n4r9k,2,0,a24,4,4.0,1.0,13.849,1,1
16r587c254747psrx93n4r9k,3,0,a28,7,7.0,1.0,17.523,1,1
16r587c254747psrx93n4r9k,4,0,a36,1,2.0,0.0,14.776,1,1
16r587c254747psrx93n4r9k,5,0,a43,4,4.0,1.0,18.185,1,1
16r587c254747psrx93n4r9k,6,0,a48,5,1.0,0.0,22.523,1,1
16r587c254747psrx93n4r9k,7,0,a49,6,6.0,1.0,12.32,1,1
16r587c254747psrx93n4r9k,8,0,a53,0,3.0,0.0,15.311,1,1
16r587c254747psrx93n4r9k,9,0,a55,1,6.0,0.0,20.997,1,1
1be65lu7yhotwchl8gvst0jl,1,0,a11,4,4.0,1.0,13.116,1,1
1be65lu7yhotwchl8gvst0jl,2,0,a24,4,4.0,1.0,16.293,1,1
1be65lu7yhotwchl8gvst0jl,3,0,a28,7,7.0,1.0,10.987,1,1
1be65lu7yhotwchl8gvst0jl,4,0,a36,1,2.0,0.0,16.448,1,1
1be65lu7yhotwchl8gvst0jl,5,0,a43,4,4.0,1.0,25.768,1,1
1be65lu7yhotwchl8gvst0jl,6,0,a48,5,1.0,0.0,14.384,1,1
1be65lu7yhotwchl8gvst0jl,7,0,a49,6,2.0,0.0,7.558,1,1
1be65lu7yhotwchl8gvst0jl,8,0,a53,0,0.0,1.0,5.368,1,1
1be65lu7yhotwchl8gvst0jl,9,0,a55,1,2.0,0.0,24.631,1,1
1cmg7lirmlytme6rm23kfrkx,1,0,a11,4,4.0,1.0,6.899,1,1
1cmg7lirmlytme6rm23kfrkx,2,0,a24,4,0.0,0.0,8.558,1,1
1cmg7lirmlytme6rm23kfrkx,3,0,a28,7,7.0,1.0,6.366,1,1
1cmg7lirmlytme6rm23kfrkx,4,0,a36,1,1.0,1.0,6.862,1,1
1cmg7lirmlytme6rm23kfrkx,5,0,a43,4,7.0,0.0,15.772,1,1
1cmg7lirmlytme6rm23kfrkx,6,0,a48,5,1.0,0.0,12.668,1,1
1cmg7lirmlytme6rm23kfrkx,7,0,a49,6,6.0,1.0,9.55,1,1
1cmg7lirmlytme6rm23kfrkx,8,0,a53,0,6.0,0.0,6.085,1,1
1cmg7lirmlytme6rm23kfrkx,9,0,a55,1,6.0,0.0,9.27,1,1
1du2rpx4zm9oyr4l38kx9gda,1,0,a11,4,5.0,0.0,8.792,1,1
1du2rpx4zm9oyr4l38kx9gda,2,0,a24,4,4.0,1.0,16.278,1,1
1du2rpx4zm9oyr4l38kx9gda,3,0,a28,7,7.0,1.0,12.056,1,1
1du2rpx4zm9oyr4l38kx9gda,4,0,a36,1,0.0,0.0,9.285,1,1
1du2rpx4zm9oyr4l38kx9gda,5,0,a43,4,4.0,1.0,7.265,1,1
1du2rpx4zm9oyr4l38kx9gda,6,0,a48,5,7.0,0.0,4.512,1,1
1du2rpx4zm9oyr4l38kx9gda,7,0,a49,6,6.0,1.0,7.339,1,1
1du2rpx4zm9oyr4l38kx9gda,8,0,a53,0,3.0,0.0,4.428,1,1
1du2rpx4zm9oyr4l38kx9gda,9,0,a55,1,3.0,0.0,7.068,1,1
1fb39af23lxd5zvebkgzvjtq,1,0,a11,4,5.0,0.0,15.783,1,1
1fb39af23lxd5zvebkgzvjtq,2,0,a24,4,4.0,1.0,16.563,1,1
1fb39af23lxd5zvebkgzvjtq,3,0,a28,7,7.0,1.0,9.433,1,1
1fb39af23lxd5zvebkgzvjtq,4,0,a36,1,3.0,0.0,17.442,1,1
1fb39af23lxd5zvebkgzvjtq,5,0,a43,4,4.0,1.0,15.168,1,1
1fb39af23lxd5zvebkgzvjtq,6,0,a48,5,6.0,0.0,22.837,1,1
1fb39af23lxd5zvebkgzvjtq,7,0,a49,6,6.0,1.0,7.179,1,1
1fb39af23lxd5zvebkgzvjtq,8,0,a53,0,0.0,1.0,14.757,1,1
1fb39af23lxd5zvebkgzvjtq,9,0,a55,1,3.0,0.0,8.586,1,1
1rkzphe3y3v1tllwtrrmws3g,1,0,a11,4,4.0,1.0,21.194,1,1
1rkzphe3y3v1tllwtrrmws3g,2,0,a24,4,4.0,1.0,25.796,1,1
1rkzphe3y3v1tllwtrrmws3g,3,0,a28,7,7.0,1.0,17.514,1,1
1rkzphe3y3v1tllwtrrmws3g,4,0,a36,1,4.0,0.0,28.934,1,1
1rkzphe3y3v1tllwtrrmws3g,5,0,a43,4,4.0,1.0,16.613,1,1
1rkzphe3y3v1tllwtrrmws3g,6,0,a48,5,7.0,0.0,29.898,1,1
1rkzphe3y3v1tllwtrrmws3g,7,0,a49,6,6.0,1.0,11.323,1,1
1rkzphe3y3v1tllwtrrmws3g,8,0,a53,0,0.0,1.0,22.468,1,1
1rkzphe3y3v1tllwtrrmws3g,9,0,a55,1,6.0,0.0,22.061,1,1
25ag8leq4xte4p6bd5mc76en,1,0,a11,4,4.0,1.0,7.727,1,1
25ag8leq4xte4p6bd5mc76en,2,0,a24,4,3.0,0.0,7.645,1,1
25ag8leq4xte4p6bd5mc76en,3,0,a28,7,7.0,1.0,3.454,1,1
25ag8leq4xte4p6bd5mc76en,4,0,a36,1,5.0,0.0,6.612,1,1
25ag8leq4xte4p6bd5mc76en,5,0,a43,4,4.0,1.0,13.53,1,1
25ag8leq4xte4p6bd5mc76en,6,0,a48,5,0.0,0.0,4.362,1,1
25ag8leq4xte4p6bd5mc76en,7,0,a49,6,6.0,1.0,4.717,1,1
25ag8leq4xte4p6bd5mc76en,8,0,a53,0,3.0,0.0,5.469,1,1
25ag8leq4xte4p6bd5mc76en,9,0,a55,1,6.0,0.0,2.599,1,1
2a49tpjstnyonnrf4g8koc0m,1,0,a11,4,0.0,0.0,6.962,1,1
2a49tpjstnyonnrf4g8koc0m,2,0,a24,4,4.0,1.0,6.45,1,1
2a49tpjstnyonnrf4g8koc0m,3,0,a28,7,3.0,0.0,10.993,1,1
2a49tpjstnyonnrf4g8koc0m,4,0,a36,1,0.0,0.0,9.988,1,1
2a49tpjstnyonnrf4g8koc0m,5,0,a43,4,4.0,1.0,13.742,1,1
2a49tpjstnyonnrf4g8koc0m,6,0,a48,5,6.0,0.0,11.477,1,1
2a49tpjstnyonnrf4g8koc0m,7,0,a49,6,6.0,1.0,10.292,1,1
2a49tpjstnyonnrf4g8koc0m,8,0,a53,0,6.0,0.0,8.256,1,1
2a49tpjstnyonnrf4g8koc0m,9,0,a55,1,7.0,0.0,11.086,1,1
2ajy8k3cd8e5h9puf8o17lyo,1,0,a11,4,4.0,1.0,14.027,1,1
2ajy8k3cd8e5h9puf8o17lyo,2,0,a24,4,4.0,1.0,9.303,1,1
2ajy8k3cd8e5h9puf8o17lyo,3,0,a28,7,7.0,1.0,5.37,1,1
2ajy8k3cd8e5h9puf8o17lyo,4,0,a36,1,1.0,1.0,8.013,1,1
2ajy8k3cd8e5h9puf8o17lyo,5,0,a43,4,4.0,1.0,27.01,1,1
2ajy8k3cd8e5h9puf8o17lyo,6,0,a48,5,5.0,1.0,27.902,1,1
2ajy8k3cd8e5h9puf8o17lyo,7,0,a49,6,6.0,1.0,3.751,1,1
2ajy8k3cd8e5h9puf8o17lyo,8,0,a53,0,0.0,1.0,4.764,1,1
2ajy8k3cd8e5h9puf8o17lyo,9,0,a55,1,,,,1,1
2doyyzx80ym5y1nn9cuc5dgg,1,0,a11,4,4.0,1.0,18.192,1,1
2doyyzx80ym5y1nn9cuc5dgg,2,0,a24,4,4.0,1.0,13.448,1,1
2doyyzx80ym5y1nn9cuc5dgg,3,0,a28,7,7.0,1.0,8.562,1,1
2doyyzx80ym5y1nn9cuc5dgg,4,0,a36,1,2.0,0.0,13.306,1,1
2doyyzx80ym5y1nn9cuc5dgg,5,0,a43,4,4.0,1.0,10.57,1,1
2doyyzx80ym5y1nn9cuc5dgg,6,0,a48,5,3.0,0.0,20.682,1,1
2doyyzx80ym5y1nn9cuc5dgg,7,0,a49,6,6.0,1.0,5.284,1,1
2doyyzx80ym5y1nn9cuc5dgg,8,0,a53,0,0.0,1.0,16.69,1,1
2doyyzx80ym5y1nn9cuc5dgg,9,0,a55,1,2.0,0.0,12.953,1,1
2fdg3adknlqvzqcaveryv2f4,1,0,a11,4,4.0,1.0,14.791,1,1
2fdg3adknlqvzqcaveryv2f4,2,0,a24,4,4.0,1.0,7.682,1,1
2fdg3adknlqvzqcaveryv2f4,3,0,a28,7,7.0,1.0,10.057,1,1
2fdg3adknlqvzqcaveryv2f4,4,0,a36,1,5.0,0.0,15.203,1,1
2fdg3adknlqvzqcaveryv2f4,5,0,a43,4,4.0,1.0,16.489,1,1
2fdg3adknlqvzqcaveryv2f4,6,0,a48,5,5.0,1.0,23.847,1,1
2fdg3adknlqvzqcaveryv2f4,7,0,a49,6,0.0,0.0,22.732,1,1
2fdg3adknlqvzqcaveryv2f4,8,0,a53,0,2.0,0.0,21.715,1,1
2fdg3adknlqvzqcaveryv2f4,9,0,a55,1,6.0,0.0,13.706,1,1
2hpq13v4pj9yflupdr03my7p,1,0,a11,4,5.0,0.0,5.889,1,1
2hpq13v4pj9yflupdr03my7p,2,0,a24,4,5.0,0.0,4.021,1,1
2hpq13v4pj9yflupdr03my7p,3,0,a28,7,7.0,1.0,4.818,1,1
2hpq13v4pj9yflupdr03my7p,4,0,a36,1,2.0,0.0,6.451,1,1
2hpq13v4pj9yflupdr03my7p,5,0,a43,4,4.0,1.0,7.769,1,1
2hpq13v4pj9yflupdr03my7p,6,0,a48,5,0.0,0.0,5.079,1,1
2hpq13v4pj9yflupdr03my7p,7,0,a49,6,6.0,1.0,5.644,1,1
2hpq13v4pj9yflupdr03my7p,8,0,a53,0,6.0,0.0,5.511,1,1
2hpq13v4pj9yflupdr03my7p,9,0,a55,1,6.0,0.0,3.157,1,1
2imrcuofmk3r36n5luaqtkof,1,0,a11,4,0.0,0.0,5.382,1,1
2imrcuofmk3r36n5luaqtkof,2,0,a24,4,4.0,1.0,4.476,1,1
2imrcuofmk3r36n5luaqtkof,3,0,a28,7,7.0,1.0,7.674,1,1
2imrcuofmk3r36n5luaqtkof,4,0,a36,1,2.0,0.0,5.982,1,1
2imrcuofmk3r36n5luaqtkof,5,0,a43,4,4.0,1.0,23.421,1,1
2imrcuofmk3r36n5luaqtkof,6,0,a48,5,5.0,1.0,23.109,1,1
2imrcuofmk3r36n5luaqtkof,7,0,a49,6,6.0,1.0,12.861,1,1
2imrcuofmk3r36n5luaqtkof,8,0,a53,0,0.0,1.0,7.38,1,1
2imrcuofmk3r36n5luaqtkof,9,0,a55,1,5.0,0.0,29.108,1,1
2jlme8pijrvlpefy54ynuym2,1,0,a11,4,4.0,1.0,13.97,1,1
2jlme8pijrvlpefy54ynuym2,2,0,a24,4,4.0,1.0,16.558,1,1
2jlme8pijrvlpefy54ynuym2,3,0,a28,7,2.0,0.0,9.47,1,1
2jlme8pijrvlpefy54ynuym2,4,0,a36,1,2.0,0.0,16.305,1,1
2jlme8pijrvlpefy54ynuym2,5,0,a43,4,4.0,1.0,17.15,1,1
2jlme8pijrvlpefy54ynuym2,6,0,a48,5,6.0,0.0,28.195,1,1
2jlme8pijrvlpefy54ynuym2,7,0,a49,6,6.0,1.0,8.661,1,1
2jlme8pijrvlpefy54ynuym2,8,0,a53,0,0.0,1.0,13.135,1,1
2jlme8pijrvlpefy54ynuym2,9,0,a55,1,3.0,0.0,24.732,1,1
2lv7bshw3ztkhd2hpg8vy7ls,1,0,a11,4,0.0,0.0,9.094,1,1
2lv7bshw3ztkhd2hpg8vy7ls,2,0,a24,4,5.0,0.0,13.809,1,1
2lv7bshw3ztkhd2hpg8vy7ls,3,0,a28,7,3.0,0.0,21.187,1,1
2lv7bshw3ztkhd2hpg8vy7ls,4,0,a36,1,3.0,0.0,15.777,1,1
2lv7bshw3ztkhd2hpg8vy7ls,5,0,a43,4,4.0,1.0,16.861,1,1
2lv7bshw3ztkhd2hpg8vy7ls,6,0,a48,5,4.0,0.0,14.243,1,1
2lv7bshw3ztkhd2hpg8vy7ls,7,0,a49,6,6.0,1.0,8.21,1,1
2lv7bshw3ztkhd2hpg8vy7ls,8,0,a53,0,0.0,1.0,19.474,1,1
2lv7bshw3ztkhd2hpg8vy7ls,9,0,a55,1,1.0,1.0,8.853,1,1
2p6npsmiutpl2uy7hh6cmuqp,1,0,a11,4,1.0,0.0,7.791,1,1
2p6npsmiutpl2uy7hh6cmuqp,2,0,a24,4,4.0,1.0,6.31,1,1
2p6npsmiutpl2uy7hh6cmuqp,3,0,a28,7,3.0,0.0,6.396,1,1
2p6npsmiutpl2uy7hh6cmuqp,4,0,a36,1,4.0,0.0,10.901,1,1
2p6npsmiutpl2uy7hh6cmuqp,5,0,a43,4,4.0,1.0,8.005,1,1
2p6npsmiutpl2uy7hh6cmuqp,6,0,a48,5,5.0,1.0,15.008,1,1
2p6npsmiutpl2uy7hh6cmuqp,7,0,a49,6,6.0,1.0,9.742,1,1
2p6npsmiutpl2uy7hh6cmuqp,8,0,a53,0,0.0,1.0,6.928,1,1
2p6npsmiutpl2uy7hh6cmuqp,9,0,a55,1,4.0,0.0,19.507,1,1
2u17wfoovfto4iks011dibw7,1,0,a11,4,4.0,1.0,15.526,1,1
2u17wfoovfto4iks011dibw7,2,0,a24,4,0.0,0.0,12.689,1,1
2u17wfoovfto4iks011dibw7,3,0,a28,7,7.0,1.0,7.305,1,1
2u17wfoovfto4iks011dibw7,4,0,a36,1,2.0,0.0,9.69,1,1
2u17wfoovfto4iks011dibw7,5,0,a43,4,4.0,1.0,9.226,1,1
2u17wfoovfto4iks011dibw7,6,0,a48,5,5.0,1.0,18.614,1,1
2u17wfoovfto4iks011dibw7,7,0,a49,6,6.0,1.0,2.938,1,1
2u17wfoovfto4iks011dibw7,8,0,a53,0,0.0,1.0,7.642,1,1
2u17wfoovfto4iks011dibw7,9,0,a55,1,0.0,0.0,16.578,1,1
2ydcu5breoenaqer3phmkei3,1,0,a11,4,4.0,1.0,6.482,1,1
2ydcu5breoenaqer3phmkei3,2,0,a24,4,4.0,1.0,5.365,1,1
2ydcu5breoenaqer3phmkei3,3,0,a28,7,7.0,1.0,13.216,1,1
2ydcu5breoenaqer3phmkei3,4,0,a36,1,3.0,0.0,8.555,1,1
2ydcu5breoenaqer3phmkei3,5,0,a43,4,4.0,1.0,10.33,1,1
2ydcu5breoenaqer3phmkei3,6,0,a48,5,1.0,0.0,11.809,1,1
2ydcu5breoenaqer3phmkei3,7,0,a49,6,6.0,1.0,5.975,1,1
2ydcu5breoenaqer3phmkei3,8,0,a53,0,0.0,1.0,7.339,1,1
2ydcu5breoenaqer3phmkei3,9,0,a55,1,1.0,1.0,12.409,1,1
36t8q1lrjomfk5vzpk6n47vp,1,0,a11,4,3.0,0.0,9.744,1,1
36t8q1lrjomfk5vzpk6n47vp,2,0,a24,4,5.0,0.0,6.766,1,1
36t8q1lrjomfk5vzpk6n47vp,3,0,a28,7,7.0,1.0,8.477,1,1
36t8q1lrjomfk5vzpk6n47vp,4,0,a36,1,2.0,0.0,17.442,1,1
36t8q1lrjomfk5vzpk6n47vp,5,0,a43,4,4.0,1.0,21.576,1,1
36t8q1lrjomfk5vzpk6n47vp,6,0,a48,5,3.0,0.0,10.127,1,1
36t8q1lrjomfk5vzpk6n47vp,7,0,a49,6,6.0,1.0,10.271,1,1
36t8q1lrjomfk5vzpk6n47vp,8,0,a53,0,2.0,0.0,5.682,1,1
36t8q1lrjomfk5vzpk6n47vp,9,0,a55,1,3.0,0.0,3.61,1,1
3z65j3k5x0e6gfdasssf2ddo,1,0,a11,4,4.0,1.0,9.392,1,1
3z65j3k5x0e6gfdasssf2ddo,2,0,a24,4,4.0,1.0,18.582,1,1
3z65j3k5x0e6gfdasssf2ddo,3,0,a28,7,7.0,1.0,12.031,1,1
3z65j3k5x0e6gfdasssf2ddo,4,0,a36,1,2.0,0.0,28.992,1,1
3z65j3k5x0e6gfdasssf2ddo,5,0,a43,4,4.0,1.0,7.448,1,1
3z65j3k5x0e6gfdasssf2ddo,6,0,a48,5,7.0,0.0,16.781,1,1
3z65j3k5x0e6gfdasssf2ddo,7,0,a49,6,6.0,1.0,7.594,1,1
3z65j3k5x0e6gfdasssf2ddo,8,0,a53,0,0.0,1.0,15.9,1,1
3z65j3k5x0e6gfdasssf2ddo,9,0,a55,1,6.0,0.0,26.931,1,1
49ymqsd9j5092q04edq7w6gm,1,0,a11,4,0.0,0.0,12.633,1,1
49ymqsd9j5092q04edq7w6gm,2,0,a24,4,0.0,0.0,5.743,1,1
49ymqsd9j5092q04edq7w6gm,3,0,a28,7,7.0,1.0,11.154,1,1
49ymqsd9j5092q04edq7w6gm,4,0,a36,1,0.0,0.0,18.933,1,1
49ymqsd9j5092q04edq7w6gm,5,0,a43,4,0.0,0.0,6.858,1,1
49ymqsd9j5092q04edq7w6gm,6,0,a48,5,3.0,0.0,26.265,1,1
49ymqsd9j5092q04edq7w6gm,7,0,a49,6,0.0,0.0,6.864,1,1
49ymqsd9j5092q04edq7w6gm,8,0,a53,0,2.0,0.0,12.804,1,1
49ymqsd9j5092q04edq7w6gm,9,0,a55,1,3.0,0.0,9.126,1,1
4befqnrylgwx3gxshaax7hwa,1,0,a11,4,4.0,1.0,10.542,1,1
4befqnrylgwx3gxshaax7hwa,2,0,a24,4,4.0,1.0,13.442,1,1
4befqnrylgwx3gxshaax7hwa,3,0,a28,7,2.0,0.0,5.938,1,1
4befqnrylgwx3gxshaax7hwa,4,0,a36,1,1.0,1.0,14.453,1,1
4befqnrylgwx3gxshaax7hwa,5,0,a43,4,4.0,1.0,9.687,1,1
4befqnrylgwx3gxshaax7hwa,6,0,a48,5,3.0,0.0,16.735,1,1
4befqnrylgwx3gxshaax7hwa,7,0,a49,6,6.0,1.0,6.954,1,1
4befqnrylgwx3gxshaax7hwa,8,0,a53,0,0.0,1.0,5.92,1,1
4befqnrylgwx3gxshaax7hwa,9,0,a55,1,4.0,0.0,16.984,1,1
4lo2jkap3pxbifsbagvf3h7j,1,0,a11,4,4.0,1.0,9.731,1,1
4lo2jkap3pxbifsbagvf3h7j,2,0,a24,4,4.0,1.0,8.325,1,1
4lo2jkap3pxbifsbagvf3h7j,3,0,a28,7,7.0,1.0,8.692,1,1
4lo2jkap3pxbifsbagvf3h7j,4,0,a36,1,2.0,0.0,19.355,1,1
4lo2jkap3pxbifsbagvf3h7j,5,0,a43,4,4.0,1.0,17.603,1,1
4lo2jkap3pxbifsbagvf3h7j,6,0,a48,5,7.0,0.0,24.893,1,1
4lo2jkap3pxbifsbagvf3h7j,7,0,a49,6,6.0,1.0,4.557,1,1
4lo2jkap3pxbifsbagvf3h7j,8,0,a53,0,5.0,0.0,16.66,1,1
4lo2jkap3pxbifsbagvf3h7j,9,0,a55,1,6.0,0.0,21.292,1,1
5dj0z4d9nqg0ibe4b8kmckej,1,0,a11,4,4.0,1.0,20.655,1,1
5dj0z4d9nqg0ibe4b8kmckej,2,0,a24,4,4.0,1.0,11.539,1,1
5dj0z4d9nqg0ibe4b8kmckej,3,0,a28,7,7.0,1.0,14.678,1,1
5dj0z4d9nqg0ibe4b8kmckej,4,0,a36,1,1.0,1.0,18.45,1,1
5dj0z4d9nqg0ibe4b8kmckej,5,0,a43,4,4.0,1.0,11.067,1,1
5dj0z4d9nqg0ibe4b8kmckej,6,0,a48,5,,,,1,1
5dj0z4d9nqg0ibe4b8kmckej,7,0,a49,6,6.0,1.0,16.125,1,1
5dj0z4d9nqg0ibe4b8kmckej,8,0,a53,0,0.0,1.0,13.245,1,1
5dj0z4d9nqg0ibe4b8kmckej,9,0,a55,1,7.0,0.0,29.492,1,1
5dx4h0naks6kja60m6uaz1tb,1,0,a11,4,3.0,0.0,17.684,1,1
5dx4h0naks6kja60m6uaz1tb,2,0,a24,4,4.0,1.0,15.432,1,1
5dx4h0naks6kja60m6uaz1tb,3,0,a28,7,7.0,1.0,25.353,1,1
5dx4h0naks6kja60m6uaz1tb,4,0,a36,1,2.0,0.0,28.406,1,1
5dx4h0naks6kja60m6uaz1tb,5,0,a43,4,4.0,1.0,19.366,1,1
5dx4h0naks6kja60m6uaz1tb,6,0,a48,5,5.0,1.0,28.36,1,1
5dx4h0naks6kja60m6uaz1tb,7,0,a49,6,2.0,0.0,12.118,1,1
5dx4h0naks6kja60m6uaz1tb,8,0,a53,0,4.0,0.0,26.581,1,1
5dx4h0naks6kja60m6uaz1tb,9,0,a55,1,4.0,0.0,27.615,1,1
5jyqnu1ltb66722yzsldztcv,1,0,a11,4,4.0,1.0,17.521,1,1
5jyqnu1ltb66722yzsldztcv,2,0,a24,4,4.0,1.0,13.464,1,1
5jyqnu1ltb66722yzsldztcv,3,0,a28,7,7.0,1.0,16.087,1,1
5jyqnu1ltb66722yzsldztcv,4,0,a36,1,2.0,0.0,21.127,1,1
5jyqnu1ltb66722yzsldztcv,5,0,a43,4,4.0,1.0,13.136,1,1
5jyqnu1ltb66722yzsldztcv,6,0,a48,5,6.0,0.0,19.199,1,1
5jyqnu1ltb66722yzsldztcv,7,0,a49,6,2.0,0.0,9.121,1,1
5jyqnu1ltb66722yzsldztcv,8,0,a53,0,0.0,1.0,5.671,1,1
5jyqnu1ltb66722yzsldztcv,9,0,a55,1,6.0,0.0,24.281,1,1
5lhsgo4nsy5chl7poenx8glj,1,0,a11,4,4.0,1.0,9.554,0,1
5lhsgo4nsy5chl7poenx8glj,2,0,a24,4,5.0,0.0,15.402,0,1
5lhsgo4nsy5chl7poenx8glj,3,0,a28,7,7.0,1.0,2.846,0,1
5lhsgo4nsy5chl7poenx8glj,4,0,a36,1,5.0,0.0,11.268,0,1
5lhsgo4nsy5chl7poenx8glj,5,0,a43,4,4.0,1.0,8.805,0,1
5lhsgo4nsy5chl7poenx8glj,6,0,a48,5,4.0,0.0,12.335,0,1
5lhsgo4nsy5chl7poenx8glj,7,0,a49,6,0.0,0.0,25.717,0,1
5lhsgo4nsy5chl7poenx8glj,8,0,a53,0,3.0,0.0,7.268,0,1
5lhsgo4nsy5chl7poenx8glj,9,0,a55,1,0.0,0.0,1.199,0,1
5nrm5hqpgawjakat3lrpqddc,1,0,a11,4,4.0,1.0,19.0,1,1
5nrm5hqpgawjakat3lrpqddc,2,0,a24,4,4.0,1.0,11.743,1,1
5nrm5hqpgawjakat3lrpqddc,3,0,a28,7,7.0,1.0,8.394,1,1
5nrm5hqpgawjakat3lrpqddc,4,0,a36,1,3.0,0.0,14.041,1,1
5nrm5hqpgawjakat3lrpqddc,5,0,a43,4,,,,1,1
5nrm5hqpgawjakat3lrpqddc,6,0,a48,5,7.0,0.0,13.836,1,1
5nrm5hqpgawjakat3lrpqddc,7,0,a49,6,6.0,1.0,16.218,1,1
5nrm5hqpgawjakat3lrpqddc,8,0,a53,0,0.0,1.0,9.621,1,1
5nrm5hqpgawjakat3lrpqddc,9,0,a55,1,2.0,0.0,11.582,1,1
5z17417xklar8vlhao0hmh81,1,0,a11,4,0.0,0.0,7.144,1,1
5z17417xklar8vlhao0hmh81,2,0,a24,4,4.0,1.0,20.608,1,1
5z17417xklar8vlhao0hmh81,3,0,a28,7,2.0,0.0,9.817,1,1
5z17417xklar8vlhao0hmh81,4,0,a36,1,0.0,0.0,21.176,1,1
5z17417xklar8vlhao0hmh81,5,0,a43,4,4.0,1.0,11.608,1,1
5z17417xklar8vlhao0hmh81,6,0,a48,5,3.0,0.0,15.642,1,1
5z17417xklar8vlhao0hmh81,7,0,a49,6,6.0,1.0,7.139,1,1
5z17417xklar8vlhao0hmh81,8,0,a53,0,0.0,1.0,25.506,1,1
5z17417xklar8vlhao0hmh81,9,0,a55,1,2.0,0.0,10.372,1,1
62z9cnxo71p0docgan22lux0,1,0,a11,4,4.0,1.0,15.424,1,1
62z9cnxo71p0docgan22lux0,2,0,a24,4,4.0,1.0,16.905,1,1
62z9cnxo71p0docgan22lux0,3,0,a28,7,7.0,1.0,7.51,1,1
62z9cnxo71p0docgan22lux0,4,0,a36,1,2.0,0.0,22.637,1,1
62z9cnxo71p0docgan22lux0,5,0,a43,4,7.0,0.0,26.604,1,1
62z9cnxo71p0docgan22lux0,6,0,a48,5,6.0,0.0,16.891,1,1
62z9cnxo71p0docgan22lux0,7,0,a49,6,5.0,0.0,17.186,1,1
62z9cnxo71p0docgan22lux0,8,0,a53,0,0.0,1.0,22.057,1,1
62z9cnxo71p0docgan22lux0,9,0,a55,1,3.0,0.0,25.919,1,1
63cb08yaktqmqkixxkihvnm1,1,0,a11,4,0.0,0.0,4.263,1,1
63cb08yaktqmqkixxkihvnm1,2,0,a24,4,1.0,0.0,7.434,1,1
63cb08yaktqmqkixxkihvnm1,3,0,a28,7,7.0,1.0,4.741,1,1
63cb08yaktqmqkixxkihvnm1,4,0,a36,1,2.0,0.0,12.434,1,1
63cb08yaktqmqkixxkihvnm1,5,0,a43,4,4.0,1.0,5.945,1,1
63cb08yaktqmqkixxkihvnm1,6,0,a48,5,1.0,0.0,4.467,1,1
63cb08yaktqmqkixxkihvnm1,7,0,a49,6,6.0,1.0,4.177,1,1
63cb08yaktqmqkixxkihvnm1,8,0,a53,0,0.0,1.0,4.547,1,1
63cb08yaktqmqkixxkihvnm1,9,0,a55,1,6.0,0.0,16.551,1,1
64l3mcrhtvft9ihly8wv8qil,1,0,a11,4,4.0,1.0,13.008,1,1
64l3mcrhtvft9ihly8wv8qil,2,0,a24,4,4.0,1.0,12.977,1,1
64l3mcrhtvft9ihly8wv8qil,3,0,a28,7,3.0,0.0,10.652,1,1
64l3mcrhtvft9ihly8wv8qil,4,0,a36,1,2.0,0.0,18.969,1,1
64l3mcrhtvft9ihly8wv8qil,5,0,a43,4,,,,1,1
64l3mcrhtvft9ihly8wv8qil,6,0,a48,5,6.0,0.0,27.566,1,1
64l3mcrhtvft9ihly8wv8qil,7,0,a49,6,6.0,1.0,6.969,1,1
64l3mcrhtvft9ihly8wv8qil,8,0,a53,0,6.0,0.0,11.459,1,1
64l3mcrhtvft9ihly8wv8qil,9,0,a55,1,6.0,0.0,10.38,1,1
6aa7cq97dyyx549e15dk59zg,1,0,a11,4,4.0,1.0,7.671,1,1
6aa7cq97dyyx549e15dk59zg,2,0,a24,4,5.0,0.0,3.308,1,1
6aa7cq97dyyx549e15dk59zg,3,0,a28,7,7.0,1.0,2.844,1,1
6aa7cq97dyyx549e15dk59zg,4,0,a36,1,5.0,0.0,3.602,1,1
6aa7cq97dyyx549e15dk59zg,5,0,a43,4,6.0,0.0,12.14,1,1
6aa7cq97dyyx549e15dk59zg,6,0,a48,5,4.0,0.0,8.111,1,1
6aa7cq97dyyx549e15dk59zg,7,0,a49,6,6.0,1.0,11.2,1,1
6aa7cq97dyyx549e15dk59zg,8,0,a53,0,0.0,1.0,9.394,1,1
6aa7cq97dyyx549e15dk59zg,9,0,a55,1,0.0,0.0,7.478,1,1
6f3aa5rt3iprarsp7i9ms0ny,1,0,a11,4,1.0,0.0,11.024,1,1
6f3aa5rt3iprarsp7i9ms0ny,2,0,a24,4,5.0,0.0,6.429,1,1
6f3aa5rt3iprarsp7i9ms0ny,3,0,a28,7,7.0,1.0,20.73,1,1
6f3aa5rt3iprarsp7i9ms0ny,4,0,a36,1,3.0,0.0,13.263,1,1
6f3aa5rt3iprarsp7i9ms0ny,5,0,a43,4,,,,1,1
6f3aa5rt3iprarsp7i9ms0ny,6,0,a48,5,2.0,0.0,5.929,1,1
6f3aa5rt3iprarsp7i9ms0ny,7,0,a49,6,6.0,1.0,2.984,1,1
6f3aa5rt3iprarsp7i9ms0ny,8,0,a53,0,1.0,0.0,5.358,1,1
6f3aa5rt3iprarsp7i9ms0ny,9,0,a55,1,6.0,0.0,1.846,1,1
6m8k1rargwqblxixzy1zwlhn,1,0,a11,4,4.0,1.0,19.492,1,1
6m8k1rargwqblxixzy1zwlhn,2,0,a24,4,4.0,1.0,15.859,1,1
6m8k1rargwqblxixzy1zwlhn,3,0,a28,7,7.0,1.0,10.953,1,1
6m8k1rargwqblxixzy1zwlhn,4,0,a36,1,4.0,0.0,28.044,1,1
6m8k1rargwqblxixzy1zwlhn,5,0,a43,4,1.0,0.0,21.158,1,1
6m8k1rargwqblxixzy1zwlhn,6,0,a48,5,1.0,0.0,20.468,1,1
6m8k1rargwqblxixzy1zwlhn,7,0,a49,6,6.0,1.0,14.508,1,1
6m8k1rargwqblxixzy1zwlhn,8,0,a53,0,0.0,1.0,25.514,1,1
6m8k1rargwqblxixzy1zwlhn,9,0,a55,1,6.0,0.0,22.36,1,1
7hx2rsgv0o3slq9s0g8nm0c9,1,0,a11,4,3.0,0.0,10.172,1,1
7hx2rsgv0o3slq9s0g8nm0c9,2,0,a24,4,5.0,0.0,13.372,1,1
7hx2rsgv0o3slq9s0g8nm0c9,3,0,a28,7,7.0,1.0,9.143,1,1
7hx2rsgv0o3slq9s0g8nm0c9,4,0,a36,1,4.0,0.0,21.42,1,1
7hx2rsgv0o3slq9s0g8nm0c9,5,0,a43,4,4.0,1.0,16.62,1,1
7hx2rsgv0o3slq9s0g8nm0c9,6,0,a48,5,6.0,0.0,23.852,1,1
7hx2rsgv0o3slq9s0g8nm0c9,7,0,a49,6,6.0,1.0,7.022,1,1
7hx2rsgv0o3slq9s0g8nm0c9,8,0,a53,0,1.0,0.0,13.457,1,1
7hx2rsgv0o3slq9s0g8nm0c9,9,0,a55,1,6.0,0.0,18.202,1,1
7iletsx2bi9hpppitgum2ffi,1,0,a11,4,4.0,1.0,9.627,1,1
7iletsx2bi9hpppitgum2ffi,2,0,a24,4,5.0,0.0,9.312,1,1
7iletsx2bi9hpppitgum2ffi,3,0,a28,7,6.0,0.0,4.053,1,1
7iletsx2bi9hpppitgum2ffi,4,0,a36,1,5.0,0.0,5.702,1,1
7iletsx2bi9hpppitgum2ffi,5,0,a43,4,4.0,1.0,5.828,1,1
7iletsx2bi9hpppitgum2ffi,6,0,a48,5,6.0,0.0,5.536,1,1
7iletsx2bi9hpppitgum2ffi,7,0,a49,6,3.0,0.0,4.918,1,1
7iletsx2bi9hpppitgum2ffi,8,0,a53,0,2.0,0.0,3.329,1,1
7iletsx2bi9hpppitgum2ffi,9,0,a55,1,4.0,0.0,6.698,1,1
7z8csc7zfih5pfeor0kfyt2v,1,0,a11,4,4.0,1.0,22.292,1,1
7z8csc7zfih5pfeor0kfyt2v,2,0,a24,4,,,,1,1
7z8csc7zfih5pfeor0kfyt2v,3,0,a28,7,7.0,1.0,8.339,1,1
7z8csc7zfih5pfeor0kfyt2v,4,0,a36,1,5.0,0.0,20.286,1,1
7z8csc7zfih5pfeor0kfyt2v,5,0,a43,4,4.0,1.0,9.518,1,1
7z8csc7zfih5pfeor0kfyt2v,6,0,a48,5,6.0,0.0,24.606,1,1
7z8csc7zfih5pfeor0kfyt2v,7,0,a49,6,6.0,1.0,4.59,1,1
7z8csc7zfih5pfeor0kfyt2v,8,0,a53,0,0.0,1.0,23.142,1,1
7z8csc7zfih5pfeor0kfyt2v,9,0,a55,1,,,,1,1
83d65pn4d2raivkvi6hb8fhc,1,0,a11,4,4.0,1.0,14.345,1,1
83d65pn4d2raivkvi6hb8fhc,2,0,a24,4,5.0,0.0,25.945,1,1
83d65pn4d2raivkvi6hb8fhc,3,0,a28,7,7.0,1.0,14.205,1,1
83d65pn4d2raivkvi6hb8fhc,4,0,a36,1,1.0,1.0,22.629,1,1
83d65pn4d2raivkvi6hb8fhc,5,0,a43,4,4.0,1.0,10.645,1,1
83d65pn4d2raivkvi6hb8fhc,6,0,a48,5,7.0,0.0,24.759,1,1
83d65pn4d2raivkvi6hb8fhc,7,0,a49,6,6.0,1.0,22.946,1,1
83d65pn4d2raivkvi6hb8fhc,8,0,a53,0,0.0,1.0,14.515,1,1
83d65pn4d2raivkvi6hb8fhc,9,0,a55,1,2.0,0.0,26.241,1,1
904us1xo4en5ejund7wj7xcz,1,0,a11,4,5.0,0.0,14.8,1,1
904us1xo4en5ejund7wj7xcz,2,0,a24,4,5.0,0.0,16.093,1,1
904us1xo4en5ejund7wj7xcz,3,0,a28,7,7.0,1.0,19.618,1,1
904us1xo4en5ejund7wj7xcz,4,0,a36,1,2.0,0.0,22.262,1,1
904us1xo4en5ejund7wj7xcz,5,0,a43,4,4.0,1.0,21.685,1,1
904us1xo4en5ejund7wj7xcz,6,0,a48,5,3.0,0.0,17.744,1,1
904us1xo4en5ejund7wj7xcz,7,0,a49,6,6.0,1.0,8.646,1,1
904us1xo4en5ejund7wj7xcz,8,0,a53,0,0.0,1.0,9.143,1,1
904us1xo4en5ejund7wj7xcz,9,0,a55,1,5.0,0.0,27.713,1,1
9aw9gl5jqv46t2q1flf417d0,1,0,a11,4,0.0,0.0,4.548,1,1
9aw9gl5jqv46t2q1flf417d0,2,0,a24,4,4.0,1.0,18.524,1,1
9aw9gl5jqv46t2q1flf417d0,3,0,a28,7,7.0,1.0,6.882,1,1
9aw9gl5jqv46t2q1flf417d0,4,0,a36,1,1.0,1.0,8.49,1,1
9aw9gl5jqv46t2q1flf417d0,5,0,a43,4,4.0,1.0,12.655,1,1
9aw9gl5jqv46t2q1flf417d0,6,0,a48,5,7.0,0.0,29.32,1,1
9aw9gl5jqv46t2q1flf417d0,7,0,a49,6,6.0,1.0,9.656,1,1
9aw9gl5jqv46t2q1flf417d0,8,0,a53,0,0.0,1.0,7.11,1,1
9aw9gl5jqv46t2q1flf417d0,9,0,a55,1,1.0,1.0,16.422,1,1
9tz3b7sj8khwmyl6fj7nucqi,1,0,a11,4,0.0,0.0,9.595,1,1
9tz3b7sj8khwmyl6fj7nucqi,2,0,a24,4,3.0,0.0,17.795,1,1
9tz3b7sj8khwmyl6fj7nucqi,3,0,a28,7,2.0,0.0,22.071,1,1
9tz3b7sj8khwmyl6fj7nucqi,4,0,a36,1,6.0,0.0,22.101,1,1
9tz3b7sj8khwmyl6fj7nucqi,5,0,a43,4,4.0,1.0,24.416,1,1
9tz3b7sj8khwmyl6fj7nucqi,6,0,a48,5,7.0,0.0,19.704,1,1
9tz3b7sj8khwmyl6fj7nucqi,7,0,a49,6,0.0,0.0,0.522,1,1
9tz3b7sj8khwmyl6fj7nucqi,8,0,a53,0,6.0,0.0,14.75,1,1
9tz3b7sj8khwmyl6fj7nucqi,9,0,a55,1,5.0,0.0,11.925,1,1
ab156hhj39pbdfdmqex7354t,1,0,a11,4,4.0,1.0,11.616,1,1
ab156hhj39pbdfdmqex7354t,2,0,a24,4,4.0,1.0,10.828,1,1
ab156hhj39pbdfdmqex7354t,3,0,a28,7,7.0,1.0,6.965,1,1
ab156hhj39pbdfdmqex7354t,4,0,a36,1,1.0,1.0,12.196,1,1
ab156hhj39pbdfdmqex7354t,5,0,a43,4,4.0,1.0,11.493,1,1
ab156hhj39pbdfdmqex7354t,6,0,a48,5,7.0,0.0,16.945,1,1
ab156hhj39pbdfdmqex7354t,7,0,a49,6,6.0,1.0,9.954,1,1
ab156hhj39pbdfdmqex7354t,8,0,a53,0,0.0,1.0,6.549,1,1
ab156hhj39pbdfdmqex7354t,9,0,a55,1,1.0,1.0,15.355,1,1
ae9x8jlpq2by67vm77fdw21b,1,0,a11,4,4.0,1.0,11.469,1,1
ae9x8jlpq2by67vm77fdw21b,2,0,a24,4,4.0,1.0,12.361,1,1
ae9x8jlpq2by67vm77fdw21b,3,0,a28,7,7.0,1.0,16.733,1,1
ae9x8jlpq2by67vm77fdw21b,4,0,a36,1,4.0,0.0,25.383,1,1
ae9x8jlpq2by67vm77fdw21b,5,0,a43,4,4.0,1.0,19.53,1,1
ae9x8jlpq2by67vm77fdw21b,6,0,a48,5,3.0,0.0,11.675,1,1
ae9x8jlpq2by67vm77fdw21b,7,0,a49,6,6.0,1.0,11.993,1,1
ae9x8jlpq2by67vm77fdw21b,8,0,a53,0,0.0,1.0,9.518,1,1
ae9x8jlpq2by67vm77fdw21b,9,0,a55,1,6.0,0.0,7.071,1,1
aek1qwmstue08jfqva0nuctd,1,0,a11,4,4.0,1.0,9.247,1,1
aek1qwmstue08jfqva0nuctd,2,0,a24,4,4.0,1.0,6.892,1,1
aek1qwmstue08jfqva0nuctd,3,0,a28,7,7.0,1.0,11.377,1,1
aek1qwmstue08jfqva0nuctd,4,0,a36,1,1.0,1.0,19.245,1,1
aek1qwmstue08jfqva0nuctd,5,0,a43,4,4.0,1.0,16.958,1,1
aek1qwmstue08jfqva0nuctd,6,0,a48,5,7.0,0.0,20.284,1,1
aek1qwmstue08jfqva0nuctd,7,0,a49,6,6.0,1.0,10.905,1,1
aek1qwmstue08jfqva0nuctd,8,0,a53,0,0.0,1.0,13.424,1,1
aek1qwmstue08jfqva0nuctd,9,0,a55,1,5.0,0.0,27.593,1,1
ahu64kinfjnyyollp82777wn,1,0,a11,4,4.0,1.0,26.94,1,1
ahu64kinfjnyyollp82777wn,2,0,a24,4,4.0,1.0,12.264,1,1
ahu64kinfjnyyollp82777wn,3,0,a28,7,7.0,1.0,17.649,1,1
ahu64kinfjnyyollp82777wn,4,0,a36,1,1.0,1.0,23.141,1,1
ahu64kinfjnyyollp82777wn,5,0,a43,4,4.0,1.0,22.7,1,1
ahu64kinfjnyyollp82777wn,6,0,a48,5,7.0,0.0,27.216,1,1
ahu64kinfjnyyollp82777wn,7,0,a49,6,6.0,1.0,18.661,1,1
ahu64kinfjnyyollp82777wn,8,0,a53,0,0.0,1.0,17.953,1,1
ahu64kinfjnyyollp82777wn,9,0,a55,1,1.0,1.0,28.688,1,1
aj7e9j320ju26mkz3sc7btj1,1,0,a11,4,0.0,0.0,19.137,1,1
aj7e9j320ju26mkz3sc7btj1,2,0,a24,4,4.0,1.0,12.229,1,1
aj7e9j320ju26mkz3sc7btj1,3,0,a28,7,2.0,0.0,16.22,1,1
aj7e9j320ju26mkz3sc7btj1,4,0,a36,1,2.0,0.0,12.637,1,1
aj7e9j320ju26mkz3sc7btj1,5,0,a43,4,4.0,1.0,15.248,1,1
aj7e9j320ju26mkz3sc7btj1,6,0,a48,5,3.0,0.0,20.126,1,1
aj7e9j320ju26mkz3sc7btj1,7,0,a49,6,6.0,1.0,9.373,1,1
aj7e9j320ju26mkz3sc7btj1,8,0,a53,0,5.0,0.0,21.93,1,1
aj7e9j320ju26mkz3sc7btj1,9,0,a55,1,6.0,0.0,14.764,1,1
aw5ty2rivqrj6l4fcekm8bzp,1,0,a11,4,4.0,1.0,7.021,1,1
aw5ty2rivqrj6l4fcekm8bzp,2,0,a24,4,4.0,1.0,14.98,1,1
aw5ty2rivqrj6l4fcekm8bzp,3,0,a28,7,7.0,1.0,12.587,1,1
aw5ty2rivqrj6l4fcekm8bzp,4,0,a36,1,1.0,1.0,15.973,1,1
aw5ty2rivqrj6l4fcekm8bzp,5,0,a43,4,1.0,0.0,14.018,1,1
aw5ty2rivqrj6l4fcekm8bzp,6,0,a48,5,5.0,1.0,12.051,1,1
aw5ty2rivqrj6l4fcekm8bzp,7,0,a49,6,6.0,1.0,6.94,1,1
aw5ty2rivqrj6l4fcekm8bzp,8,0,a53,0,0.0,1.0,5.118,1,1
aw5ty2rivqrj6l4fcekm8bzp,9,0,a55,1,6.0,0.0,10.412,1,1
b5frji5hv5d7xietvx944qzz,1,0,a11,4,4.0,1.0,10.175,1,1
b5frji5hv5d7xietvx944qzz,2,0,a24,4,3.0,0.0,18.432,1,1
b5frji5hv5d7xietvx944qzz,3,0,a28,7,7.0,1.0,11.641,1,1
b5frji5hv5d7xietvx944qzz,4,0,a36,1,1.0,1.0,22.789,1,1
b5frji5hv5d7xietvx944qzz,5,0,a43,4,6.0,0.0,21.076,1,1
b5frji5hv5d7xietvx944qzz,6,0,a48,5,1.0,0.0,19.132,1,1
b5frji5hv5d7xietvx944qzz,7,0,a49,6,6.0,1.0,9.389,1,1
b5frji5hv5d7xietvx944qzz,8,0,a53,0,3.0,0.0,25.545,1,1
b5frji5hv5d7xietvx944qzz,9,0,a55,1,7.0,0.0,10.83,1,1
bet3v8jup1a9hzxfgo41uivh,1,0,a11,4,2.0,0.0,7.133,1,1
bet3v8jup1a9hzxfgo41uivh,2,0,a24,4,4.0,1.0,9.203,1,1
bet3v8jup1a9hzxfgo41uivh,3,0,a28,7,7.0,1.0,10.945,1,1
bet3v8jup1a9hzxfgo41uivh,4,0,a36,1,2.0,0.0,11.222,1,1
bet3v8jup1a9hzxfgo41uivh,5,0,a43,4,4.0,1.0,19.775,1,1
bet3v8jup1a9hzxfgo41uivh,6,0,a48,5,7.0,0.0,26.918,1,1
bet3v8jup1a9hzxfgo41uivh,7,0,a49,6,6.0,1.0,7.145,1,1
bet3v8jup1a9hzxfgo41uivh,8,0,a53,0,0.0,1.0,9.384,1,1
bet3v8jup1a9hzxfgo41uivh,9,0,a55,1,2.0,0.0,17.209,1,1
bl14rdmw7m65wh8n7bxmwjbg,1,0,a11,4,4.0,1.0,7.905,1,1
bl14rdmw7m65wh8n7bxmwjbg,2,0,a24,4,4.0,1.0,10.597,1,1
bl14rdmw7m65wh8n7bxmwjbg,3,0,a28,7,7.0,1.0,4.631,1,1
bl14rdmw7m65wh8n7bxmwjbg,4,0,a36,1,1.0,1.0,15.87,1,1
bl14rdmw7m65wh8n7bxmwjbg,5,0,a43,4,4.0,1.0,10.765,1,1
bl14rdmw7m65wh8n7bxmwjbg,6,0,a48,5,6.0,0.0,9.943,1,1
bl14rdmw7m65wh8n7bxmwjbg,7,0,a49,6,6.0,1.0,7.409,1,1
bl14rdmw7m65wh8n7bxmwjbg,8,0,a53,0,6.0,0.0,19.08,1,1
bl14rdmw7m65wh8n7bxmwjbg,9,0,a55,1,6.0,0.0,23.595,1,1
bm25wtb8h4y0rcrunpse40us,1,0,a11,4,4.0,1.0,9.666,1,1
bm25wtb8h4y0rcrunpse40us,2,0,a24,4,4.0,1.0,9.936,1,1
bm25wtb8h4y0rcrunpse40us,3,0,a28,7,7.0,1.0,12.143,1,1
bm25wtb8h4y0rcrunpse40us,4,0,a36,1,5.0,0.0,26.146,1,1
bm25wtb8h4y0rcrunpse40us,5,0,a43,4,1.0,0.0,5.998,1,1
bm25wtb8h4y0rcrunpse40us,6,0,a48,5,4.0,0.0,4.59,1,1
bm25wtb8h4y0rcrunpse40us,7,0,a49,6,5.0,0.0,3.948,1,1
bm25wtb8h4y0rcrunpse40us,8,0,a53,0,0.0,1.0,8.935,1,1
bm25wtb8h4y0rcrunpse40us,9,0,a55,1,6.0,0.0,4.129,1,1
bsfky5izk36x46djd023jeph,1,0,a11,4,4.0,1.0,22.92,1,1
bsfky5izk36x46djd023jeph,2,0,a24,4,4.0,1.0,10.475,1,1
bsfky5izk36x46djd023jeph,3,0,a28,7,7.0,1.0,9.694,1,1
bsfky5izk36x46djd023jeph,4,0,a36,1,2.0,0.0,13.169,1,1
bsfky5izk36x46djd023jeph,5,0,a43,4,4.0,1.0,15.389,1,1
bsfky5izk36x46djd023jeph,6,0,a48,5,7.0,0.0,27.925,1,1
bsfky5izk36x46djd023jeph,7,0,a49,6,6.0,1.0,8.007,1,1
bsfky5izk36x46djd023jeph,8,0,a53,0,4.0,0.0,27.934,1,1
bsfky5izk36x46djd023jeph,9,0,a55,1,0.0,0.0,25.754,1,1
bu4s3z49jmgzr5do2tt8oyrn,1,0,a11,4,5.0,0.0,8.991,1,1
bu4s3z49jmgzr5do2tt8oyrn,2,0,a24,4,4.0,1.0,6.836,1,1
bu4s3z49jmgzr5do2tt8oyrn,3,0,a28,7,7.0,1.0,17.335,1,1
bu4s3z49jmgzr5do2tt8oyrn,4,0,a36,1,2.0,0.0,11.583,1,1
bu4s3z49jmgzr5do2tt8oyrn,5,0,a43,4,7.0,0.0,12.093,1,1
bu4s3z49jmgzr5do2tt8oyrn,6,0,a48,5,1.0,0.0,14.715,1,1
bu4s3z49jmgzr5do2tt8oyrn,7,0,a49,6,6.0,1.0,10.774,1,1
bu4s3z49jmgzr5do2tt8oyrn,8,0,a53,0,2.0,0.0,23.305,1,1
bu4s3z49jmgzr5do2tt8oyrn,9,0,a55,1,0.0,0.0,4.422,1,1
c0tws9gfdtfu6u9i5qrcddsz,1,0,a11,4,4.0,1.0,13.189,1,1
c0tws9gfdtfu6u9i5qrcddsz,2,0,a24,4,4.0,1.0,14.22,1,1
c0tws9gfdtfu6u9i5qrcddsz,3,0,a28,7,7.0,1.0,11.644,1,1
c0tws9gfdtfu6u9i5qrcddsz,4,0,a36,1,1.0,1.0,16.22,1,1
c0tws9gfdtfu6u9i5qrcddsz,5,0,a43,4,1.0,0.0,17.366,1,1
c0tws9gfdtfu6u9i5qrcddsz,6,0,a48,5,5.0,1.0,26.47,1,1
c0tws9gfdtfu6u9i5qrcddsz,7,0,a49,6,6.0,1.0,9.08,1,1
c0tws9gfdtfu6u9i5qrcddsz,8,0,a53,0,6.0,0.0,19.036,1,1
c0tws9gfdtfu6u9i5qrcddsz,9,0,a55,1,6.0,0.0,29.092,1,1
ck4zb9uvfwb2zd9tvm2nnppc,1,0,a11,4,4.0,1.0,5.704,1,1
ck4zb9uvfwb2zd9tvm2nnppc,2,0,a24,4,3.0,0.0,10.794,1,1
ck4zb9uvfwb2zd9tvm2nnppc,3,0,a28,7,7.0,1.0,5.888,1,1
ck4zb9uvfwb2zd9tvm2nnppc,4,0,a36,1,2.0,0.0,7.959,1,1
ck4zb9uvfwb2zd9tvm2nnppc,5,0,a43,4,3.0,0.0,10.892,1,1
ck4zb9uvfwb2zd9tvm2nnppc,6,0,a48,5,4.0,0.0,9.835,1,1
ck4zb9uvfwb2zd9tvm2nnppc,7,0,a49,6,6.0,1.0,5.19,1,1
ck4zb9uvfwb2zd9tvm2nnppc,8,0,a53,0,6.0,0.0,5.198,1,1
ck4zb9uvfwb2zd9tvm2nnppc,9,0,a55,1,0.0,0.0,12.323,1,1
cpi0rc606txwbnzng8csbehh,1,0,a11,4,4.0,1.0,18.91,1,1
cpi0rc606txwbnzng8csbehh,2,0,a24,4,4.0,1.0,9.667,1,1
cpi0rc606txwbnzng8csbehh,3,0,a28,7,7.0,1.0,7.912,1,1
cpi0rc606txwbnzng8csbehh,4,0,a36,1,1.0,1.0,10.804,1,1
cpi0rc606txwbnzng8csbehh,5,0,a43,4,7.0,0.0,20.365,1,1
cpi0rc606txwbnzng8csbehh,6,0,a48,5,5.0,1.0,24.167,1,1
cpi0rc606txwbnzng8csbehh,7,0,a49,6,6.0,1.0,5.646,1,1
cpi0rc606txwbnzng8csbehh,8,0,a53,0,0.0,1.0,25.097,1,1
cpi0rc606txwbnzng8csbehh,9,0,a55,1,,,,1,1
cqvci3ad1gu7wfbhvolbec6j,1,0,a11,4,0.0,0.0,10.084,1,1
cqvci3ad1gu7wfbhvolbec6j,2,0,a24,4,5.0,0.0,13.085,1,1
cqvci3ad1gu7wfbhvolbec6j,3,0,a28,7,7.0,1.0,15.4,1,1
cqvci3ad1gu7wfbhvolbec6j,4,0,a36,1,3.0,0.0,15.044,1,1
cqvci3ad1gu7wfbhvolbec6j,5,0,a43,4,0.0,0.0,12.118,1,1
cqvci3ad1gu7wfbhvolbec6j,6,0,a48,5,1.0,0.0,11.57,1,1
cqvci3ad1gu7wfbhvolbec6j,7,0,a49,6,2.0,0.0,14.263,1,1
cqvci3ad1gu7wfbhvolbec6j,8,0,a53,0,3.0,0.0,15.962,1,1
cqvci3ad1gu7wfbhvolbec6j,9,0,a55,1,6.0,0.0,9.866,1,1
dlj50w7jk456t27r2dk796nj,1,0,a11,4,4.0,1.0,7.139,1,1
dlj50w7jk456t27r2dk796nj,2,0,a24,4,4.0,1.0,7.61,1,1
dlj50w7jk456t27r2dk796nj,3,0,a28,7,7.0,1.0,3.827,1,1
dlj50w7jk456t27r2dk796nj,4,0,a36,1,2.0,0.0,8.642,1,1
dlj50w7jk456t27r2dk796nj,5,0,a43,4,7.0,0.0,4.777,1,1
dlj50w7jk456t27r2dk796nj,6,0,a48,5,6.0,0.0,5.33,1,1
dlj50w7jk456t27r2dk796nj,7,0,a49,6,0.0,0.0,5.473,1,1
dlj50w7jk456t27r2dk796nj,8,0,a53,0,6.0,0.0,2.758,1,1
dlj50w7jk456t27r2dk796nj,9,0,a55,1,4.0,0.0,3.261,1,1
dqc8kf548l4tra17tjdor5im,1,0,a11,4,4.0,1.0,18.097,1,1
dqc8kf548l4tra17tjdor5im,2,0,a24,4,4.0,1.0,13.399,1,1
dqc8kf548l4tra17tjdor5im,3,0,a28,7,7.0,1.0,13.151,1,1
dqc8kf548l4tra17tjdor5im,4,0,a36,1,2.0,0.0,15.879,1,1
dqc8kf548l4tra17tjdor5im,5,0,a43,4,7.0,0.0,26.489,1,1
dqc8kf548l4tra17tjdor5im,6,0,a48,5,7.0,0.0,14.464,1,1
dqc8kf548l4tra17tjdor5im,7,0,a49,6,6.0,1.0,11.096,1,1
dqc8kf548l4tra17tjdor5im,8,0,a53,0,1.0,0.0,28.488,1,1
dqc8kf548l4tra17tjdor5im,9,0,a55,1,2.0,0.0,21.728,1,1
dt5mvy4s5ooheslxv4zb4b09,1,0,a11,4,2.0,0.0,9.413,1,1
dt5mvy4s5ooheslxv4zb4b09,2,0,a24,4,4.0,1.0,21.372,1,1
dt5mvy4s5ooheslxv4zb4b09,3,0,a28,7,7.0,1.0,4.205,1,1
dt5mvy4s5ooheslxv4zb4b09,4,0,a36,1,5.0,0.0,9.286,1,1
dt5mvy4s5ooheslxv4zb4b09,5,0,a43,4,4.0,1.0,22.923,1,1
dt5mvy4s5ooheslxv4zb4b09,6,0,a48,5,5.0,1.0,19.688,1,1
dt5mvy4s5ooheslxv4zb4b09,7,0,a49,6,2.0,0.0,8.098,1,1
dt5mvy4s5ooheslxv4zb4b09,8,0,a53,0,6.0,0.0,9.61,1,1
dt5mvy4s5ooheslxv4zb4b09,9,0,a55,1,6.0,0.0,6.584,1,1
e4m1oih7yz88rmgt5goj92z1,1,0,a11,4,4.0,1.0,12.663,1,1
e4m1oih7yz88rmgt5goj92z1,2,0,a24,4,4.0,1.0,10.13,1,1
e4m1oih7yz88rmgt5goj92z1,3,0,a28,7,7.0,1.0,7.877,1,1
e4m1oih7yz88rmgt5goj92z1,4,0,a36,1,5.0,0.0,12.134,1,1
e4m1oih7yz88rmgt5goj92z1,5,0,a43,4,4.0,1.0,9.896,1,1
e4m1oih7yz88rmgt5goj92z1,6,0,a48,5,7.0,0.0,16.191,1,1
e4m1oih7yz88rmgt5goj92z1,7,0,a49,6,6.0,1.0,4.772,1,1
e4m1oih7yz88rmgt5goj92z1,8,0,a53,0,0.0,1.0,4.258,1,1
e4m1oih7yz88rmgt5goj92z1,9,0,a55,1,1.0,1.0,28.119,1,1
eol7onsaj3kk3rj2qephzji5,1,0,a11,4,4.0,1.0,7.104,1,1
eol7onsaj3kk3rj2qephzji5,2,0,a24,4,4.0,1.0,13.167,1,1
eol7onsaj3kk3rj2qephzji5,3,0,a28,7,7.0,1.0,7.072,1,1
eol7onsaj3kk3rj2qephzji5,4,0,a36,1,1.0,1.0,11.673,1,1
eol7onsaj3kk3rj2qephzji5,5,0,a43,4,4.0,1.0,14.621,1,1
eol7onsaj3kk3rj2qephzji5,6,0,a48,5,6.0,0.0,23.452,1,1
eol7onsaj3kk3rj2qephzji5,7,0,a49,6,6.0,1.0,5.038,1,1
eol7onsaj3kk3rj2qephzji5,8,0,a53,0,0.0,1.0,9.869,1,1
eol7onsaj3kk3rj2qephzji5,9,0,a55,1,3.0,0.0,29.47,1,1
fc4n9bak7f6v4vs1hnfzis64,1,0,a11,4,5.0,0.0,6.256,1,1
fc4n9bak7f6v4vs1hnfzis64,2,0,a24,4,2.0,0.0,9.675,1,1
fc4n9bak7f6v4vs1hnfzis64,3,0,a28,7,7.0,1.0,9.629,1,1
fc4n9bak7f6v4vs1hnfzis64,4,0,a36,1,3.0,0.0,13.198,1,1
fc4n9bak7f6v4vs1hnfzis64,5,0,a43,4,4.0,1.0,9.127,1,1
fc4n9bak7f6v4vs1hnfzis64,6,0,a48,5,6.0,0.0,6.228,1,1
fc4n9bak7f6v4vs1hnfzis64,7,0,a49,6,6.0,1.0,8.655,1,1
fc4n9bak7f6v4vs1hnfzis64,8,0,a53,0,0.0,1.0,6.587,1,1
fc4n9bak7f6v4vs1hnfzis64,9,0,a55,1,7.0,0.0,9.929,1,1
fh8fuwctemnety664boysq6l,1,0,a11,4,0.0,0.0,11.848,1,1
fh8fuwctemnety664boysq6l,2,0,a24,4,3.0,0.0,10.359,1,1
fh8fuwctemnety664boysq6l,3,0,a28,7,7.0,1.0,3.559,1,1
fh8fuwctemnety664boysq6l,4,0,a36,1,6.0,0.0,1.791,1,1
fh8fuwctemnety664boysq6l,5,0,a43,4,7.0,0.0,13.456,1,1
fh8fuwctemnety664boysq6l,6,0,a48,5,1.0,0.0,2.769,1,1
fh8fuwctemnety664boysq6l,7,0,a49,6,3.0,0.0,5.099,1,1
fh8fuwctemnety664boysq6l,8,0,a53,0,0.0,1.0,9.185,1,1
fh8fuwctemnety664boysq6l,9,0,a55,1,2.0,0.0,1.697,1,1
fp80a7dmu67cidx6sb7ongc1,1,0,a11,4,3.0,0.0,17.624,1,1
fp80a7dmu67cidx6sb7ongc1,2,0,a24,4,5.0,0.0,10.529,1,1
fp80a7dmu67cidx6sb7ongc1,3,0,a28,7,7.0,1.0,10.272,1,1
fp80a7dmu67cidx6sb7ongc1,4,0,a36,1,5.0,0.0,14.58,1,1
fp80a7dmu67cidx6sb7ongc1,5,0,a43,4,4.0,1.0,9.689,1,1
fp80a7dmu67cidx6sb7ongc1,6,0,a48,5,6.0,0.0,22.666,1,1
fp80a7dmu67cidx6sb7ongc1,7,0,a49,6,6.0,1.0,9.876,1,1
fp80a7dmu67cidx6sb7ongc1,8,0,a53,0,6.0,0.0,14.702,1,1
fp80a7dmu67cidx6sb7ongc1,9,0,a55,1,7.0,0.0,6.043,1,1
gmyxexjsg4bsurgjr93e1oj3,1,0,a11,4,4.0,1.0,9.381,1,1
gmyxexjsg4bsurgjr93e1oj3,2,0,a24,4,3.0,0.0,27.174,1,1
gmyxexjsg4bsurgjr93e1oj3,3,0,a28,7,7.0,1.0,9.293,1,1
gmyxexjsg4bsurgjr93e1oj3,4,0,a36,1,2.0,0.0,8.78,1,1
gmyxexjsg4bsurgjr93e1oj3,5,0,a43,4,4.0,1.0,14.126,1,1
gmyxexjsg4bsurgjr93e1oj3,6,0,a48,5,6.0,0.0,13.843,1,1
gmyxexjsg4bsurgjr93e1oj3,7,0,a49,6,6.0,1.0,7.473,1,1
gmyxexjsg4bsurgjr93e1oj3,8,0,a53,0,0.0,1.0,8.525,1,1
gmyxexjsg4bsurgjr93e1oj3,9,0,a55,1,6.0,0.0,1.727,1,1
gqhhkjgkdyhmkyt0qntzi50k,1,0,a11,4,4.0,1.0,7.256,1,1
gqhhkjgkdyhmkyt0qntzi50k,2,0,a24,4,4.0,1.0,8.399,1,1
gqhhkjgkdyhmkyt0qntzi50k,3,0,a28,7,2.0,0.0,15.763,1,1
gqhhkjgkdyhmkyt0qntzi50k,4,0,a36,1,0.0,0.0,29.594,1,1
gqhhkjgkdyhmkyt0qntzi50k,5,0,a43,4,4.0,1.0,21.269,1,1
gqhhkjgkdyhmkyt0qntzi50k,6,0,a48,5,5.0,1.0,16.742,1,1
gqhhkjgkdyhmkyt0qntzi50k,7,0,a49,6,6.0,1.0,10.389,1,1
gqhhkjgkdyhmkyt0qntzi50k,8,0,a53,0,0.0,1.0,10.018,1,1
gqhhkjgkdyhmkyt0qntzi50k,9,0,a55,1,6.0,0.0,11.013,1,1
grn07af0b93w9u7y17p2ee7k,1,0,a11,4,3.0,0.0,16.662,1,1
grn07af0b93w9u7y17p2ee7k,2,0,a24,4,4.0,1.0,13.743,1,1
grn07af0b93w9u7y17p2ee7k,3,0,a28,7,7.0,1.0,7.014,1,1
grn07af0b93w9u7y17p2ee7k,4,0,a36,1,2.0,0.0,10.709,1,1
grn07af0b93w9u7y17p2ee7k,5,0,a43,4,4.0,1.0,12.195,1,1
grn07af0b93w9u7y17p2ee7k,6,0,a48,5,6.0,0.0,12.391,1,1
grn07af0b93w9u7y17p2ee7k,7,0,a49,6,5.0,0.0,7.209,1,1
grn07af0b93w9u7y17p2ee7k,8,0,a53,0,0.0,1.0,8.078,1,1
grn07af0b93w9u7y17p2ee7k,9,0,a55,1,4.0,0.0,18.532,1,1
h99fpjuxskud4vzslm7gmd5i,1,0,a11,4,4.0,1.0,3.781,1,1
h99fpjuxskud4vzslm7gmd5i,2,0,a24,4,4.0,1.0,6.437,1,1
h99fpjuxskud4vzslm7gmd5i,3,0,a28,7,7.0,1.0,13.613,1,1
h99fpjuxskud4vzslm7gmd5i,4,0,a36,1,1.0,1.0,20.163,1,1
h99fpjuxskud4vzslm7gmd5i,5,0,a43,4,4.0,1.0,11.512,1,1
h99fpjuxskud4vzslm7gmd5i,6,0,a48,5,3.0,0.0,3.432,1,1
h99fpjuxskud4vzslm7gmd5i,7,0,a49,6,6.0,1.0,9.226,1,1
h99fpjuxskud4vzslm7gmd5i,8,0,a53,0,0.0,1.0,7.273,1,1
h99fpjuxskud4vzslm7gmd5i,9,0,a55,1,2.0,0.0,19.914,1,1
hvur9ekefossv62xhobefe8u,1,0,a11,4,4.0,1.0,11.528,1,1
hvur9ekefossv62xhobefe8u,2,0,a24,4,4.0,1.0,16.144,1,1
hvur9ekefossv62xhobefe8u,3,0,a28,7,7.0,1.0,7.336,1,1
hvur9ekefossv62xhobefe8u,4,0,a36,1,1.0,1.0,15.004,1,1
hvur9ekefossv62xhobefe8u,5,0,a43,4,4.0,1.0,11.882,1,1
hvur9ekefossv62xhobefe8u,6,0,a48,5,7.0,0.0,16.728,1,1
hvur9ekefossv62xhobefe8u,7,0,a49,6,6.0,1.0,9.757,1,1
hvur9ekefossv62xhobefe8u,8,0,a53,0,0.0,1.0,18.893,1,1
hvur9ekefossv62xhobefe8u,9,0,a55,1,,,,1,1
hzbjblm6bm66f3dc3j5m9aar,1,0,a11,4,4.0,1.0,7.442,1,1
hzbjblm6bm66f3dc3j5m9aar,2,0,a24,4,0.0,0.0,11.652,1,1
hzbjblm6bm66f3dc3j5m9aar,3,0,a28,7,7.0,1.0,11.126,1,1
hzbjblm6bm66f3dc3j5m9aar,4,0,a36,1,1.0,1.0,13.966,1,1
hzbjblm6bm66f3dc3j5m9aar,5,0,a43,4,7.0,0.0,13.618,1,1
hzbjblm6bm66f3dc3j5m9aar,6,0,a48,5,7.0,0.0,10.305,1,1
hzbjblm6bm66f3dc3j5m9aar,7,0,a49,6,6.0,1.0,8.001,1,1
hzbjblm6bm66f3dc3j5m9aar,8,0,a53,0,0.0,1.0,6.556,1,1
hzbjblm6bm66f3dc3j5m9aar,9,0,a55,1,5.0,0.0,24.145,1,1
i9f8j69k50kjmc8fkb3m65yb,1,0,a11,4,4.0,1.0,8.59,1,1
i9f8j69k50kjmc8fkb3m65yb,2,0,a24,4,4.0,1.0,11.673,1,1
i9f8j69k50kjmc8fkb3m65yb,3,0,a28,7,7.0,1.0,19.394,1,1
i9f8j69k50kjmc8fkb3m65yb,4,0,a36,1,3.0,0.0,6.322,1,1
i9f8j69k50kjmc8fkb3m65yb,5,0,a43,4,,,,1,1
i9f8j69k50kjmc8fkb3m65yb,6,0,a48,5,5.0,1.0,15.613,1,1
i9f8j69k50kjmc8fkb3m65yb,7,0,a49,6,6.0,1.0,6.429,1,1
i9f8j69k50kjmc8fkb3m65yb,8,0,a53,0,0.0,1.0,7.929,1,1
i9f8j69k50kjmc8fkb3m65yb,9,0,a55,1,1.0,1.0,15.789,1,1
iafsiffrx2pmq7ciimzesy9t,1,0,a11,4,2.0,0.0,5.463,1,1
iafsiffrx2pmq7ciimzesy9t,2,0,a24,4,5.0,0.0,5.985,1,1
iafsiffrx2pmq7ciimzesy9t,3,0,a28,7,3.0,0.0,2.495,1,1
iafsiffrx2pmq7ciimzesy9t,4,0,a36,1,2.0,0.0,1.777,1,1
iafsiffrx2pmq7ciimzesy9t,5,0,a43,4,3.0,0.0,3.44,1,1
iafsiffrx2pmq7ciimzesy9t,6,0,a48,5,0.0,0.0,2.812,1,1
iafsiffrx2pmq7ciimzesy9t,7,0,a49,6,1.0,0.0,0.863,1,1
iafsiffrx2pmq7ciimzesy9t,8,0,a53,0,3.0,0.0,2.989,1,1
iafsiffrx2pmq7ciimzesy9t,9,0,a55,1,7.0,0.0,1.634,1,1
icb15dfgx9tcrcyoer6n0c5o,1,0,a11,4,4.0,1.0,13.44,1,1
icb15dfgx9tcrcyoer6n0c5o,2,0,a24,4,5.0,0.0,21.127,1,1
icb15dfgx9tcrcyoer6n0c5o,3,0,a28,7,7.0,1.0,12.298,1,1
icb15dfgx9tcrcyoer6n0c5o,4,0,a36,1,2.0,0.0,13.608,1,1
icb15dfgx9tcrcyoer6n0c5o,5,0,a43,4,4.0,1.0,13.289,1,1
icb15dfgx9tcrcyoer6n0c5o,6,0,a48,5,1.0,0.0,16.439,1,1
icb15dfgx9tcrcyoer6n0c5o,7,0,a49,6,6.0,1.0,7.655,1,1
icb15dfgx9tcrcyoer6n0c5o,8,0,a53,0,0.0,1.0,8.559,1,1
icb15dfgx9tcrcyoer6n0c5o,9,0,a55,1,,,,1,1
id3di6mf3qw1dvig1dm2sk9t,1,0,a11,4,4.0,1.0,19.056,1,1
id3di6mf3qw1dvig1dm2sk9t,2,0,a24,4,4.0,1.0,21.289,1,1
id3di6mf3qw1dvig1dm2sk9t,3,0,a28,7,,,,1,1
id3di6mf3qw1dvig1dm2sk9t,4,0,a36,1,6.0,0.0,2.345,1,1
id3di6mf3qw1dvig1dm2sk9t,5,0,a43,4,4.0,1.0,17.139,1,1
id3di6mf3qw1dvig1dm2sk9t,6,0,a48,5,4.0,0.0,28.155,1,1
id3di6mf3qw1dvig1dm2sk9t,7,0,a49,6,6.0,1.0,8.717,1,1
id3di6mf3qw1dvig1dm2sk9t,8,0,a53,0,0.0,1.0,7.811,1,1
id3di6mf3qw1dvig1dm2sk9t,9,0,a55,1,1.0,1.0,16.448,1,1
ifzee8k3cqw1c1sp679ha0pt,1,0,a11,4,5.0,0.0,6.181,1,1
ifzee8k3cqw1c1sp679ha0pt,2,0,a24,4,5.0,0.0,10.808,1,1
ifzee8k3cqw1c1sp679ha0pt,3,0,a28,7,7.0,1.0,7.598,1,1
ifzee8k3cqw1c1sp679ha0pt,4,0,a36,1,1.0,1.0,12.808,1,1
ifzee8k3cqw1c1sp679ha0pt,5,0,a43,4,4.0,1.0,8.509,1,1
ifzee8k3cqw1c1sp679ha0pt,6,0,a48,5,6.0,0.0,10.303,1,1
ifzee8k3cqw1c1sp679ha0pt,7,0,a49,6,6.0,1.0,4.509,1,1
ifzee8k3cqw1c1sp679ha0pt,8,0,a53,0,0.0,1.0,12.288,1,1
ifzee8k3cqw1c1sp679ha0pt,9,0,a55,1,0.0,0.0,10.95,1,1
ik2p3bz9hemu7m01piqlf3o3,1,0,a11,4,0.0,0.0,14.579,1,1
ik2p3bz9hemu7m01piqlf3o3,2,0,a24,4,4.0,1.0,10.395,1,1
ik2p3bz9hemu7m01piqlf3o3,3,0,a28,7,7.0,1.0,11.416,1,1
ik2p3bz9hemu7m01piqlf3o3,4,0,a36,1,2.0,0.0,8.321,1,1
ik2p3bz9hemu7m01piqlf3o3,5,0,a43,4,4.0,1.0,18.593,1,1
ik2p3bz9hemu7m01piqlf3o3,6,0,a48,5,3.0,0.0,27.529,1,1
ik2p3bz9hemu7m01piqlf3o3,7,0,a49,6,6.0,1.0,14.615,1,1
ik2p3bz9hemu7m01piqlf3o3,8,0,a53,0,0.0,1.0,28.934,1,1
ik2p3bz9hemu7m01piqlf3o3,9,0,a55,1,3.0,0.0,1.581,1,1
ilnis4ke0tk939iw3yp0nz20,1,0,a11,4,2.0,0.0,9.02,1,1
ilnis4ke0tk939iw3yp0nz20,2,0,a24,4,5.0,0.0,5.035,1,1
ilnis4ke0tk939iw3yp0nz20,3,0,a28,7,1.0,0.0,6.937,1,1
ilnis4ke0tk939iw3yp0nz20,4,0,a36,1,5.0,0.0,11.312,1,1
ilnis4ke0tk939iw3yp0nz20,5,0,a43,4,0.0,0.0,7.209,1,1
ilnis4ke0tk939iw3yp0nz20,6,0,a48,5,6.0,0.0,9.867,1,1
ilnis4ke0tk939iw3yp0nz20,7,0,a49,6,3.0,0.0,8.744,1,1
ilnis4ke0tk939iw3yp0nz20,8,0,a53,0,4.0,0.0,8.238,1,1
ilnis4ke0tk939iw3yp0nz20,9,0,a55,1,6.0,0.0,9.268,1,1
imghzciz91a1mzo4vl38xsse,1,0,a11,4,4.0,1.0,10.998,1,1
imghzciz91a1mzo4vl38xsse,2,0,a24,4,4.0,1.0,10.316,1,1
imghzciz91a1mzo4vl38xsse,3,0,a28,7,7.0,1.0,16.926,1,1
imghzciz91a1mzo4vl38xsse,4,0,a36,1,2.0,0.0,27.055,1,1
imghzciz91a1mzo4vl38xsse,5,0,a43,4,4.0,1.0,13.649,1,1
imghzciz91a1mzo4vl38xsse,6,0,a48,5,5.0,1.0,17.417,1,1
imghzciz91a1mzo4vl38xsse,7,0,a49,6,6.0,1.0,8.766,1,1
imghzciz91a1mzo4vl38xsse,8,0,a53,0,0.0,1.0,11.653,1,1
imghzciz91a1mzo4vl38xsse,9,0,a55,1,1.0,1.0,28.583,1,1
jgtgqyg5g1f9z98a3kl89b1m,1,0,a11,4,4.0,1.0,9.217,1,1
jgtgqyg5g1f9z98a3kl89b1m,2,0,a24,4,4.0,1.0,8.614,1,1
jgtgqyg5g1f9z98a3kl89b1m,3,0,a28,7,7.0,1.0,7.488,1,1
jgtgqyg5g1f9z98a3kl89b1m,4,0,a36,1,1.0,1.0,27.247,1,1
jgtgqyg5g1f9z98a3kl89b1m,5,0,a43,4,4.0,1.0,10.098,1,1
jgtgqyg5g1f9z98a3kl89b1m,6,0,a48,5,5.0,1.0,17.049,1,1
jgtgqyg5g1f9z98a3kl89b1m,7,0,a49,6,6.0,1.0,20.803,1,1
jgtgqyg5g1f9z98a3kl89b1m,8,0,a53,0,0.0,1.0,5.558,1,1
jgtgqyg5g1f9z98a3kl89b1m,9,0,a55,1,1.0,1.0,6.385,1,1
jh2in08c6axpytckmmy87x2h,1,0,a11,4,3.0,0.0,15.387,1,1
jh2in08c6axpytckmmy87x2h,2,0,a24,4,0.0,0.0,21.396,1,1
jh2in08c6axpytckmmy87x2h,3,0,a28,7,2.0,0.0,12.179,1,1
jh2in08c6axpytckmmy87x2h,4,0,a36,1,1.0,1.0,1.539,1,1
jh2in08c6axpytckmmy87x2h,5,0,a43,4,1.0,0.0,2.558,1,1
jh2in08c6axpytckmmy87x2h,6,0,a48,5,5.0,1.0,9.828,1,1
jh2in08c6axpytckmmy87x2h,7,0,a49,6,0.0,0.0,9.132,1,1
jh2in08c6axpytckmmy87x2h,8,0,a53,0,4.0,0.0,6.203,1,1
jh2in08c6axpytckmmy87x2h,9,0,a55,1,5.0,0.0,3.324,1,1
k3cjeyoi5a4i1n77qy4j2rpj,1,0,a11,4,4.0,1.0,13.639,1,1
k3cjeyoi5a4i1n77qy4j2rpj,2,0,a24,4,4.0,1.0,6.099,1,1
k3cjeyoi5a4i1n77qy4j2rpj,3,0,a28,7,7.0,1.0,5.893,1,1
k3cjeyoi5a4i1n77qy4j2rpj,4,0,a36,1,2.0,0.0,13.098,1,1
k3cjeyoi5a4i1n77qy4j2rpj,5,0,a43,4,4.0,1.0,11.207,1,1
k3cjeyoi5a4i1n77qy4j2rpj,6,0,a48,5,4.0,0.0,15.364,1,1
k3cjeyoi5a4i1n77qy4j2rpj,7,0,a49,6,0.0,0.0,3.242,1,1
k3cjeyoi5a4i1n77qy4j2rpj,8,0,a53,0,0.0,1.0,5.908,1,1
k3cjeyoi5a4i1n77qy4j2rpj,9,0,a55,1,4.0,0.0,13.213,1,1
k8pxuud4y1w41ytj7lpvc3lc,1,0,a11,4,4.0,1.0,28.044,1,1
k8pxuud4y1w41ytj7lpvc3lc,2,0,a24,4,,,,1,1
k8pxuud4y1w41ytj7lpvc3lc,3,0,a28,7,7.0,1.0,16.883,1,1
k8pxuud4y1w41ytj7lpvc3lc,4,0,a36,1,2.0,0.0,18.64,1,1
k8pxuud4y1w41ytj7lpvc3lc,5,0,a43,4,4.0,1.0,17.317,1,1
k8pxuud4y1w41ytj7lpvc3lc,6,0,a48,5,4.0,0.0,21.264,1,1
k8pxuud4y1w41ytj7lpvc3lc,7,0,a49,6,6.0,1.0,15.756,1,1
k8pxuud4y1w41ytj7lpvc3lc,8,0,a53,0,6.0,0.0,5.73,1,1
k8pxuud4y1w41ytj7lpvc3lc,9,0,a55,1,6.0,0.0,14.124,1,1
ka14cnda7tfm6db0ezj0aedx,1,0,a11,4,4.0,1.0,15.758,1,1
ka14cnda7tfm6db0ezj0aedx,2,0,a24,4,4.0,1.0,14.301,1,1
ka14cnda7tfm6db0ezj0aedx,3,0,a28,7,,,,1,1
ka14cnda7tfm6db0ezj0aedx,4,0,a36,1,7.0,0.0,5.323,1,1
ka14cnda7tfm6db0ezj0aedx,5,0,a43,4,0.0,0.0,7.263,1,1
ka14cnda7tfm6db0ezj0aedx,6,0,a48,5,6.0,0.0,3.664,1,1
ka14cnda7tfm6db0ezj0aedx,7,0,a49,6,3.0,0.0,1.303,1,1
ka14cnda7tfm6db0ezj0aedx,8,0,a53,0,6.0,0.0,1.532,1,1
ka14cnda7tfm6db0ezj0aedx,9,0,a55,1,4.0,0.0,1.934,1,1
kgcy8fc8chqi2vfruj3ryb9z,1,0,a11,4,4.0,1.0,11.741,1,1
kgcy8fc8chqi2vfruj3ryb9z,2,0,a24,4,4.0,1.0,9.258,1,1
kgcy8fc8chqi2vfruj3ryb9z,3,0,a28,7,3.0,0.0,7.857,1,1
kgcy8fc8chqi2vfruj3ryb9z,4,0,a36,1,1.0,1.0,15.551,1,1
kgcy8fc8chqi2vfruj3ryb9z,5,0,a43,4,4.0,1.0,10.282,1,1
kgcy8fc8chqi2vfruj3ryb9z,6,0,a48,5,4.0,0.0,21.66,1,1
kgcy8fc8chqi2vfruj3ryb9z,7,0,a49,6,6.0,1.0,10.051,1,1
kgcy8fc8chqi2vfruj3ryb9z,8,0,a53,0,6.0,0.0,25.541,1,1
kgcy8fc8chqi2vfruj3ryb9z,9,0,a55,1,0.0,0.0,14.368,1,1
khxiwhzqzepa46hcz4rybm3p,1,0,a11,4,5.0,0.0,4.288,1,1
khxiwhzqzepa46hcz4rybm3p,2,0,a24,4,5.0,0.0,14.708,1,1
khxiwhzqzepa46hcz4rybm3p,3,0,a28,7,7.0,1.0,4.977,1,1
khxiwhzqzepa46hcz4rybm3p,4,0,a36,1,5.0,0.0,9.754,1,1
khxiwhzqzepa46hcz4rybm3p,5,0,a43,4,0.0,0.0,11.954,1,1
khxiwhzqzepa46hcz4rybm3p,6,0,a48,5,1.0,0.0,4.826,1,1
khxiwhzqzepa46hcz4rybm3p,7,0,a49,6,6.0,1.0,7.385,1,1
khxiwhzqzepa46hcz4rybm3p,8,0,a53,0,3.0,0.0,4.085,1,1
khxiwhzqzepa46hcz4rybm3p,9,0,a55,1,2.0,0.0,4.516,1,1
kkrrcz9oztj8tfvo6cf35n2y,1,0,a11,4,4.0,1.0,24.666,1,1
kkrrcz9oztj8tfvo6cf35n2y,2,0,a24,4,4.0,1.0,16.095,1,1
kkrrcz9oztj8tfvo6cf35n2y,3,0,a28,7,7.0,1.0,16.913,1,1
kkrrcz9oztj8tfvo6cf35n2y,4,0,a36,1,2.0,0.0,14.702,1,1
kkrrcz9oztj8tfvo6cf35n2y,5,0,a43,4,4.0,1.0,24.432,1,1
kkrrcz9oztj8tfvo6cf35n2y,6,0,a48,5,3.0,0.0,18.013,1,1
kkrrcz9oztj8tfvo6cf35n2y,7,0,a49,6,2.0,0.0,8.008,1,1
kkrrcz9oztj8tfvo6cf35n2y,8,0,a53,0,6.0,0.0,17.295,1,1
kkrrcz9oztj8tfvo6cf35n2y,9,0,a55,1,6.0,0.0,17.693,1,1
kx834pa56n2j1sij32zu1qii,1,0,a11,4,4.0,1.0,28.267,1,1
kx834pa56n2j1sij32zu1qii,2,0,a24,4,4.0,1.0,25.918,1,1
kx834pa56n2j1sij32zu1qii,3,0,a28,7,2.0,0.0,13.478,1,1
kx834pa56n2j1sij32zu1qii,4,0,a36,1,1.0,1.0,25.944,1,1
kx834pa56n2j1sij32zu1qii,5,0,a43,4,4.0,1.0,28.967,1,1
kx834pa56n2j1sij32zu1qii,6,0,a48,5,7.0,0.0,29.165,1,1
kx834pa56n2j1sij32zu1qii,7,0,a49,6,6.0,1.0,26.592,1,1
kx834pa56n2j1sij32zu1qii,8,0,a53,0,0.0,1.0,8.654,1,1
kx834pa56n2j1sij32zu1qii,9,0,a55,1,,,,1,1
l6m44ya9hf1jsm05qwyu8n1s,1,0,a11,4,4.0,1.0,8.592,1,1
l6m44ya9hf1jsm05qwyu8n1s,2,0,a24,4,4.0,1.0,6.793,1,1
l6m44ya9hf1jsm05qwyu8n1s,3,0,a28,7,7.0,1.0,6.659,1,1
l6m44ya9hf1jsm05qwyu8n1s,4,0,a36,1,2.0,0.0,8.747,1,1
l6m44ya9hf1jsm05qwyu8n1s,5,0,a43,4,4.0,1.0,12.05,1,1
l6m44ya9hf1jsm05qwyu8n1s,6,0,a48,5,6.0,0.0,12.051,1,1
l6m44ya9hf1jsm05qwyu8n1s,7,0,a49,6,2.0,0.0,6.412,1,1
l6m44ya9hf1jsm05qwyu8n1s,8,0,a53,0,6.0,0.0,10.876,1,1
l6m44ya9hf1jsm05qwyu8n1s,9,0,a55,1,6.0,0.0,8.365,1,1
lcumyg3r2l43ji3yzajenmkx,1,0,a11,4,4.0,1.0,15.111,1,1
lcumyg3r2l43ji3yzajenmkx,2,0,a24,4,4.0,1.0,16.897,1,1
lcumyg3r2l43ji3yzajenmkx,3,0,a28,7,7.0,1.0,16.689,1,1
lcumyg3r2l43ji3yzajenmkx,4,0,a36,1,1.0,1.0,26.841,1,1
lcumyg3r2l43ji3yzajenmkx,5,0,a43,4,4.0,1.0,24.669,1,1
lcumyg3r2l43ji3yzajenmkx,6,0,a48,5,5.0,1.0,26.514,1,1
lcumyg3r2l43ji3yzajenmkx,7,0,a49,6,6.0,1.0,8.618,1,1
lcumyg3r2l43ji3yzajenmkx,8,0,a53,0,0.0,1.0,13.666,1,1
lcumyg3r2l43ji3yzajenmkx,9,0,a55,1,1.0,1.0,29.279,1,1
lgzvkqrqs46d2jeqth187kt6,1,0,a11,4,0.0,0.0,7.013,1,1
lgzvkqrqs46d2jeqth187kt6,2,0,a24,4,3.0,0.0,7.95,1,1
lgzvkqrqs46d2jeqth187kt6,3,0,a28,7,2.0,0.0,11.858,1,1
lgzvkqrqs46d2jeqth187kt6,4,0,a36,1,2.0,0.0,12.703,1,1
lgzvkqrqs46d2jeqth187kt6,5,0,a43,4,4.0,1.0,11.857,1,1
lgzvkqrqs46d2jeqth187kt6,6,0,a48,5,6.0,0.0,20.332,1,1
lgzvkqrqs46d2jeqth187kt6,7,0,a49,6,6.0,1.0,10.041,1,1
lgzvkqrqs46d2jeqth187kt6,8,0,a53,0,0.0,1.0,8.933,1,1
lgzvkqrqs46d2jeqth187kt6,9,0,a55,1,1.0,1.0,26.484,1,1
lnb4mnnq884abhki3y40vyn5,1,0,a11,4,4.0,1.0,25.428,1,1
lnb4mnnq884abhki3y40vyn5,2,0,a24,4,4.0,1.0,10.862,1,1
lnb4mnnq884abhki3y40vyn5,3,0,a28,7,7.0,1.0,12.978,1,1
lnb4mnnq884abhki3y40vyn5,4,0,a36,1,4.0,0.0,17.529,1,1
lnb4mnnq884abhki3y40vyn5,5,0,a43,4,4.0,1.0,13.835,1,1
lnb4mnnq884abhki3y40vyn5,6,0,a48,5,6.0,0.0,14.655,1,1
lnb4mnnq884abhki3y40vyn5,7,0,a49,6,6.0,1.0,11.132,1,1
lnb4mnnq884abhki3y40vyn5,8,0,a53,0,2.0,0.0,17.993,1,1
lnb4mnnq884abhki3y40vyn5,9,0,a55,1,5.0,0.0,12.776,1,1
lzihg9s21ur09mrjq4k2cwq4,1,0,a11,4,5.0,0.0,17.512,1,1
lzihg9s21ur09mrjq4k2cwq4,2,0,a24,4,1.0,0.0,14.369,1,1
lzihg9s21ur09mrjq4k2cwq4,3,0,a28,7,7.0,1.0,12.843,1,1
lzihg9s21ur09mrjq4k2cwq4,4,0,a36,1,2.0,0.0,17.489,1,1
lzihg9s21ur09mrjq4k2cwq4,5,0,a43,4,4.0,1.0,18.794,1,1
lzihg9s21ur09mrjq4k2cwq4,6,0,a48,5,7.0,0.0,25.905,1,1
lzihg9s21ur09mrjq4k2cwq4,7,0,a49,6,2.0,0.0,11.623,1,1
lzihg9s21ur09mrjq4k2cwq4,8,0,a53,0,0.0,1.0,23.505,1,1
lzihg9s21ur09mrjq4k2cwq4,9,0,a55,1,3.0,0.0,27.334,1,1
m17k2y6bdzttrg9u5nksilc7,1,0,a11,4,4.0,1.0,7.954,1,1
m17k2y6bdzttrg9u5nksilc7,2,0,a24,4,5.0,0.0,5.352,1,1
m17k2y6bdzttrg9u5nksilc7,3,0,a28,7,2.0,0.0,7.324,1,1
m17k2y6bdzttrg9u5nksilc7,4,0,a36,1,2.0,0.0,6.209,1,1
m17k2y6bdzttrg9u5nksilc7,5,0,a43,4,4.0,1.0,8.507,1,1
m17k2y6bdzttrg9u5nksilc7,6,0,a48,5,6.0,0.0,9.127,1,1
m17k2y6bdzttrg9u5nksilc7,7,0,a49,6,0.0,0.0,2.92,1,1
m17k2y6bdzttrg9u5nksilc7,8,0,a53,0,5.0,0.0,10.185,1,1
m17k2y6bdzttrg9u5nksilc7,9,0,a55,1,6.0,0.0,2.588,1,1
m3eq3hhc22veibijwms22et7,1,0,a11,4,1.0,0.0,7.636,1,1
m3eq3hhc22veibijwms22et7,2,0,a24,4,0.0,0.0,3.657,1,1
m3eq3hhc22veibijwms22et7,3,0,a28,7,2.0,0.0,4.449,1,1
m3eq3hhc22veibijwms22et7,4,0,a36,1,1.0,1.0,3.645,1,1
m3eq3hhc22veibijwms22et7,5,0,a43,4,7.0,0.0,4.292,1,1
m3eq3hhc22veibijwms22et7,6,0,a48,5,3.0,0.0,5.633,1,1
m3eq3hhc22veibijwms22et7,7,0,a49,6,2.0,0.0,9.763,1,1
m3eq3hhc22veibijwms22et7,8,0,a53,0,6.0,0.0,2.953,1,1
m3eq3hhc22veibijwms22et7,9,0,a55,1,3.0,0.0,4.48,1,1
m8ezoj16iut6jnfcv0cloyrs,1,0,a11,4,4.0,1.0,9.311,1,1
m8ezoj16iut6jnfcv0cloyrs,2,0,a24,4,4.0,1.0,4.898,1,1
m8ezoj16iut6jnfcv0cloyrs,3,0,a28,7,3.0,0.0,15.322,1,1
m8ezoj16iut6jnfcv0cloyrs,4,0,a36,1,2.0,0.0,13.721,1,1
m8ezoj16iut6jnfcv0cloyrs,5,0,a43,4,4.0,1.0,12.361,1,1
m8ezoj16iut6jnfcv0cloyrs,6,0,a48,5,3.0,0.0,18.07,1,1
m8ezoj16iut6jnfcv0cloyrs,7,0,a49,6,6.0,1.0,11.565,1,1
m8ezoj16iut6jnfcv0cloyrs,8,0,a53,0,4.0,0.0,4.513,1,1
m8ezoj16iut6jnfcv0cloyrs,9,0,a55,1,4.0,0.0,21.365,1,1
mce8ffaz0jhibwi2l8ftnsk7,1,0,a11,4,4.0,1.0,11.636,1,1
mce8ffaz0jhibwi2l8ftnsk7,2,0,a24,4,4.0,1.0,8.493,1,1
mce8ffaz0jhibwi2l8ftnsk7,3,0,a28,7,7.0,1.0,5.852,1,1
mce8ffaz0jhibwi2l8ftnsk7,4,0,a36,1,2.0,0.0,18.839,1,1
mce8ffaz0jhibwi2l8ftnsk7,5,0,a43,4,4.0,1.0,8.487,1,1
mce8ffaz0jhibwi2l8ftnsk7,6,0,a48,5,1.0,0.0,12.208,1,1
mce8ffaz0jhibwi2l8ftnsk7,7,0,a49,6,6.0,1.0,8.8,1,1
mce8ffaz0jhibwi2l8ftnsk7,8,0,a53,0,2.0,0.0,17.514,1,1
mce8ffaz0jhibwi2l8ftnsk7,9,0,a55,1,0.0,0.0,13.174,1,1
mfaomhbw04yx9mipttpsveyn,1,0,a11,4,5.0,0.0,9.361,1,1
mfaomhbw04yx9mipttpsveyn,2,0,a24,4,1.0,0.0,19.926,1,1
mfaomhbw04yx9mipttpsveyn,3,0,a28,7,7.0,1.0,16.438,1,1
mfaomhbw04yx9mipttpsveyn,4,0,a36,1,6.0,0.0,8.264,1,1
mfaomhbw04yx9mipttpsveyn,5,0,a43,4,4.0,1.0,18.46,1,1
mfaomhbw04yx9mipttpsveyn,6,0,a48,5,2.0,0.0,13.884,1,1
mfaomhbw04yx9mipttpsveyn,7,0,a49,6,6.0,1.0,12.062,1,1
mfaomhbw04yx9mipttpsveyn,8,0,a53,0,6.0,0.0,13.067,1,1
mfaomhbw04yx9mipttpsveyn,9,0,a55,1,0.0,0.0,18.116,1,1
mnqxftxd0fdijb3g3d25k8o4,1,0,a11,4,5.0,0.0,21.463,1,1
mnqxftxd0fdijb3g3d25k8o4,2,0,a24,4,4.0,1.0,15.44,1,1
mnqxftxd0fdijb3g3d25k8o4,3,0,a28,7,7.0,1.0,19.421,1,1
mnqxftxd0fdijb3g3d25k8o4,4,0,a36,1,2.0,0.0,16.382,1,1
mnqxftxd0fdijb3g3d25k8o4,5,0,a43,4,4.0,1.0,15.398,1,1
mnqxftxd0fdijb3g3d25k8o4,6,0,a48,5,6.0,0.0,17.782,1,1
mnqxftxd0fdijb3g3d25k8o4,7,0,a49,6,6.0,1.0,11.204,1,1
mnqxftxd0fdijb3g3d25k8o4,8,0,a53,0,0.0,1.0,14.374,1,1
mnqxftxd0fdijb3g3d25k8o4,9,0,a55,1,7.0,0.0,16.629,1,1
mpameguxsrwa38o55i7kignl,1,0,a11,4,1.0,0.0,12.052,1,1
mpameguxsrwa38o55i7kignl,2,0,a24,4,4.0,1.0,9.007,1,1
mpameguxsrwa38o55i7kignl,3,0,a28,7,7.0,1.0,7.885,1,1
mpameguxsrwa38o55i7kignl,4,0,a36,1,2.0,0.0,8.633,1,1
mpameguxsrwa38o55i7kignl,5,0,a43,4,0.0,0.0,16.356,1,1
mpameguxsrwa38o55i7kignl,6,0,a48,5,7.0,0.0,18.193,1,1
mpameguxsrwa38o55i7kignl,7,0,a49,6,2.0,0.0,8.959,1,1
mpameguxsrwa38o55i7kignl,8,0,a53,0,6.0,0.0,13.528,1,1
mpameguxsrwa38o55i7kignl,9,0,a55,1,2.0,0.0,17.926,1,1
mrtt5iud3614iymva7gxuaeo,1,0,a11,4,4.0,1.0,9.581,1,1
mrtt5iud3614iymva7gxuaeo,2,0,a24,4,0.0,0.0,11.335,1,1
mrtt5iud3614iymva7gxuaeo,3,0,a28,7,7.0,1.0,7.076,1,1
mrtt5iud3614iymva7gxuaeo,4,0,a36,1,0.0,0.0,14.832,1,1
mrtt5iud3614iymva7gxuaeo,5,0,a43,4,4.0,1.0,16.34,1,1
mrtt5iud3614iymva7gxuaeo,6,0,a48,5,7.0,0.0,13.665,1,1
mrtt5iud3614iymva7gxuaeo,7,0,a49,6,6.0,1.0,5.498,1,1
mrtt5iud3614iymva7gxuaeo,8,0,a53,0,0.0,1.0,10.254,1,1
mrtt5iud3614iymva7gxuaeo,9,0,a55,1,5.0,0.0,24.09,1,1
n0tjhn39vpoezs9wjk0gntyf,1,0,a11,4,0.0,0.0,29.658,1,1
n0tjhn39vpoezs9wjk0gntyf,2,0,a24,4,3.0,0.0,13.237,1,1
n0tjhn39vpoezs9wjk0gntyf,3,0,a28,7,3.0,0.0,16.199,1,1
n0tjhn39vpoezs9wjk0gntyf,4,0,a36,1,1.0,1.0,14.625,1,1
n0tjhn39vpoezs9wjk0gntyf,5,0,a43,4,2.0,0.0,20.866,1,1
n0tjhn39vpoezs9wjk0gntyf,6,0,a48,5,6.0,0.0,25.461,1,1
n0tjhn39vpoezs9wjk0gntyf,7,0,a49,6,6.0,1.0,26.125,1,1
n0tjhn39vpoezs9wjk0gntyf,8,0,a53,0,5.0,0.0,28.448,1,1
n0tjhn39vpoezs9wjk0gntyf,9,0,a55,1,6.0,0.0,22.617,1,1
n6eyi6k1oosxo133kugr9f9d,1,0,a11,4,4.0,1.0,15.564,1,1
n6eyi6k1oosxo133kugr9f9d,2,0,a24,4,4.0,1.0,13.793,1,1
n6eyi6k1oosxo133kugr9f9d,3,0,a28,7,7.0,1.0,6.511,1,1
n6eyi6k1oosxo133kugr9f9d,4,0,a36,1,7.0,0.0,18.413,1,1
n6eyi6k1oosxo133kugr9f9d,5,0,a43,4,4.0,1.0,23.08,1,1
n6eyi6k1oosxo133kugr9f9d,6,0,a48,5,6.0,0.0,14.094,1,1
n6eyi6k1oosxo133kugr9f9d,7,0,a49,6,6.0,1.0,12.409,1,1
n6eyi6k1oosxo133kugr9f9d,8,0,a53,0,3.0,0.0,17.028,1,1
n6eyi6k1oosxo133kugr9f9d,9,0,a55,1,7.0,0.0,11.062,1,1
ni3u1j0yq0w15u4va0pbif6q,1,0,a11,4,5.0,0.0,15.049,1,1
ni3u1j0yq0w15u4va0pbif6q,2,0,a24,4,4.0,1.0,9.442,1,1
ni3u1j0yq0w15u4va0pbif6q,3,0,a28,7,7.0,1.0,9.429,1,1
ni3u1j0yq0w15u4va0pbif6q,4,0,a36,1,4.0,0.0,16.546,1,1
ni3u1j0yq0w15u4va0pbif6q,5,0,a43,4,4.0,1.0,10.261,1,1
ni3u1j0yq0w15u4va0pbif6q,6,0,a48,5,6.0,0.0,26.988,1,1
ni3u1j0yq0w15u4va0pbif6q,7,0,a49,6,6.0,1.0,6.57,1,1
ni3u1j0yq0w15u4va0pbif6q,8,0,a53,0,6.0,0.0,24.65,1,1
ni3u1j0yq0w15u4va0pbif6q,9,0,a55,1,5.0,0.0,17.163,1,1
no9etujarmhhxqnd88zig7hw,1,0,a11,4,0.0,0.0,5.568,1,1
no9etujarmhhxqnd88zig7hw,2,0,a24,4,4.0,1.0,12.126,1,1
no9etujarmhhxqnd88zig7hw,3,0,a28,7,7.0,1.0,8.331,1,1
no9etujarmhhxqnd88zig7hw,4,0,a36,1,1.0,1.0,13.448,1,1
no9etujarmhhxqnd88zig7hw,5,0,a43,4,7.0,0.0,7.266,1,1
no9etujarmhhxqnd88zig7hw,6,0,a48,5,6.0,0.0,13.26,1,1
no9etujarmhhxqnd88zig7hw,7,0,a49,6,6.0,1.0,3.675,1,1
no9etujarmhhxqnd88zig7hw,8,0,a53,0,0.0,1.0,11.192,1,1
no9etujarmhhxqnd88zig7hw,9,0,a55,1,6.0,0.0,15.029,1,1
nvpselq4oo94p257gc1a25iw,1,0,a11,4,5.0,0.0,7.516,1,1
nvpselq4oo94p257gc1a25iw,2,0,a24,4,2.0,0.0,9.516,1,1
nvpselq4oo94p257gc1a25iw,3,0,a28,7,7.0,1.0,7.536,1,1
nvpselq4oo94p257gc1a25iw,4,0,a36,1,0.0,0.0,10.273,1,1
nvpselq4oo94p257gc1a25iw,5,0,a43,4,4.0,1.0,16.383,1,1
nvpselq4oo94p257gc1a25iw,6,0,a48,5,6.0,0.0,11.512,1,1
nvpselq4oo94p257gc1a25iw,7,0,a49,6,0.0,0.0,25.463,1,1
nvpselq4oo94p257gc1a25iw,8,0,a53,0,6.0,0.0,16.642,1,1
nvpselq4oo94p257gc1a25iw,9,0,a55,1,6.0,0.0,7.574,1,1
nw0cegr0f9yq4no9oueeczjw,1,0,a11,4,5.0,0.0,7.98,1,1
nw0cegr0f9yq4no9oueeczjw,2,0,a24,4,4.0,1.0,12.007,1,1
nw0cegr0f9yq4no9oueeczjw,3,0,a28,7,7.0,1.0,12.633,1,1
nw0cegr0f9yq4no9oueeczjw,4,0,a36,1,2.0,0.0,21.932,1,1
nw0cegr0f9yq4no9oueeczjw,5,0,a43,4,4.0,1.0,22.694,1,1
nw0cegr0f9yq4no9oueeczjw,6,0,a48,5,6.0,0.0,15.878,1,1
nw0cegr0f9yq4no9oueeczjw,7,0,a49,6,2.0,0.0,10.372,1,1
nw0cegr0f9yq4no9oueeczjw,8,0,a53,0,0.0,1.0,7.962,1,1
nw0cegr0f9yq4no9oueeczjw,9,0,a55,1,3.0,0.0,19.833,1,1
o38nghilxzxtavbu0wsiy2l5,1,0,a11,4,5.0,0.0,3.863,1,1
o38nghilxzxtavbu0wsiy2l5,2,0,a24,4,1.0,0.0,5.97,1,1
o38nghilxzxtavbu0wsiy2l5,3,0,a28,7,7.0,1.0,6.966,1,1
o38nghilxzxtavbu0wsiy2l5,4,0,a36,1,1.0,1.0,5.21,1,1
o38nghilxzxtavbu0wsiy2l5,5,0,a43,4,4.0,1.0,3.795,1,1
o38nghilxzxtavbu0wsiy2l5,6,0,a48,5,6.0,0.0,0.918,1,1
o38nghilxzxtavbu0wsiy2l5,7,0,a49,6,4.0,0.0,0.508,1,1
o38nghilxzxtavbu0wsiy2l5,8,0,a53,0,1.0,0.0,0.631,1,1
o38nghilxzxtavbu0wsiy2l5,9,0,a55,1,6.0,0.0,0.766,1,1
opj9y1sz66t3r6bjrh50ka3i,1,0,a11,4,5.0,0.0,10.481,1,1
opj9y1sz66t3r6bjrh50ka3i,2,0,a24,4,5.0,0.0,20.167,1,1
opj9y1sz66t3r6bjrh50ka3i,3,0,a28,7,7.0,1.0,10.803,1,1
opj9y1sz66t3r6bjrh50ka3i,4,0,a36,1,3.0,0.0,16.356,1,1
opj9y1sz66t3r6bjrh50ka3i,5,0,a43,4,7.0,0.0,19.217,1,1
opj9y1sz66t3r6bjrh50ka3i,6,0,a48,5,1.0,0.0,5.754,1,1
opj9y1sz66t3r6bjrh50ka3i,7,0,a49,6,6.0,1.0,3.795,1,1
opj9y1sz66t3r6bjrh50ka3i,8,0,a53,0,0.0,1.0,4.927,1,1
opj9y1sz66t3r6bjrh50ka3i,9,0,a55,1,7.0,0.0,6.312,1,1
p61excm9v4fu5qgwhzeltajq,1,0,a11,4,4.0,1.0,9.68,1,1
p61excm9v4fu5qgwhzeltajq,2,0,a24,4,4.0,1.0,18.755,1,1
p61excm9v4fu5qgwhzeltajq,3,0,a28,7,7.0,1.0,14.134,1,1
p61excm9v4fu5qgwhzeltajq,4,0,a36,1,2.0,0.0,12.614,1,1
p61excm9v4fu5qgwhzeltajq,5,0,a43,4,2.0,0.0,15.228,1,1
p61excm9v4fu5qgwhzeltajq,6,0,a48,5,,,,1,1
p61excm9v4fu5qgwhzeltajq,7,0,a49,6,0.0,0.0,11.743,1,1
p61excm9v4fu5qgwhzeltajq,8,0,a53,0,0.0,1.0,4.474,1,1
p61excm9v4fu5qgwhzeltajq,9,0,a55,1,2.0,0.0,2.463,1,1
p664ko4hnx2kyewaf12h0xhk,1,0,a11,4,5.0,0.0,5.198,1,1
p664ko4hnx2kyewaf12h0xhk,2,0,a24,4,5.0,0.0,6.484,1,1
p664ko4hnx2kyewaf12h0xhk,3,0,a28,7,7.0,1.0,5.645,1,1
p664ko4hnx2kyewaf12h0xhk,4,0,a36,1,2.0,0.0,5.899,1,1
p664ko4hnx2kyewaf12h0xhk,5,0,a43,4,4.0,1.0,8.668,1,1
p664ko4hnx2kyewaf12h0xhk,6,0,a48,5,6.0,0.0,9.121,1,1
p664ko4hnx2kyewaf12h0xhk,7,0,a49,6,6.0,1.0,7.462,1,1
p664ko4hnx2kyewaf12h0xhk,8,0,a53,0,2.0,0.0,9.235,1,1
p664ko4hnx2kyewaf12h0xhk,9,0,a55,1,3.0,0.0,12.743,1,1
p839dsw008exmn58z4mesxjn,1,0,a11,4,4.0,1.0,9.219,1,1
p839dsw008exmn58z4mesxjn,2,0,a24,4,4.0,1.0,14.708,1,1
p839dsw008exmn58z4mesxjn,3,0,a28,7,7.0,1.0,19.492,1,1
p839dsw008exmn58z4mesxjn,4,0,a36,1,0.0,0.0,28.389,1,1
p839dsw008exmn58z4mesxjn,5,0,a43,4,4.0,1.0,15.526,1,1
p839dsw008exmn58z4mesxjn,6,0,a48,5,5.0,1.0,28.084,1,1
p839dsw008exmn58z4mesxjn,7,0,a49,6,6.0,1.0,7.269,1,1
p839dsw008exmn58z4mesxjn,8,0,a53,0,0.0,1.0,9.206,1,1
p839dsw008exmn58z4mesxjn,9,0,a55,1,1.0,1.0,20.653,1,1
pjvtxsee2o4b6v57h9na9izn,1,0,a11,4,4.0,1.0,13.535,1,1
pjvtxsee2o4b6v57h9na9izn,2,0,a24,4,4.0,1.0,27.825,1,1
pjvtxsee2o4b6v57h9na9izn,3,0,a28,7,7.0,1.0,5.876,1,1
pjvtxsee2o4b6v57h9na9izn,4,0,a36,1,1.0,1.0,16.157,1,1
pjvtxsee2o4b6v57h9na9izn,5,0,a43,4,4.0,1.0,10.423,1,1
pjvtxsee2o4b6v57h9na9izn,6,0,a48,5,4.0,0.0,12.979,1,1
pjvtxsee2o4b6v57h9na9izn,7,0,a49,6,6.0,1.0,7.148,1,1
pjvtxsee2o4b6v57h9na9izn,8,0,a53,0,0.0,1.0,7.215,1,1
pjvtxsee2o4b6v57h9na9izn,9,0,a55,1,1.0,1.0,14.412,1,1
pmgtj39vj19t57cb5zmkqheq,1,0,a11,4,5.0,0.0,3.53,1,1
pmgtj39vj19t57cb5zmkqheq,2,0,a24,4,5.0,0.0,3.029,1,1
pmgtj39vj19t57cb5zmkqheq,3,0,a28,7,7.0,1.0,4.032,1,1
pmgtj39vj19t57cb5zmkqheq,4,0,a36,1,2.0,0.0,5.879,1,1
pmgtj39vj19t57cb5zmkqheq,5,0,a43,4,7.0,0.0,3.521,1,1
pmgtj39vj19t57cb5zmkqheq,6,0,a48,5,7.0,0.0,6.262,1,1
pmgtj39vj19t57cb5zmkqheq,7,0,a49,6,0.0,0.0,2.451,1,1
pmgtj39vj19t57cb5zmkqheq,8,0,a53,0,6.0,0.0,2.48,1,1
pmgtj39vj19t57cb5zmkqheq,9,0,a55,1,3.0,0.0,3.927,1,1
puvybepqr6nhcroheexfltg7,1,0,a11,4,5.0,0.0,16.065,1,1
puvybepqr6nhcroheexfltg7,2,0,a24,4,3.0,0.0,12.148,1,1
puvybepqr6nhcroheexfltg7,3,0,a28,7,7.0,1.0,8.96,1,1
puvybepqr6nhcroheexfltg7,4,0,a36,1,6.0,0.0,12.043,1,1
puvybepqr6nhcroheexfltg7,5,0,a43,4,5.0,0.0,8.39,1,1
puvybepqr6nhcroheexfltg7,6,0,a48,5,4.0,0.0,16.336,1,1
puvybepqr6nhcroheexfltg7,7,0,a49,6,5.0,0.0,18.583,1,1
puvybepqr6nhcroheexfltg7,8,0,a53,0,6.0,0.0,8.372,1,1
puvybepqr6nhcroheexfltg7,9,0,a55,1,6.0,0.0,3.116,1,1
q0otlj40mkejv3a38i0bcdqw,1,0,a11,4,4.0,1.0,8.022,1,1
q0otlj40mkejv3a38i0bcdqw,2,0,a24,4,4.0,1.0,11.801,1,1
q0otlj40mkejv3a38i0bcdqw,3,0,a28,7,7.0,1.0,3.009,1,1
q0otlj40mkejv3a38i0bcdqw,4,0,a36,1,0.0,0.0,15.026,1,1
q0otlj40mkejv3a38i0bcdqw,5,0,a43,4,1.0,0.0,8.005,1,1
q0otlj40mkejv3a38i0bcdqw,6,0,a48,5,1.0,0.0,11.626,1,1
q0otlj40mkejv3a38i0bcdqw,7,0,a49,6,4.0,0.0,16.202,1,1
q0otlj40mkejv3a38i0bcdqw,8,0,a53,0,3.0,0.0,3.511,1,1
q0otlj40mkejv3a38i0bcdqw,9,0,a55,1,0.0,0.0,4.682,1,1
qdf2mfp8poxa6dsi27a0za66,1,0,a11,4,4.0,1.0,12.973,1,1
qdf2mfp8poxa6dsi27a0za66,2,0,a24,4,5.0,0.0,9.061,1,1
qdf2mfp8poxa6dsi27a0za66,3,0,a28,7,7.0,1.0,11.142,1,1
qdf2mfp8poxa6dsi27a0za66,4,0,a36,1,1.0,1.0,14.347,1,1
qdf2mfp8poxa6dsi27a0za66,5,0,a43,4,4.0,1.0,18.054,1,1
qdf2mfp8poxa6dsi27a0za66,6,0,a48,5,3.0,0.0,13.451,1,1
qdf2mfp8poxa6dsi27a0za66,7,0,a49,6,6.0,1.0,5.83,1,1
qdf2mfp8poxa6dsi27a0za66,8,0,a53,0,0.0,1.0,10.153,1,1
qdf2mfp8poxa6dsi27a0za66,9,0,a55,1,2.0,0.0,10.298,1,1
r93yrn75ehiob4n560tt02k0,1,0,a11,4,4.0,1.0,14.644,1,1
r93yrn75ehiob4n560tt02k0,2,0,a24,4,4.0,1.0,21.252,1,1
r93yrn75ehiob4n560tt02k0,3,0,a28,7,7.0,1.0,10.165,1,1
r93yrn75ehiob4n560tt02k0,4,0,a36,1,1.0,1.0,28.022,1,1
r93yrn75ehiob4n560tt02k0,5,0,a43,4,4.0,1.0,19.967,1,1
r93yrn75ehiob4n560tt02k0,6,0,a48,5,4.0,0.0,29.385,1,1
r93yrn75ehiob4n560tt02k0,7,0,a49,6,6.0,1.0,13.205,1,1
r93yrn75ehiob4n560tt02k0,8,0,a53,0,0.0,1.0,16.381,1,1
r93yrn75ehiob4n560tt02k0,9,0,a55,1,,,,1,1
rcf9k7ge09nlmts9sw2djs74,1,0,a11,4,0.0,0.0,10.894,1,1
rcf9k7ge09nlmts9sw2djs74,2,0,a24,4,1.0,0.0,27.683,1,1
rcf9k7ge09nlmts9sw2djs74,3,0,a28,7,7.0,1.0,16.372,1,1
rcf9k7ge09nlmts9sw2djs74,4,0,a36,1,2.0,0.0,12.877,1,1
rcf9k7ge09nlmts9sw2djs74,5,0,a43,4,4.0,1.0,19.197,1,1
rcf9k7ge09nlmts9sw2djs74,6,0,a48,5,7.0,0.0,25.662,1,1
rcf9k7ge09nlmts9sw2djs74,7,0,a49,6,6.0,1.0,19.594,1,1
rcf9k7ge09nlmts9sw2djs74,8,0,a53,0,0.0,1.0,6.173,1,1
rcf9k7ge09nlmts9sw2djs74,9,0,a55,1,1.0,1.0,10.719,1,1
rd7soemfcikeomb8jogp0hye,1,0,a11,4,0.0,0.0,5.924,1,1
rd7soemfcikeomb8jogp0hye,2,0,a24,4,0.0,0.0,8.974,1,1
rd7soemfcikeomb8jogp0hye,3,0,a28,7,7.0,1.0,7.067,1,1
rd7soemfcikeomb8jogp0hye,4,0,a36,1,2.0,0.0,10.974,1,1
rd7soemfcikeomb8jogp0hye,5,0,a43,4,7.0,0.0,4.533,1,1
rd7soemfcikeomb8jogp0hye,6,0,a48,5,7.0,0.0,5.728,1,1
rd7soemfcikeomb8jogp0hye,7,0,a49,6,0.0,0.0,4.178,1,1
rd7soemfcikeomb8jogp0hye,8,0,a53,0,6.0,0.0,6.437,1,1
rd7soemfcikeomb8jogp0hye,9,0,a55,1,5.0,0.0,2.611,1,1
rkli3iolzfwbybhroh8mw008,1,0,a11,4,5.0,0.0,27.57,1,1
rkli3iolzfwbybhroh8mw008,2,0,a24,4,2.0,0.0,17.41,1,1
rkli3iolzfwbybhroh8mw008,3,0,a28,7,2.0,0.0,18.933,1,1
rkli3iolzfwbybhroh8mw008,4,0,a36,1,0.0,0.0,17.865,1,1
rkli3iolzfwbybhroh8mw008,5,0,a43,4,4.0,1.0,10.301,1,1
rkli3iolzfwbybhroh8mw008,6,0,a48,5,3.0,0.0,21.403,1,1
rkli3iolzfwbybhroh8mw008,7,0,a49,6,3.0,0.0,16.599,1,1
rkli3iolzfwbybhroh8mw008,8,0,a53,0,5.0,0.0,11.354,1,1
rkli3iolzfwbybhroh8mw008,9,0,a55,1,7.0,0.0,9.394,1,1
rvkzpohfi072kwf7jt2eq6zn,1,0,a11,4,4.0,1.0,29.691,1,1
rvkzpohfi072kwf7jt2eq6zn,2,0,a24,4,4.0,1.0,25.636,1,1
rvkzpohfi072kwf7jt2eq6zn,3,0,a28,7,7.0,1.0,18.025,1,1
rvkzpohfi072kwf7jt2eq6zn,4,0,a36,1,,,,1,1
rvkzpohfi072kwf7jt2eq6zn,5,0,a43,4,4.0,1.0,15.562,1,1
rvkzpohfi072kwf7jt2eq6zn,6,0,a48,5,4.0,0.0,20.635,1,1
rvkzpohfi072kwf7jt2eq6zn,7,0,a49,6,2.0,0.0,16.136,1,1
rvkzpohfi072kwf7jt2eq6zn,8,0,a53,0,0.0,1.0,16.549,1,1
rvkzpohfi072kwf7jt2eq6zn,9,0,a55,1,7.0,0.0,23.204,1,1
s0g6irwfnbimdq5e9l854o7w,1,0,a11,4,4.0,1.0,13.288,1,1
s0g6irwfnbimdq5e9l854o7w,2,0,a24,4,4.0,1.0,25.318,1,1
s0g6irwfnbimdq5e9l854o7w,3,0,a28,7,7.0,1.0,16.959,1,1
s0g6irwfnbimdq5e9l854o7w,4,0,a36,1,2.0,0.0,20.691,1,1
s0g6irwfnbimdq5e9l854o7w,5,0,a43,4,4.0,1.0,19.998,1,1
s0g6irwfnbimdq5e9l854o7w,6,0,a48,5,6.0,0.0,19.232,1,1
s0g6irwfnbimdq5e9l854o7w,7,0,a49,6,6.0,1.0,14.276,1,1
s0g6irwfnbimdq5e9l854o7w,8,0,a53,0,0.0,1.0,9.803,1,1
s0g6irwfnbimdq5e9l854o7w,9,0,a55,1,0.0,0.0,29.112,1,1
sf0938kne0bj4f1b2tn9q03j,1,0,a11,4,3.0,0.0,12.46,1,1
sf0938kne0bj4f1b2tn9q03j,2,0,a24,4,5.0,0.0,14.855,1,1
sf0938kne0bj4f1b2tn9q03j,3,0,a28,7,7.0,1.0,17.058,1,1
sf0938kne0bj4f1b2tn9q03j,4,0,a36,1,3.0,0.0,13.437,1,1
sf0938kne0bj4f1b2tn9q03j,5,0,a43,4,4.0,1.0,15.993,1,1
sf0938kne0bj4f1b2tn9q03j,6,0,a48,5,1.0,0.0,16.882,1,1
sf0938kne0bj4f1b2tn9q03j,7,0,a49,6,6.0,1.0,10.479,1,1
sf0938kne0bj4f1b2tn9q03j,8,0,a53,0,6.0,0.0,15.339,1,1
sf0938kne0bj4f1b2tn9q03j,9,0,a55,1,6.0,0.0,19.738,1,1
sp7vppyr5mupqaclooyzeyi5,1,0,a11,4,3.0,0.0,29.024,1,1
sp7vppyr5mupqaclooyzeyi5,2,0,a24,4,4.0,1.0,22.688,1,1
sp7vppyr5mupqaclooyzeyi5,3,0,a28,7,7.0,1.0,12.457,1,1
sp7vppyr5mupqaclooyzeyi5,4,0,a36,1,1.0,1.0,22.067,1,1
sp7vppyr5mupqaclooyzeyi5,5,0,a43,4,4.0,1.0,19.162,1,1
sp7vppyr5mupqaclooyzeyi5,6,0,a48,5,5.0,1.0,29.779,1,1
sp7vppyr5mupqaclooyzeyi5,7,0,a49,6,6.0,1.0,9.44,1,1
sp7vppyr5mupqaclooyzeyi5,8,0,a53,0,0.0,1.0,6.244,1,1
sp7vppyr5mupqaclooyzeyi5,9,0,a55,1,5.0,0.0,29.897,1,1
ssupc0jmqz42x4q16zjlfrz4,1,0,a11,4,4.0,1.0,10.517,1,1
ssupc0jmqz42x4q16zjlfrz4,2,0,a24,4,4.0,1.0,24.043,1,1
ssupc0jmqz42x4q16zjlfrz4,3,0,a28,7,7.0,1.0,24.949,1,1
ssupc0jmqz42x4q16zjlfrz4,4,0,a36,1,1.0,1.0,22.297,1,1
ssupc0jmqz42x4q16zjlfrz4,5,0,a43,4,4.0,1.0,13.466,1,1
ssupc0jmqz42x4q16zjlfrz4,6,0,a48,5,,,,1,1
ssupc0jmqz42x4q16zjlfrz4,7,0,a49,6,6.0,1.0,10.966,1,1
ssupc0jmqz42x4q16zjlfrz4,8,0,a53,0,0.0,1.0,9.888,1,1
ssupc0jmqz42x4q16zjlfrz4,9,0,a55,1,1.0,1.0,25.822,1,1
sujlea0qq3ilrxgjyu9vx1i7,1,0,a11,4,5.0,0.0,10.572,1,1
sujlea0qq3ilrxgjyu9vx1i7,2,0,a24,4,4.0,1.0,10.004,1,1
sujlea0qq3ilrxgjyu9vx1i7,3,0,a28,7,7.0,1.0,9.607,1,1
sujlea0qq3ilrxgjyu9vx1i7,4,0,a36,1,5.0,0.0,11.436,1,1
sujlea0qq3ilrxgjyu9vx1i7,5,0,a43,4,0.0,0.0,9.182,1,1
sujlea0qq3ilrxgjyu9vx1i7,6,0,a48,5,6.0,0.0,8.443,1,1
sujlea0qq3ilrxgjyu9vx1i7,7,0,a49,6,6.0,1.0,7.918,1,1
sujlea0qq3ilrxgjyu9vx1i7,8,0,a53,0,6.0,0.0,6.446,1,1
sujlea0qq3ilrxgjyu9vx1i7,9,0,a55,1,6.0,0.0,3.086,1,1
summdzyf24gtjdfq5p284m54,1,0,a11,4,4.0,1.0,21.166,1,1
summdzyf24gtjdfq5p284m54,2,0,a24,4,4.0,1.0,8.844,1,1
summdzyf24gtjdfq5p284m54,3,0,a28,7,7.0,1.0,10.196,1,1
summdzyf24gtjdfq5p284m54,4,0,a36,1,1.0,1.0,15.399,1,1
summdzyf24gtjdfq5p284m54,5,0,a43,4,4.0,1.0,16.642,1,1
summdzyf24gtjdfq5p284m54,6,0,a48,5,7.0,0.0,29.734,1,1
summdzyf24gtjdfq5p284m54,7,0,a49,6,6.0,1.0,12.573,1,1
summdzyf24gtjdfq5p284m54,8,0,a53,0,0.0,1.0,12.94,1,1
summdzyf24gtjdfq5p284m54,9,0,a55,1,5.0,0.0,29.718,1,1
t3uqdabq2sv2v4r9s94vgrn1,1,0,a11,4,0.0,0.0,18.205,1,1
t3uqdabq2sv2v4r9s94vgrn1,2,0,a24,4,3.0,0.0,7.475,1,1
t3uqdabq2sv2v4r9s94vgrn1,3,0,a28,7,7.0,1.0,9.641,1,1
t3uqdabq2sv2v4r9s94vgrn1,4,0,a36,1,3.0,0.0,17.942,1,1
t3uqdabq2sv2v4r9s94vgrn1,5,0,a43,4,4.0,1.0,11.688,1,1
t3uqdabq2sv2v4r9s94vgrn1,6,0,a48,5,4.0,0.0,15.563,1,1
t3uqdabq2sv2v4r9s94vgrn1,7,0,a49,6,6.0,1.0,9.387,1,1
t3uqdabq2sv2v4r9s94vgrn1,8,0,a53,0,0.0,1.0,16.274,1,1
t3uqdabq2sv2v4r9s94vgrn1,9,0,a55,1,6.0,0.0,3.368,1,1
tfecdrhzmoqe3zza3lf00xns,1,0,a11,4,4.0,1.0,14.396,1,1
tfecdrhzmoqe3zza3lf00xns,2,0,a24,4,4.0,1.0,13.119,1,1
tfecdrhzmoqe3zza3lf00xns,3,0,a28,7,7.0,1.0,12.238,1,1
tfecdrhzmoqe3zza3lf00xns,4,0,a36,1,1.0,1.0,18.647,1,1
tfecdrhzmoqe3zza3lf00xns,5,0,a43,4,4.0,1.0,18.106,1,1
tfecdrhzmoqe3zza3lf00xns,6,0,a48,5,6.0,0.0,13.873,1,1
tfecdrhzmoqe3zza3lf00xns,7,0,a49,6,6.0,1.0,11.801,1,1
tfecdrhzmoqe3zza3lf00xns,8,0,a53,0,0.0,1.0,7.671,1,1
tfecdrhzmoqe3zza3lf00xns,9,0,a55,1,2.0,0.0,17.874,1,1
tgtpk72mwhnd2cn1q9a2pyh0,1,0,a11,4,4.0,1.0,14.272,1,1
tgtpk72mwhnd2cn1q9a2pyh0,2,0,a24,4,0.0,0.0,10.719,1,1
tgtpk72mwhnd2cn1q9a2pyh0,3,0,a28,7,7.0,1.0,9.885,1,1
tgtpk72mwhnd2cn1q9a2pyh0,4,0,a36,1,1.0,1.0,20.498,1,1
tgtpk72mwhnd2cn1q9a2pyh0,5,0,a43,4,4.0,1.0,13.706,1,1
tgtpk72mwhnd2cn1q9a2pyh0,6,0,a48,5,6.0,0.0,3.424,1,1
tgtpk72mwhnd2cn1q9a2pyh0,7,0,a49,6,6.0,1.0,5.587,1,1
tgtpk72mwhnd2cn1q9a2pyh0,8,0,a53,0,0.0,1.0,9.243,1,1
tgtpk72mwhnd2cn1q9a2pyh0,9,0,a55,1,2.0,0.0,10.653,1,1
tkebd2u00mijr52j5q42wb6v,1,0,a11,4,0.0,0.0,25.565,1,1
tkebd2u00mijr52j5q42wb6v,2,0,a24,4,5.0,0.0,17.498,1,1
tkebd2u00mijr52j5q42wb6v,3,0,a28,7,7.0,1.0,15.668,1,1
tkebd2u00mijr52j5q42wb6v,4,0,a36,1,1.0,1.0,21.444,1,1
tkebd2u00mijr52j5q42wb6v,5,0,a43,4,0.0,0.0,29.892,1,1
tkebd2u00mijr52j5q42wb6v,6,0,a48,5,1.0,0.0,18.853,1,1
tkebd2u00mijr52j5q42wb6v,7,0,a49,6,6.0,1.0,9.037,1,1
tkebd2u00mijr52j5q42wb6v,8,0,a53,0,0.0,1.0,18.245,1,1
tkebd2u00mijr52j5q42wb6v,9,0,a55,1,7.0,0.0,26.549,1,1
tpkye94yu10chicrant36gj9,1,0,a11,4,4.0,1.0,18.504,1,1
tpkye94yu10chicrant36gj9,2,0,a24,4,4.0,1.0,11.475,1,1
tpkye94yu10chicrant36gj9,3,0,a28,7,7.0,1.0,25.468,1,1
tpkye94yu10chicrant36gj9,4,0,a36,1,2.0,0.0,14.634,1,1
tpkye94yu10chicrant36gj9,5,0,a43,4,4.0,1.0,19.198,1,1
tpkye94yu10chicrant36gj9,6,0,a48,5,6.0,0.0,16.01,1,1
tpkye94yu10chicrant36gj9,7,0,a49,6,6.0,1.0,20.934,1,1
tpkye94yu10chicrant36gj9,8,0,a53,0,0.0,1.0,9.781,1,1
tpkye94yu10chicrant36gj9,9,0,a55,1,5.0,0.0,7.267,1,1
tx6ttjvelatkquj8pw0i6snp,1,0,a11,4,4.0,1.0,6.287,1,1
tx6ttjvelatkquj8pw0i6snp,2,0,a24,4,4.0,1.0,11.312,1,1
tx6ttjvelatkquj8pw0i6snp,3,0,a28,7,7.0,1.0,13.714,1,1
tx6ttjvelatkquj8pw0i6snp,4,0,a36,1,2.0,0.0,9.414,1,1
tx6ttjvelatkquj8pw0i6snp,5,0,a43,4,4.0,1.0,10.429,1,1
tx6ttjvelatkquj8pw0i6snp,6,0,a48,5,6.0,0.0,3.894,1,1
tx6ttjvelatkquj8pw0i6snp,7,0,a49,6,6.0,1.0,3.221,1,1
tx6ttjvelatkquj8pw0i6snp,8,0,a53,0,0.0,1.0,3.128,1,1
tx6ttjvelatkquj8pw0i6snp,9,0,a55,1,2.0,0.0,11.628,1,1
u2o44bg9wtgiux26z7f7ceuz,1,0,a11,4,0.0,0.0,10.585,1,1
u2o44bg9wtgiux26z7f7ceuz,2,0,a24,4,5.0,0.0,17.063,1,1
u2o44bg9wtgiux26z7f7ceuz,3,0,a28,7,7.0,1.0,13.098,1,1
u2o44bg9wtgiux26z7f7ceuz,4,0,a36,1,3.0,0.0,23.554,1,1
u2o44bg9wtgiux26z7f7ceuz,5,0,a43,4,4.0,1.0,17.957,1,1
u2o44bg9wtgiux26z7f7ceuz,6,0,a48,5,,,,1,1
u2o44bg9wtgiux26z7f7ceuz,7,0,a49,6,6.0,1.0,20.883,1,1
u2o44bg9wtgiux26z7f7ceuz,8,0,a53,0,5.0,0.0,14.763,1,1
u2o44bg9wtgiux26z7f7ceuz,9,0,a55,1,7.0,0.0,12.941,1,1
ub8bc92u2mmdjcctx7tx4yja,1,0,a11,4,4.0,1.0,23.066,1,1
ub8bc92u2mmdjcctx7tx4yja,2,0,a24,4,4.0,1.0,24.926,1,1
ub8bc92u2mmdjcctx7tx4yja,3,0,a28,7,7.0,1.0,26.348,1,1
ub8bc92u2mmdjcctx7tx4yja,4,0,a36,1,1.0,1.0,22.167,1,1
ub8bc92u2mmdjcctx7tx4yja,5,0,a43,4,4.0,1.0,28.375,1,1
ub8bc92u2mmdjcctx7tx4yja,6,0,a48,5,1.0,0.0,29.456,1,1
ub8bc92u2mmdjcctx7tx4yja,7,0,a49,6,6.0,1.0,16.544,1,1
ub8bc92u2mmdjcctx7tx4yja,8,0,a53,0,0.0,1.0,7.675,1,1
ub8bc92u2mmdjcctx7tx4yja,9,0,a55,1,5.0,0.0,29.564,1,1
ug371ber71owbt8wnnt1n20q,1,0,a11,4,4.0,1.0,8.259,1,1
ug371ber71owbt8wnnt1n20q,2,0,a24,4,3.0,0.0,13.028,1,1
ug371ber71owbt8wnnt1n20q,3,0,a28,7,7.0,1.0,14.348,1,1
ug371ber71owbt8wnnt1n20q,4,0,a36,1,1.0,1.0,15.746,1,1
ug371ber71owbt8wnnt1n20q,5,0,a43,4,2.0,0.0,10.899,1,1
ug371ber71owbt8wnnt1n20q,6,0,a48,5,0.0,0.0,10.754,1,1
ug371ber71owbt8wnnt1n20q,7,0,a49,6,6.0,1.0,15.153,1,1
ug371ber71owbt8wnnt1n20q,8,0,a53,0,6.0,0.0,16.546,1,1
ug371ber71owbt8wnnt1n20q,9,0,a55,1,6.0,0.0,14.153,1,1
ui91v4b9jg8uez798uvkb5mf,1,0,a11,4,4.0,1.0,28.255,1,1
ui91v4b9jg8uez798uvkb5mf,2,0,a24,4,2.0,0.0,28.974,1,1
ui91v4b9jg8uez798uvkb5mf,3,0,a28,7,7.0,1.0,17.228,1,1
ui91v4b9jg8uez798uvkb5mf,4,0,a36,1,0.0,0.0,28.47,1,1
ui91v4b9jg8uez798uvkb5mf,5,0,a43,4,4.0,1.0,17.812,1,1
ui91v4b9jg8uez798uvkb5mf,6,0,a48,5,,,,1,1
ui91v4b9jg8uez798uvkb5mf,7,0,a49,6,6.0,1.0,25.521,1,1
ui91v4b9jg8uez798uvkb5mf,8,0,a53,0,0.0,1.0,25.887,1,1
ui91v4b9jg8uez798uvkb5mf,9,0,a55,1,5.0,0.0,17.431,1,1
uongz2kgkz6a4v4sgt7ziq87,1,0,a11,4,1.0,0.0,13.474,1,1
uongz2kgkz6a4v4sgt7ziq87,2,0,a24,4,5.0,0.0,19.416,1,1
uongz2kgkz6a4v4sgt7ziq87,3,0,a28,7,7.0,1.0,18.545,1,1
uongz2kgkz6a4v4sgt7ziq87,4,0,a36,1,3.0,0.0,21.297,1,1
uongz2kgkz6a4v4sgt7ziq87,5,0,a43,4,4.0,1.0,20.949,1,1
uongz2kgkz6a4v4sgt7ziq87,6,0,a48,5,,,,1,1
uongz2kgkz6a4v4sgt7ziq87,7,0,a49,6,6.0,1.0,20.615,1,1
uongz2kgkz6a4v4sgt7ziq87,8,0,a53,0,0.0,1.0,14.1,1,1
uongz2kgkz6a4v4sgt7ziq87,9,0,a55,1,3.0,0.0,23.992,1,1
uuwof2g1mi7p9kemfryegnu3,1,0,a11,4,4.0,1.0,17.326,1,1
uuwof2g1mi7p9kemfryegnu3,2,0,a24,4,4.0,1.0,27.092,1,1
uuwof2g1mi7p9kemfryegnu3,3,0,a28,7,7.0,1.0,7.96,1,1
uuwof2g1mi7p9kemfryegnu3,4,0,a36,1,1.0,1.0,17.016,1,1
uuwof2g1mi7p9kemfryegnu3,5,0,a43,4,4.0,1.0,27.331,1,1
uuwof2g1mi7p9kemfryegnu3,6,0,a48,5,,,,1,1
uuwof2g1mi7p9kemfryegnu3,7,0,a49,6,6.0,1.0,6.243,1,1
uuwof2g1mi7p9kemfryegnu3,8,0,a53,0,0.0,1.0,9.498,1,1
uuwof2g1mi7p9kemfryegnu3,9,0,a55,1,1.0,1.0,18.099,1,1
v0f4238864v8iacghoknz99u,1,0,a11,4,1.0,0.0,5.493,1,1
v0f4238864v8iacghoknz99u,2,0,a24,4,1.0,0.0,3.63,1,1
v0f4238864v8iacghoknz99u,3,0,a28,7,3.0,0.0,6.02,1,1
v0f4238864v8iacghoknz99u,4,0,a36,1,7.0,0.0,4.55,1,1
v0f4238864v8iacghoknz99u,5,0,a43,4,7.0,0.0,7.557,1,1
v0f4238864v8iacghoknz99u,6,0,a48,5,1.0,0.0,4.356,1,1
v0f4238864v8iacghoknz99u,7,0,a49,6,0.0,0.0,4.065,1,1
v0f4238864v8iacghoknz99u,8,0,a53,0,2.0,0.0,7.29,1,1
v0f4238864v8iacghoknz99u,9,0,a55,1,0.0,0.0,2.83,1,1
vd1mpyz4scmczvcogprtsr4e,1,0,a11,4,0.0,0.0,6.564,1,1
vd1mpyz4scmczvcogprtsr4e,2,0,a24,4,5.0,0.0,8.012,1,1
vd1mpyz4scmczvcogprtsr4e,3,0,a28,7,6.0,0.0,7.178,1,1
vd1mpyz4scmczvcogprtsr4e,4,0,a36,1,1.0,1.0,13.204,1,1
vd1mpyz4scmczvcogprtsr4e,5,0,a43,4,7.0,0.0,7.476,1,1
vd1mpyz4scmczvcogprtsr4e,6,0,a48,5,6.0,0.0,10.318,1,1
vd1mpyz4scmczvcogprtsr4e,7,0,a49,6,6.0,1.0,9.711,1,1
vd1mpyz4scmczvcogprtsr4e,8,0,a53,0,6.0,0.0,13.941,1,1
vd1mpyz4scmczvcogprtsr4e,9,0,a55,1,3.0,0.0,10.764,1,1
vk57l6f9u5z2s7o0lap2ps18,1,0,a11,4,0.0,0.0,6.661,1,1
vk57l6f9u5z2s7o0lap2ps18,2,0,a24,4,5.0,0.0,13.855,1,1
vk57l6f9u5z2s7o0lap2ps18,3,0,a28,7,7.0,1.0,8.552,1,1
vk57l6f9u5z2s7o0lap2ps18,4,0,a36,1,3.0,0.0,26.8,1,1
vk57l6f9u5z2s7o0lap2ps18,5,0,a43,4,4.0,1.0,12.766,1,1
vk57l6f9u5z2s7o0lap2ps18,6,0,a48,5,1.0,0.0,22.373,1,1
vk57l6f9u5z2s7o0lap2ps18,7,0,a49,6,6.0,1.0,5.79,1,1
vk57l6f9u5z2s7o0lap2ps18,8,0,a53,0,0.0,1.0,7.286,1,1
vk57l6f9u5z2s7o0lap2ps18,9,0,a55,1,7.0,0.0,29.437,1,1
vse7lm2t4046awme09fy325c,1,0,a11,4,4.0,1.0,5.432,1,1
vse7lm2t4046awme09fy325c,2,0,a24,4,4.0,1.0,7.823,1,1
vse7lm2t4046awme09fy325c,3,0,a28,7,7.0,1.0,4.011,1,1
vse7lm2t4046awme09fy325c,4,0,a36,1,5.0,0.0,6.847,1,1
vse7lm2t4046awme09fy325c,5,0,a43,4,4.0,1.0,12.92,1,1
vse7lm2t4046awme09fy325c,6,0,a48,5,5.0,1.0,27.063,1,1
vse7lm2t4046awme09fy325c,7,0,a49,6,6.0,1.0,7.066,1,1
vse7lm2t4046awme09fy325c,8,0,a53,0,0.0,1.0,8.242,1,1
vse7lm2t4046awme09fy325c,9,0,a55,1,1.0,1.0,14.412,1,1
vtu233hx78xg91qgizxctygo,1,0,a11,4,4.0,1.0,20.529,1,1
vtu233hx78xg91qgizxctygo,2,0,a24,4,4.0,1.0,13.394,1,1
vtu233hx78xg91qgizxctygo,3,0,a28,7,7.0,1.0,20.235,1,1
vtu233hx78xg91qgizxctygo,4,0,a36,1,1.0,1.0,29.106,1,1
vtu233hx78xg91qgizxctygo,5,0,a43,4,7.0,0.0,14.941,1,1
vtu233hx78xg91qgizxctygo,6,0,a48,5,7.0,0.0,25.982,1,1
vtu233hx78xg91qgizxctygo,7,0,a49,6,6.0,1.0,18.297,1,1
vtu233hx78xg91qgizxctygo,8,0,a53,0,0.0,1.0,28.749,1,1
vtu233hx78xg91qgizxctygo,9,0,a55,1,3.0,0.0,27.908,1,1
vzsb1otkxqvzqnxuey4hxj9k,1,0,a11,4,4.0,1.0,11.277,1,1
vzsb1otkxqvzqnxuey4hxj9k,2,0,a24,4,5.0,0.0,9.913,1,1
vzsb1otkxqvzqnxuey4hxj9k,3,0,a28,7,7.0,1.0,6.285,1,1
vzsb1otkxqvzqnxuey4hxj9k,4,0,a36,1,2.0,0.0,28.573,1,1
vzsb1otkxqvzqnxuey4hxj9k,5,0,a43,4,4.0,1.0,19.316,1,1
vzsb1otkxqvzqnxuey4hxj9k,6,0,a48,5,3.0,0.0,15.836,1,1
vzsb1otkxqvzqnxuey4hxj9k,7,0,a49,6,6.0,1.0,10.883,1,1
vzsb1otkxqvzqnxuey4hxj9k,8,0,a53,0,0.0,1.0,24.315,1,1
vzsb1otkxqvzqnxuey4hxj9k,9,0,a55,1,5.0,0.0,24.337,1,1
wgbgi4jdiifgzcxgz0lyrvce,1,0,a11,4,4.0,1.0,6.478,1,1
wgbgi4jdiifgzcxgz0lyrvce,2,0,a24,4,4.0,1.0,5.127,1,1
wgbgi4jdiifgzcxgz0lyrvce,3,0,a28,7,7.0,1.0,4.344,1,1
wgbgi4jdiifgzcxgz0lyrvce,4,0,a36,1,3.0,0.0,16.047,1,1
wgbgi4jdiifgzcxgz0lyrvce,5,0,a43,4,1.0,0.0,6.444,1,1
wgbgi4jdiifgzcxgz0lyrvce,6,0,a48,5,7.0,0.0,17.357,1,1
wgbgi4jdiifgzcxgz0lyrvce,7,0,a49,6,6.0,1.0,5.788,1,1
wgbgi4jdiifgzcxgz0lyrvce,8,0,a53,0,0.0,1.0,8.816,1,1
wgbgi4jdiifgzcxgz0lyrvce,9,0,a55,1,5.0,0.0,12.772,1,1
wiziicrdv38e5g3407ouxzbv,1,0,a11,4,4.0,1.0,8.086,1,1
wiziicrdv38e5g3407ouxzbv,2,0,a24,4,4.0,1.0,13.324,1,1
wiziicrdv38e5g3407ouxzbv,3,0,a28,7,7.0,1.0,16.322,1,1
wiziicrdv38e5g3407ouxzbv,4,0,a36,1,4.0,0.0,21.525,1,1
wiziicrdv38e5g3407ouxzbv,5,0,a43,4,4.0,1.0,11.87,1,1
wiziicrdv38e5g3407ouxzbv,6,0,a48,5,7.0,0.0,21.166,1,1
wiziicrdv38e5g3407ouxzbv,7,0,a49,6,6.0,1.0,8.185,1,1
wiziicrdv38e5g3407ouxzbv,8,0,a53,0,0.0,1.0,20.949,1,1
wiziicrdv38e5g3407ouxzbv,9,0,a55,1,5.0,0.0,28.129,1,1
wwvsbiay87sf5sgzh2yb0hfz,1,0,a11,4,4.0,1.0,14.542,1,1
wwvsbiay87sf5sgzh2yb0hfz,2,0,a24,4,4.0,1.0,22.244,1,1
wwvsbiay87sf5sgzh2yb0hfz,3,0,a28,7,7.0,1.0,9.44,1,1
wwvsbiay87sf5sgzh2yb0hfz,4,0,a36,1,4.0,0.0,28.074,1,1
wwvsbiay87sf5sgzh2yb0hfz,5,0,a43,4,4.0,1.0,27.641,1,1
wwvsbiay87sf5sgzh2yb0hfz,6,0,a48,5,3.0,0.0,29.75,1,1
wwvsbiay87sf5sgzh2yb0hfz,7,0,a49,6,6.0,1.0,28.481,1,1
wwvsbiay87sf5sgzh2yb0hfz,8,0,a53,0,6.0,0.0,14.101,1,1
wwvsbiay87sf5sgzh2yb0hfz,9,0,a55,1,6.0,0.0,16.132,1,1
x4watxnbjv7ayinbqtr7mmm4,1,0,a11,4,4.0,1.0,12.641,1,1
x4watxnbjv7ayinbqtr7mmm4,2,0,a24,4,4.0,1.0,14.612,1,1
x4watxnbjv7ayinbqtr7mmm4,3,0,a28,7,7.0,1.0,11.477,1,1
x4watxnbjv7ayinbqtr7mmm4,4,0,a36,1,1.0,1.0,21.047,1,1
x4watxnbjv7ayinbqtr7mmm4,5,0,a43,4,4.0,1.0,14.213,1,1
x4watxnbjv7ayinbqtr7mmm4,6,0,a48,5,6.0,0.0,10.464,1,1
x4watxnbjv7ayinbqtr7mmm4,7,0,a49,6,6.0,1.0,11.782,1,1
x4watxnbjv7ayinbqtr7mmm4,8,0,a53,0,2.0,0.0,16.895,1,1
x4watxnbjv7ayinbqtr7mmm4,9,0,a55,1,0.0,0.0,20.655,1,1
x5jwgdkyoz4olp6fc0y6b87c,1,0,a11,4,5.0,0.0,12.902,1,1
x5jwgdkyoz4olp6fc0y6b87c,2,0,a24,4,2.0,0.0,15.371,1,1
x5jwgdkyoz4olp6fc0y6b87c,3,0,a28,7,7.0,1.0,9.944,1,1
x5jwgdkyoz4olp6fc0y6b87c,4,0,a36,1,2.0,0.0,9.036,1,1
x5jwgdkyoz4olp6fc0y6b87c,5,0,a43,4,4.0,1.0,16.2,1,1
x5jwgdkyoz4olp6fc0y6b87c,6,0,a48,5,7.0,0.0,12.373,1,1
x5jwgdkyoz4olp6fc0y6b87c,7,0,a49,6,6.0,1.0,18.548,1,1
x5jwgdkyoz4olp6fc0y6b87c,8,0,a53,0,6.0,0.0,7.757,1,1
x5jwgdkyoz4olp6fc0y6b87c,9,0,a55,1,3.0,0.0,14.45,1,1
xeykqwf6ydobdwdeet1x8sdf,1,0,a11,4,4.0,1.0,15.967,1,1
xeykqwf6ydobdwdeet1x8sdf,2,0,a24,4,2.0,0.0,14.843,1,1
xeykqwf6ydobdwdeet1x8sdf,3,0,a28,7,2.0,0.0,27.046,1,1
xeykqwf6ydobdwdeet1x8sdf,4,0,a36,1,2.0,0.0,24.847,1,1
xeykqwf6ydobdwdeet1x8sdf,5,0,a43,4,4.0,1.0,22.978,1,1
xeykqwf6ydobdwdeet1x8sdf,6,0,a48,5,0.0,0.0,27.95,1,1
xeykqwf6ydobdwdeet1x8sdf,7,0,a49,6,6.0,1.0,14.989,1,1
xeykqwf6ydobdwdeet1x8sdf,8,0,a53,0,0.0,1.0,20.7,1,1
xeykqwf6ydobdwdeet1x8sdf,9,0,a55,1,7.0,0.0,29.13,1,1
xiirbbvwmswudkbnsy197q90,1,0,a11,4,5.0,0.0,9.913,1,1
xiirbbvwmswudkbnsy197q90,2,0,a24,4,1.0,0.0,3.956,1,1
xiirbbvwmswudkbnsy197q90,3,0,a28,7,7.0,1.0,8.316,1,1
xiirbbvwmswudkbnsy197q90,4,0,a36,1,2.0,0.0,10.218,1,1
xiirbbvwmswudkbnsy197q90,5,0,a43,4,6.0,0.0,1.798,1,1
xiirbbvwmswudkbnsy197q90,6,0,a48,5,3.0,0.0,0.472,1,1
xiirbbvwmswudkbnsy197q90,7,0,a49,6,7.0,0.0,0.512,1,1
xiirbbvwmswudkbnsy197q90,8,0,a53,0,4.0,0.0,0.457,1,1
xiirbbvwmswudkbnsy197q90,9,0,a55,1,2.0,0.0,0.485,1,1
xtj0x7jp2l3kbfqs98rdh6nh,1,0,a11,4,4.0,1.0,12.165,1,1
xtj0x7jp2l3kbfqs98rdh6nh,2,0,a24,4,0.0,0.0,6.192,1,1
xtj0x7jp2l3kbfqs98rdh6nh,3,0,a28,7,7.0,1.0,6.248,1,1
xtj0x7jp2l3kbfqs98rdh6nh,4,0,a36,1,1.0,1.0,11.101,1,1
xtj0x7jp2l3kbfqs98rdh6nh,5,0,a43,4,4.0,1.0,10.596,1,1
xtj0x7jp2l3kbfqs98rdh6nh,6,0,a48,5,5.0,1.0,15.488,1,1
xtj0x7jp2l3kbfqs98rdh6nh,7,0,a49,6,6.0,1.0,6.864,1,1
xtj0x7jp2l3kbfqs98rdh6nh,8,0,a53,0,5.0,0.0,8.049,1,1
xtj0x7jp2l3kbfqs98rdh6nh,9,0,a55,1,6.0,0.0,17.445,1,1
y9rp8htqrii00xkmgakzmyqg,1,0,a11,4,5.0,0.0,18.735,1,1
y9rp8htqrii00xkmgakzmyqg,2,0,a24,4,4.0,1.0,12.555,1,1
y9rp8htqrii00xkmgakzmyqg,3,0,a28,7,7.0,1.0,9.126,1,1
y9rp8htqrii00xkmgakzmyqg,4,0,a36,1,0.0,0.0,25.773,1,1
y9rp8htqrii00xkmgakzmyqg,5,0,a43,4,4.0,1.0,20.289,1,1
y9rp8htqrii00xkmgakzmyqg,6,0,a48,5,7.0,0.0,18.667,1,1
y9rp8htqrii00xkmgakzmyqg,7,0,a49,6,2.0,0.0,10.303,1,1
y9rp8htqrii00xkmgakzmyqg,8,0,a53,0,2.0,0.0,14.309,1,1
y9rp8htqrii00xkmgakzmyqg,9,0,a55,1,2.0,0.0,24.186,1,1
yhlmo6ysmov10hnf5clfpjy7,1,0,a11,4,4.0,1.0,6.337,1,1
yhlmo6ysmov10hnf5clfpjy7,2,0,a24,4,4.0,1.0,7.65,1,1
yhlmo6ysmov10hnf5clfpjy7,3,0,a28,7,7.0,1.0,8.526,1,1
yhlmo6ysmov10hnf5clfpjy7,4,0,a36,1,3.0,0.0,16.313,1,1
yhlmo6ysmov10hnf5clfpjy7,5,0,a43,4,4.0,1.0,12.648,1,1
yhlmo6ysmov10hnf5clfpjy7,6,0,a48,5,7.0,0.0,17.534,1,1
yhlmo6ysmov10hnf5clfpjy7,7,0,a49,6,6.0,1.0,6.524,1,1
yhlmo6ysmov10hnf5clfpjy7,8,0,a53,0,3.0,0.0,26.324,1,1
yhlmo6ysmov10hnf5clfpjy7,9,0,a55,1,6.0,0.0,6.122,1,1
yna22lry8gz6q795qx5feplx,1,0,a11,4,0.0,0.0,5.229,1,1
yna22lry8gz6q795qx5feplx,2,0,a24,4,4.0,1.0,27.79,1,1
yna22lry8gz6q795qx5feplx,3,0,a28,7,7.0,1.0,13.219,1,1
yna22lry8gz6q795qx5feplx,4,0,a36,1,7.0,0.0,27.507,1,1
yna22lry8gz6q795qx5feplx,5,0,a43,4,4.0,1.0,12.909,1,1
yna22lry8gz6q795qx5feplx,6,0,a48,5,6.0,0.0,27.54,1,1
yna22lry8gz6q795qx5feplx,7,0,a49,6,6.0,1.0,8.546,1,1
yna22lry8gz6q795qx5feplx,8,0,a53,0,0.0,1.0,9.101,1,1
yna22lry8gz6q795qx5feplx,9,0,a55,1,0.0,0.0,28.304,1,1
ypej5jqgpaaapohh6d5ey6m2,1,0,a11,4,4.0,1.0,15.958,1,1
ypej5jqgpaaapohh6d5ey6m2,2,0,a24,4,5.0,0.0,14.893,1,1
ypej5jqgpaaapohh6d5ey6m2,3,0,a28,7,7.0,1.0,19.557,1,1
ypej5jqgpaaapohh6d5ey6m2,4,0,a36,1,1.0,1.0,27.094,1,1
ypej5jqgpaaapohh6d5ey6m2,5,0,a43,4,4.0,1.0,11.054,1,1
ypej5jqgpaaapohh6d5ey6m2,6,0,a48,5,7.0,0.0,18.138,1,1
ypej5jqgpaaapohh6d5ey6m2,7,0,a49,6,6.0,1.0,8.422,1,1
ypej5jqgpaaapohh6d5ey6m2,8,0,a53,0,0.0,1.0,19.086,1,1
ypej5jqgpaaapohh6d5ey6m2,9,0,a55,1,,,,1,1
z4jh5bkeucisdyknn1hmidaz,1,0,a11,4,0.0,0.0,10.064,1,1
z4jh5bkeucisdyknn1hmidaz,2,0,a24,4,5.0,0.0,11.449,1,1
z4jh5bkeucisdyknn1hmidaz,3,0,a28,7,7.0,1.0,5.224,1,1
z4jh5bkeucisdyknn1hmidaz,4,0,a36,1,0.0,0.0,8.749,1,1
z4jh5bkeucisdyknn1hmidaz,5,0,a43,4,1.0,0.0,8.949,1,1
z4jh5bkeucisdyknn1hmidaz,6,0,a48,5,6.0,0.0,17.041,1,1
z4jh5bkeucisdyknn1hmidaz,7,0,a49,6,6.0,1.0,16.469,1,1
z4jh5bkeucisdyknn1hmidaz,8,0,a53,0,6.0,0.0,2.868,1,1
z4jh5bkeucisdyknn1hmidaz,9,0,a55,1,6.0,0.0,6.445,1,1
za5wauivmcddsxred0ihde77,1,0,a11,4,4.0,1.0,6.229,1,1
za5wauivmcddsxred0ihde77,2,0,a24,4,5.0,0.0,13.807,1,1
za5wauivmcddsxred0ihde77,3,0,a28,7,7.0,1.0,7.714,1,1
za5wauivmcddsxred0ihde77,4,0,a36,1,0.0,0.0,12.459,1,1
za5wauivmcddsxred0ihde77,5,0,a43,4,4.0,1.0,17.469,1,1
za5wauivmcddsxred0ihde77,6,0,a48,5,7.0,0.0,14.823,1,1
za5wauivmcddsxred0ihde77,7,0,a49,6,6.0,1.0,10.222,1,1
za5wauivmcddsxred0ihde77,8,0,a53,0,1.0,0.0,15.338,1,1
za5wauivmcddsxred0ihde77,9,0,a55,1,6.0,0.0,5.903,1,1
zebzdrfvenjm5qr7zul7jc0u,1,0,a11,4,2.0,0.0,10.379,1,1
zebzdrfvenjm5qr7zul7jc0u,2,0,a24,4,0.0,0.0,9.389,1,1
zebzdrfvenjm5qr7zul7jc0u,3,0,a28,7,7.0,1.0,8.812,1,1
zebzdrfvenjm5qr7zul7jc0u,4,0,a36,1,2.0,0.0,11.18,1,1
zebzdrfvenjm5qr7zul7jc0u,5,0,a43,4,4.0,1.0,22.08,1,1
zebzdrfvenjm5qr7zul7jc0u,6,0,a48,5,5.0,1.0,22.148,1,1
zebzdrfvenjm5qr7zul7jc0u,7,0,a49,6,6.0,1.0,11.583,1,1
zebzdrfvenjm5qr7zul7jc0u,8,0,a53,0,0.0,1.0,9.084,1,1
zebzdrfvenjm5qr7zul7jc0u,9,0,a55,1,5.0,0.0,29.062,1,1
zkz1u1xbc1unn1msg167ubph,1,0,a11,4,5.0,0.0,12.129,1,1
zkz1u1xbc1unn1msg167ubph,2,0,a24,4,4.0,1.0,8.275,1,1
zkz1u1xbc1unn1msg167ubph,3,0,a28,7,7.0,1.0,14.918,1,1
zkz1u1xbc1unn1msg167ubph,4,0,a36,1,2.0,0.0,22.644,1,1
zkz1u1xbc1unn1msg167ubph,5,0,a43,4,4.0,1.0,19.17,1,1
zkz1u1xbc1unn1msg167ubph,6,0,a48,5,7.0,0.0,16.642,1,1
zkz1u1xbc1unn1msg167ubph,7,0,a49,6,6.0,1.0,13.686,1,1
zkz1u1xbc1unn1msg167ubph,8,0,a53,0,0.0,1.0,13.836,1,1
zkz1u1xbc1unn1msg167ubph,9,0,a55,1,6.0,0.0,29.524,1,1
ztl7qy2bocyvre2xwqlky3me,1,0,a11,4,4.0,1.0,4.389,1,1
ztl7qy2bocyvre2xwqlky3me,2,0,a24,4,5.0,0.0,5.193,1,1
ztl7qy2bocyvre2xwqlky3me,3,0,a28,7,7.0,1.0,4.935,1,1
ztl7qy2bocyvre2xwqlky3me,4,0,a36,1,5.0,0.0,6.715,1,1
ztl7qy2bocyvre2xwqlky3me,5,0,a43,4,4.0,1.0,5.37,1,1
ztl7qy2bocyvre2xwqlky3me,6,0,a48,5,1.0,0.0,3.932,1,1
ztl7qy2bocyvre2xwqlky3me,7,0,a49,6,2.0,0.0,5.436,1,1
ztl7qy2bocyvre2xwqlky3me,8,0,a53,0,2.0,0.0,2.335,1,1
ztl7qy2bocyvre2xwqlky3me,9,0,a55,1,0.0,0.0,2.964,1,1
zzmvfchcqs2z6nfbt9nvxtxm,1,0,a11,4,0.0,0.0,11.645,1,1
zzmvfchcqs2z6nfbt9nvxtxm,2,0,a24,4,4.0,1.0,5.092,1,1
zzmvfchcqs2z6nfbt9nvxtxm,3,0,a28,7,7.0,1.0,13.13,1,1
zzmvfchcqs2z6nfbt9nvxtxm,4,0,a36,1,6.0,0.0,24.082,1,1
zzmvfchcqs2z6nfbt9nvxtxm,5,0,a43,4,1.0,0.0,8.029,1,1
zzmvfchcqs2z6nfbt9nvxtxm,6,0,a48,5,6.0,0.0,12.448,1,1
zzmvfchcqs2z6nfbt9nvxtxm,7,0,a49,6,0.0,0.0,13.718,1,1
zzmvfchcqs2z6nfbt9nvxtxm,8,0,a53,0,0.0,1.0,17.972,1,1
zzmvfchcqs2z6nfbt9nvxtxm,9,0,a55,1,2.0,0.0,25.846,1,1
