subject,trial,test_form,stimulus,correct,choice,accuracy,rt,all_loaded,minimum_resolution
00p7ea3ni73o5a0efu339u44,1,0,a11,4,5.0,0.0,9.583,1,1
00p7ea3ni73o5a0efu339u44,2,0,a24,4,4.0,1.0,8.412,1,1
00p7ea3ni73o5a0efu339u44,3,0,a28,7,7.0,1.0,5.831,1,1
00p7ea3ni73o5a0efu339u44,4,0,a36,1,2.0,0.0,19.637,1,1
00p7ea3ni73o5a0efu339u44,5,0,a43,4,4.0,1.0,10.804,1,1
00p7ea3ni73o5a0efu339u44,6,0,a48,5,4.0,0.0,11.667,1,1
00p7ea3ni73o5a0efu339u44,7,0,a49,6,6.0,1.0,6.903,1,1
00p7ea3ni73o5a0efu339u44,8,0,a53,0,3.0,0.0,10.359,1,1
00p7ea3ni73o5a0efu339u44,9,0,a55,1,3.0,0.0,13.701,1,1
06ou7ksixe715ntgqusjzfip,1,0,a11,4,3.0,0.0,10.88,1,1
06ou7ksixe715ntgqusjzfip,2,0,a24,4,1.0,0.0,5.219,1,1
06ou7ksixe715ntgqusjzfip,3,0,a28,7,3.0,0.0,10.428,1,1
06ou7ksixe715ntgqusjzfip,4,0,a36,1,2.0,0.0,11.873,1,1
06ou7ksixe715ntgqusjzfip,5,0,a43,4,7.0,0.0,3.644,1,1
06ou7ksixe715ntgqusjzfip,6,0,a48,5,6.0,0.0,11.443,1,1
06ou7ksixe715ntgqusjzfip,7,0,a49,6,0.0,0.0,7.024,1,1
06ou7ksixe715ntgqusjzfip,8,0,a53,0,1.0,0.0,7.602,1,1
06ou7ksixe715ntgqusjzfip,9,0,a55,1,7.0,0.0,10.172,1,1
0b408y6ddb6n2hktu87ws0vf,1,0,a11,4,5.0,0.0,13.513,1,1
0b408y6ddb6n2hktu87ws0vf,2,0,a24,4,4.0,1.0,8.788,1,1
0b408y6ddb6n2hktu87ws0vf,3,0,a28,7,7.0,1.0,14.749,1,1
0b408y6ddb6n2hktu87ws0vf,4,0,a36,1,3.0,0.0,18.502,1,1
0b408y6ddb6n2hktu87ws0vf,5,0,a43,4,4.0,1.0,12.037,1,1
0b408y6ddb6n2hktu87ws0vf,6,0,a48,5,7.0,0.0,12.909,1,1
0b408y6ddb6n2hktu87ws0vf,7,0,a49,6,4.0,0.0,21.573,1,1
0b408y6ddb6n2hktu87ws0vf,8,0,a53,0,6.0,0.0,9.868,1,1
0b408y6ddb6n2hktu87ws0vf,9,0,a55,1,3.0,0.0,7.453,1,1
0f2j9hnujo2cudr4oscws8xf,1,0,a11,4,4.0,1.0,11.264,1,1
0f2j9hnujo2cudr4oscws8xf,2,0,a24,4,4.0,1.0,8.69,1,1
0f2j9hnujo2cudr4oscws8xf,3,0,a28,7,7.0,1.0,10.88,1,1
0f2j9hnujo2cudr4oscws8xf,4,0,a36,1,5.0,0.0,10.004,1,1
0f2j9hnujo2cudr4oscws8xf,5,0,a43,4,0.0,0.0,9.919,1,1
0f2j9hnujo2cudr4oscws8xf,6,0,a48,5,4.0,0.0,6.323,1,1
0f2j9hnujo2cudr4oscws8xf,7,0,a49,6,6.0,1.0,5.49,1,1
0f2j9hnujo2cudr4oscws8xf,8,0,a53,0,6.0,0.0,4.771,1,1
0f2j9hnujo2cudr4oscws8xf,9,0,a55,1,6.0,0.0,4.905,1,1
0fn46b0vpigmdhpkswfb0mye,1,0,a11,4,5.0,0.0,12.532,1,1
0fn46b0vpigmdhpkswfb0mye,2,0,a24,4,1.0,0.0,24.781,1,1
0fn46b0vpigmdhpkswfb0mye,3,0,a28,7,7.0,1.0,14.916,1,1
0fn46b0vpigmdhpkswfb0mye,4,0,a36,1,5.0,0.0,27.413,1,1
0fn46b0vpigmdhpkswfb0mye,5,0,a43,4,3.0,0.0,27.589,1,1
0fn46b0vpigmdhpkswfb0mye,6,0,a48,5,6.0,0.0,20.157,1,1
0fn46b0vpigmdhpkswfb0mye,7,0,a49,6,6.0,1.0,9.428,1,1
0fn46b0vpigmdhpkswfb0mye,8,0,a53,0,0.0,1.0,13.038,1,1
0fn46b0vpigmdhpkswfb0mye,9,0,a55,1,2.0,0.0,29.752,1,1
0hl5k6dw9a2hun024rqfhkg0,1,0,a11,4,4.0,1.0,20.267,1,1
0hl5k6dw9a2hun024rqfhkg0,2,0,a24,4,4.0,1.0,13.839,1,1
0hl5k6dw9a2hun024rqfhkg0,3,0,a28,7,7.0,1.0,16.496,1,1
0hl5k6dw9a2hun024rqfhkg0,4,0,a36,1,3.0,0.0,29.894,1,1
0hl5k6dw9a2hun024rqfhkg0,5,0,a43,4,4.0,1.0,22.406,1,1
0hl5k6dw9a2hun024rqfhkg0,6,0,a48,5,,,,1,1
0hl5k6dw9a2hun024rqfhkg0,7,0,a49,6,6.0,1.0,10.334,1,1
0hl5k6dw9a2hun024rqfhkg0,8,0,a53,0,0.0,1.0,7.492,1,1
0hl5k6dw9a2hun024rqfhkg0,9,0,a55,1,6.0,0.0,27.09,1,1
0m0dkmh3y3hksejvcy3w0f3v,1,0,a11,4,3.0,0.0,28.928,1,1
0m0dkmh3y3hksejvcy3w0f3v,2,0,a24,4,4.0,1.0,14.32,1,1
0m0dkmh3y3hksejvcy3w0f3v,3,0,a28,7,7.0,1.0,10.584,1,1
0m0dkmh3y3hksejvcy3w0f3v,4,0,a36,1,2.0,0.0,23.15,1,1
0m0dkmh3y3hksejvcy3w0f3v,5,0,a43,4,4.0,1.0,16.882,1,1
0m0dkmh3y3hksejvcy3w0f3v,6,0,a48,5,7.0,0.0,29.728,1,1
0m0dkmh3y3hksejvcy3w0f3v,7,0,a49,6,6.0,1.0,11.814,1,1
0m0dkmh3y3hksejvcy3w0f3v,8,0,a53,0,0.0,1.0,29.142,1,1
0m0dkmh3y3hksejvcy3w0f3v,9,0,a55,1,1.0,1.0,29.428,1,1
0mlu30hyg9soc2ma9kbu4wya,1,0,a11,4,4.0,1.0,3.136,1,1
0mlu30hyg9soc2ma9kbu4wya,2,0,a24,4,5.0,0.0,2.526,1,1
0mlu30hyg9soc2ma9kbu4wya,3,0,a28,7,1.0,0.0,2.735,1,1
0mlu30hyg9soc2ma9kbu4wya,4,0,a36,1,6.0,0.0,2.939,1,1
0mlu30hyg9soc2ma9kbu4wya,5,0,a43,4,1.0,0.0,2.799,1,1
0mlu30hyg9soc2ma9kbu4wya,6,0,a48,5,7.0,0.0,2.561,1,1
0mlu30hyg9soc2ma9kbu4wya,7,0,a49,6,4.0,0.0,2.543,1,1
0mlu30hyg9soc2ma9kbu4wya,8,0,a53,0,7.0,0.0,2.75,1,1
0mlu30hyg9soc2ma9kbu4wya,9,0,a55,1,3.0,0.0,2.336,1,1
0ooro3jk4ibd1vfcxixjsuwo,1,0,a11,4,3.0,0.0,9.377,1,1
0ooro3jk4ibd1vfcxixjsuwo,2,0,a24,4,1.0,0.0,6.742,1,1
0ooro3jk4ibd1vfcxixjsuwo,3,0,a28,7,7.0,1.0,8.309,1,1
0ooro3jk4ibd1vfcxixjsuwo,4,0,a36,1,0.0,0.0,10.282,1,1
0ooro3jk4ibd1vfcxixjsuwo,5,0,a43,4,1.0,0.0,11.488,1,1
0ooro3jk4ibd1vfcxixjsuwo,6,0,a48,5,6.0,0.0,13.925,1,1
0ooro3jk4ibd1vfcxixjsuwo,7,0,a49,6,6.0,1.0,9.86,1,1
0ooro3jk4ibd1vfcxixjsuwo,8,0,a53,0,4.0,0.0,11.186,1,1
0ooro3jk4ibd1vfcxixjsuwo,9,0,a55,1,0.0,0.0,13.468,1,1
0op0oetv9pqxgoerv8rypvic,1,0,a11,4,4.0,1.0,16.85,1,1
0op0oetv9pqxgoerv8rypvic,2,0,a24,4,4.0,1.0,18.281,1,1
0op0oetv9pqxgoerv8rypvic,3,0,a28,7,7.0,1.0,10.648,1,1
0op0oetv9pqxgoerv8rypvic,4,0,a36,1,1.0,1.0,13.386,1,1
0op0oetv9pqxgoerv8rypvic,5,0,a43,4,4.0,1.0,14.569,1,1
0op0oetv9pqxgoerv8rypvic,6,0,a48,5,5.0,1.0,16.429,1,1
0op0oetv9pqxgoerv8rypvic,7,0,a49,6,6.0,1.0,9.69,1,1
0op0oetv9pqxgoerv8rypvic,8,0,a53,0,0.0,1.0,8.361,1,1
0op0oetv9pqxgoerv8rypvic,9,0,a55,1,3.0,0.0,28.34,1,1
0q10tq8kaq3aegf7c03e4s9t,1,0,a11,4,4.0,1.0,19.483,1,1
0q10tq8kaq3aegf7c03e4s9t,2,0,a24,4,4.0,1.0,9.261,1,1
0q10tq8kaq3aegf7c03e4s9t,3,0,a28,7,7.0,1.0,16.337,1,1
0q10tq8kaq3aegf7c03e4s9t,4,0,a36,1,2.0,0.0,15.939,1,1
0q10tq8kaq3aegf7c03e4s9t,5,0,a43,4,4.0,1.0,26.267,1,1
0q10tq8kaq3aegf7c03e4s9t,6,0,a48,5,7.0,0.0,16.488,1,1
0q10tq8kaq3aegf7c03e4s9t,7,0,a49,6,6.0,1.0,12.28,1,1
0q10tq8kaq3aegf7c03e4s9t,8,0,a53,0,0.0,1.0,13.112,1,1
0q10tq8kaq3aegf7c03e4s9t,9,0,a55,1,,,,1,1
0r0rukhznftdhj8ks4dd3eps,1,0,a11,4,4.0,1.0,21.937,1,1
0r0rukhznftdhj8ks4dd3eps,2,0,a24,4,3.0,0.0,26.524,1,1
0r0rukhznftdhj8ks4dd3eps,3,0,a28,7,2.0,0.0,21.388,1,1
0r0rukhznftdhj8ks4dd3eps,4,0,a36,1,0.0,0.0,24.317,1,1
0r0rukhznftdhj8ks4dd3eps,5,0,a43,4,4.0,1.0,18.45,1,1
0r0rukhznftdhj8ks4dd3eps,6,0,a48,5,,,,1,1
0r0rukhznftdhj8ks4dd3eps,7,0,a49,6,2.0,0.0,10.047,1,1
0r0rukhznftdhj8ks4dd3eps,8,0,a53,0,1.0,0.0,26.065,1,1
0r0rukhznftdhj8ks4dd3eps,9,0,a55,1,6.0,0.0,13.044,1,1
0t5mn64j5jt6u4we3vt8erqk,1,0,a11,4,4.0,1.0,22.358,1,1
0t5mn64j5jt6u4we3vt8erqk,2,0,a24,4,4.0,1.0,29.779,1,1
0t5mn64j5jt6u4we3vt8erqk,3,0,a28,7,0.0,0.0,14.883,1,1
0t5mn64j5jt6u4we3vt8erqk,4,0,a36,1,2.0,0.0,11.621,1,1
0t5mn64j5jt6u4we3vt8erqk,5,0,a43,4,4.0,1.0,16.869,1,1
0t5mn64j5jt6u4we3vt8erqk,6,0,a48,5,5.0,1.0,23.533,1,1
0t5mn64j5jt6u4we3vt8erqk,7,0,a49,6,2.0,0.0,16.148,1,1
0t5mn64j5jt6u4we3vt8erqk,8,0,a53,0,0.0,1.0,7.435,1,1
0t5mn64j5jt6u4we3vt8erqk,9,0,a55,1,1.0,1.0,12.781,1,1
14sjc3esguljze4lie6dx0p3,1,0,a11,4,3.0,0.0,8.247,1,1
14sjc3esguljze4lie6dx0p3,2,0,a24,4,1.0,0.0,9.114,1,1
14sjc3esguljze4lie6dx0p3,3,0,a28,7,1.0,0.0,15.452,1,1
14sjc3esguljze4lie6dx0p3,4,0,a36,1,2.0,0.0,12.793,1,1
14sjc3esguljze4lie6dx0p3,5,0,a43,4,2.0,0.0,0.477,1,1
14sjc3esguljze4lie6dx0p3,6,0,a48,5,1.0,0.0,6.138,1,1
14sjc3esguljze4lie6dx0p3,7,0,a49,6,0.0,0.0,2.841,1,1
14sjc3esguljze4lie6dx0p3,8,0,a53,0,6.0,0.0,10.013,1,1
14sjc3esguljze4lie6dx0p3,9,0,a55,1,3.0,0.0,5.198,1,1
15ebams12i453mvmckqt1eyi,1,0,a11,4,4.0,1.0,14.577,1,1
15ebams12i453mvmckqt1eyi,2,0,a24,4,4.0,1.0,21.224,1,1
15ebams12i453mvmckqt1eyi,3,0,a28,7,7.0,1.0,20.687,1,1
15ebams12i453mvmckqt1eyi,4,0,a36,1,1.0,1.0,27.132,1,1
15ebams12i453mvmckqt1eyi,5,0,a43,4,1.0,0.0,20.177,1,1
15ebams12i453mvmckqt1eyi,6,0,a48,5,4.0,0.0,25.591,1,1
15ebams12i453mvmckqt1eyi,7,0,a49,6,6.0,1.0,6.387,1,1
15ebams12i453mvmckqt1eyi,8,0,a53,0,0.0,1.0,27.088,1,1
15ebams12i453mvmckqt1eyi,9,0,a55,1,6.0,0.0,15.09,1,1
19znotmovxga3imxfnglha5a,1,0,a11,4,4.0,1.0,9.402,1,1
19znotmovxga3imxfnglha5a,2,0,a24,4,4.0,1.0,22.793,1,1
19znotmovxga3imxfnglha5a,3,0,a28,7,7.0,1.0,28.049,1,1
19znotmovxga3imxfnglha5a,4,0,a36,1,2.0,0.0,16.643,1,1
19znotmovxga3imxfnglha5a,5,0,a43,4,4.0,1.0,26.823,1,1
19znotmovxga3imxfnglha5a,6,0,a48,5,6.0,0.0,28.593,1,1
19znotmovxga3imxfnglha5a,7,0,a49,6,6.0,1.0,10.265,1,1
19znotmovxga3imxfnglha5a,8,0,a53,0,0.0,1.0,23.324,1,1
19znotmovxga3imxfnglha5a,9,0,a55,1,6.0,0.0,11.896,1,1
1e9u3v9la9rwdphm565thm0a,1,0,a11,4,4.0,1.0,5.764,1,1
1e9u3v9la9rwdphm565thm0a,2,0,a24,4,4.0,1.0,9.0,1,1
1e9u3v9la9rwdphm565thm0a,3,0,a28,7,7.0,1.0,6.551,1,1
1e9u3v9la9rwdphm565thm0a,4,0,a36,1,3.0,0.0,9.547,1,1
1e9u3v9la9rwdphm565thm0a,5,0,a43,4,4.0,1.0,10.422,1,1
1e9u3v9la9rwdphm565thm0a,6,0,a48,5,7.0,0.0,12.201,1,1
1e9u3v9la9rwdphm565thm0a,7,0,a49,6,6.0,1.0,4.065,1,1
1e9u3v9la9rwdphm565thm0a,8,0,a53,0,1.0,0.0,12.506,1,1
1e9u3v9la9rwdphm565thm0a,9,0,a55,1,5.0,0.0,10.13,1,1
1fihrb5xisi1xwdd759hy0ag,1,0,a11,4,4.0,1.0,20.507,1,1
1fihrb5xisi1xwdd759hy0ag,2,0,a24,4,4.0,1.0,15.844,1,1
1fihrb5xisi1xwdd759hy0ag,3,0,a28,7,7.0,1.0,14.086,1,1
1fihrb5xisi1xwdd759hy0ag,4,0,a36,1,1.0,1.0,19.754,1,1
1fihrb5xisi1xwdd759hy0ag,5,0,a43,4,3.0,0.0,10.528,1,1
1fihrb5xisi1xwdd759hy0ag,6,0,a48,5,7.0,0.0,13.138,1,1
1fihrb5xisi1xwdd759hy0ag,7,0,a49,6,6.0,1.0,7.441,1,1
1fihrb5xisi1xwdd759hy0ag,8,0,a53,0,0.0,1.0,7.208,1,1
1fihrb5xisi1xwdd759hy0ag,9,0,a55,1,5.0,0.0,15.676,1,1
1h6c4xc876vyp61ouzu9r3tr,1,0,a11,4,4.0,1.0,7.244,1,1
1h6c4xc876vyp61ouzu9r3tr,2,0,a24,4,0.0,0.0,18.183,1,1
1h6c4xc876vyp61ouzu9r3tr,3,0,a28,7,7.0,1.0,11.543,1,1
1h6c4xc876vyp61ouzu9r3tr,4,0,a36,1,3.0,0.0,15.151,1,1
1h6c4xc876vyp61ouzu9r3tr,5,0,a43,4,4.0,1.0,12.58,1,1
1h6c4xc876vyp61ouzu9r3tr,6,0,a48,5,1.0,0.0,13.451,1,1
1h6c4xc876vyp61ouzu9r3tr,7,0,a49,6,6.0,1.0,5.336,1,1
1h6c4xc876vyp61ouzu9r3tr,8,0,a53,0,6.0,0.0,7.686,1,1
1h6c4xc876vyp61ouzu9r3tr,9,0,a55,1,6.0,0.0,14.702,1,1
1jfn0a7a6apgjpcyhffxi8ly,1,0,a11,4,4.0,1.0,24.223,1,1
1jfn0a7a6apgjpcyhffxi8ly,2,0,a24,4,5.0,0.0,5.74,1,1
1jfn0a7a6apgjpcyhffxi8ly,3,0,a28,7,3.0,0.0,8.034,1,1
1jfn0a7a6apgjpcyhffxi8ly,4,0,a36,1,2.0,0.0,25.401,1,1
1jfn0a7a6apgjpcyhffxi8ly,5,0,a43,4,4.0,1.0,15.68,1,1
1jfn0a7a6apgjpcyhffxi8ly,6,0,a48,5,6.0,0.0,17.957,1,1
1jfn0a7a6apgjpcyhffxi8ly,7,0,a49,6,3.0,0.0,18.599,1,1
1jfn0a7a6apgjpcyhffxi8ly,8,0,a53,0,5.0,0.0,20.454,1,1
1jfn0a7a6apgjpcyhffxi8ly,9,0,a55,1,0.0,0.0,22.281,1,1
1jkg3rwcf7jcysg0v2f7z9tv,1,0,a11,4,4.0,1.0,5.528,1,1
1jkg3rwcf7jcysg0v2f7z9tv,2,0,a24,4,5.0,0.0,9.465,1,1
1jkg3rwcf7jcysg0v2f7z9tv,3,0,a28,7,7.0,1.0,6.399,1,1
1jkg3rwcf7jcysg0v2f7z9tv,4,0,a36,1,1.0,1.0,25.899,1,1
1jkg3rwcf7jcysg0v2f7z9tv,5,0,a43,4,4.0,1.0,10.497,1,1
1jkg3rwcf7jcysg0v2f7z9tv,6,0,a48,5,7.0,0.0,13.251,1,1
1jkg3rwcf7jcysg0v2f7z9tv,7,0,a49,6,2.0,0.0,7.71,1,1
1jkg3rwcf7jcysg0v2f7z9tv,8,0,a53,0,0.0,1.0,9.362,1,1
1jkg3rwcf7jcysg0v2f7z9tv,9,0,a55,1,2.0,0.0,13.263,1,1
1jswiz9nlynbeqdbskqifs18,1,0,a11,4,4.0,1.0,7.22,1,1
1jswiz9nlynbeqdbskqifs18,2,0,a24,4,5.0,0.0,12.594,1,1
1jswiz9nlynbeqdbskqifs18,3,0,a28,7,7.0,1.0,11.045,1,1
1jswiz9nlynbeqdbskqifs18,4,0,a36,1,2.0,0.0,21.102,1,1
1jswiz9nlynbeqdbskqifs18,5,0,a43,4,4.0,1.0,18.029,1,1
1jswiz9nlynbeqdbskqifs18,6,0,a48,5,0.0,0.0,22.782,1,1
1jswiz9nlynbeqdbskqifs18,7,0,a49,6,2.0,0.0,8.382,1,1
1jswiz9nlynbeqdbskqifs18,8,0,a53,0,0.0,1.0,8.116,1,1
1jswiz9nlynbeqdbskqifs18,9,0,a55,1,2.0,0.0,16.638,1,1
1jvednu5151ueg4z8y95ks6i,1,0,a11,4,2.0,0.0,18.402,1,1
1jvednu5151ueg4z8y95ks6i,2,0,a24,4,5.0,0.0,10.471,1,1
1jvednu5151ueg4z8y95ks6i,3,0,a28,7,2.0,0.0,14.452,1,1
1jvednu5151ueg4z8y95ks6i,4,0,a36,1,4.0,0.0,13.914,1,1
1jvednu5151ueg4z8y95ks6i,5,0,a43,4,7.0,0.0,3.342,1,1
1jvednu5151ueg4z8y95ks6i,6,0,a48,5,6.0,0.0,14.332,1,1
1jvednu5151ueg4z8y95ks6i,7,0,a49,6,4.0,0.0,18.796,1,1
1jvednu5151ueg4z8y95ks6i,8,0,a53,0,6.0,0.0,12.999,1,1
1jvednu5151ueg4z8y95ks6i,9,0,a55,1,5.0,0.0,12.996,1,1
1l6wjwvvz12cqdh8jegcdfrk,1,0,a11,4,4.0,1.0,17.452,1,1
1l6wjwvvz12cqdh8jegcdfrk,2,0,a24,4,4.0,1.0,13.112,1,1
1l6wjwvvz12cqdh8jegcdfrk,3,0,a28,7,3.0,0.0,26.719,1,1
1l6wjwvvz12cqdh8jegcdfrk,4,0,a36,1,2.0,0.0,28.796,1,1
1l6wjwvvz12cqdh8jegcdfrk,5,0,a43,4,4.0,1.0,29.049,1,1
1l6wjwvvz12cqdh8jegcdfrk,6,0,a48,5,6.0,0.0,28.564,1,1
1l6wjwvvz12cqdh8jegcdfrk,7,0,a49,6,6.0,1.0,18.689,1,1
1l6wjwvvz12cqdh8jegcdfrk,8,0,a53,0,0.0,1.0,20.133,1,1
1l6wjwvvz12cqdh8jegcdfrk,9,0,a55,1,0.0,0.0,28.784,1,1
1l7xto0a6bb6xccbsvk2khms,1,0,a11,4,4.0,1.0,9.637,1,1
1l7xto0a6bb6xccbsvk2khms,2,0,a24,4,4.0,1.0,13.176,1,1
1l7xto0a6bb6xccbsvk2khms,3,0,a28,7,7.0,1.0,11.316,1,1
1l7xto0a6bb6xccbsvk2khms,4,0,a36,1,1.0,1.0,11.412,1,1
1l7xto0a6bb6xccbsvk2khms,5,0,a43,4,3.0,0.0,16.995,1,1
1l7xto0a6bb6xccbsvk2khms,6,0,a48,5,6.0,0.0,6.794,1,1
1l7xto0a6bb6xccbsvk2khms,7,0,a49,6,6.0,1.0,8.109,1,1
1l7xto0a6bb6xccbsvk2khms,8,0,a53,0,0.0,1.0,17.079,1,1
1l7xto0a6bb6xccbsvk2khms,9,0,a55,1,2.0,0.0,7.204,1,1
1nx2x9q18xxtv71blp7aated,1,0,a11,4,4.0,1.0,14.486,1,1
1nx2x9q18xxtv71blp7aated,2,0,a24,4,4.0,1.0,16.299,1,1
1nx2x9q18xxtv71blp7aated,3,0,a28,7,7.0,1.0,19.533,1,1
1nx2x9q18xxtv71blp7aated,4,0,a36,1,3.0,0.0,12.305,1,1
1nx2x9q18xxtv71blp7aated,5,0,a43,4,4.0,1.0,13.481,1,1
1nx2x9q18xxtv71blp7aated,6,0,a48,5,6.0,0.0,23.98,1,1
1nx2x9q18xxtv71blp7aated,7,0,a49,6,6.0,1.0,3.868,1,1
1nx2x9q18xxtv71blp7aated,8,0,a53,0,0.0,1.0,8.829,1,1
1nx2x9q18xxtv71blp7aated,9,0,a55,1,0.0,0.0,21.687,1,1
1qmmrnwno1bmdgx8gq83nk8d,1,0,a11,4,4.0,1.0,6.152,1,1
1qmmrnwno1bmdgx8gq83nk8d,2,0,a24,4,4.0,1.0,10.472,1,1
1qmmrnwno1bmdgx8gq83nk8d,3,0,a28,7,7.0,1.0,11.932,1,1
1qmmrnwno1bmdgx8gq83nk8d,4,0,a36,1,1.0,1.0,25.292,1,1
1qmmrnwno1bmdgx8gq83nk8d,5,0,a43,4,7.0,0.0,12.956,1,1
1qmmrnwno1bmdgx8gq83nk8d,6,0,a48,5,0.0,0.0,8.948,1,1
1qmmrnwno1bmdgx8gq83nk8d,7,0,a49,6,6.0,1.0,12.724,1,1
1qmmrnwno1bmdgx8gq83nk8d,8,0,a53,0,3.0,0.0,7.979,1,1
1qmmrnwno1bmdgx8gq83nk8d,9,0,a55,1,6.0,0.0,8.14,1,1
1w1qpgfcqf66b3m2typs0yhk,1,0,a11,4,2.0,0.0,9.533,1,1
1w1qpgfcqf66b3m2typs0yhk,2,0,a24,4,1.0,0.0,15.055,1,1
1w1qpgfcqf66b3m2typs0yhk,3,0,a28,7,7.0,1.0,10.363,1,1
1w1qpgfcqf66b3m2typs0yhk,4,0,a36,1,0.0,0.0,16.399,1,1
1w1qpgfcqf66b3m2typs0yhk,5,0,a43,4,4.0,1.0,18.093,1,1
1w1qpgfcqf66b3m2typs0yhk,6,0,a48,5,3.0,0.0,15.724,1,1
1w1qpgfcqf66b3m2typs0yhk,7,0,a49,6,6.0,1.0,16.294,1,1
1w1qpgfcqf66b3m2typs0yhk,8,0,a53,0,3.0,0.0,8.618,1,1
1w1qpgfcqf66b3m2typs0yhk,9,0,a55,1,5.0,0.0,10.504,1,1
1w2vilb174glntt8zdn5z5d5,1,0,a11,4,1.0,0.0,6.31,1,1
1w2vilb174glntt8zdn5z5d5,2,0,a24,4,4.0,1.0,8.139,1,1
1w2vilb174glntt8zdn5z5d5,3,0,a28,7,7.0,1.0,8.842,1,1
1w2vilb174glntt8zdn5z5d5,4,0,a36,1,1.0,1.0,6.33,1,1
1w2vilb174glntt8zdn5z5d5,5,0,a43,4,6.0,0.0,9.907,1,1
1w2vilb174glntt8zdn5z5d5,6,0,a48,5,5.0,1.0,9.285,1,1
1w2vilb174glntt8zdn5z5d5,7,0,a49,6,6.0,1.0,5.614,1,1
1w2vilb174glntt8zdn5z5d5,8,0,a53,0,3.0,0.0,6.386,1,1
1w2vilb174glntt8zdn5z5d5,9,0,a55,1,6.0,0.0,5.661,1,1
1w9jafc0r0qvfyr9ahl2wmmt,1,0,a11,4,4.0,1.0,26.852,1,1
1w9jafc0r0qvfyr9ahl2wmmt,2,0,a24,4,4.0,1.0,26.88,1,1
1w9jafc0r0qvfyr9ahl2wmmt,3,0,a28,7,7.0,1.0,20.095,1,1
1w9jafc0r0qvfyr9ahl2wmmt,4,0,a36,1,6.0,0.0,29.673,1,1
1w9jafc0r0qvfyr9ahl2wmmt,5,0,a43,4,4.0,1.0,14.65,1,1
1w9jafc0r0qvfyr9ahl2wmmt,6,0,a48,5,3.0,0.0,29.911,1,1
1w9jafc0r0qvfyr9ahl2wmmt,7,0,a49,6,6.0,1.0,18.488,1,1
1w9jafc0r0qvfyr9ahl2wmmt,8,0,a53,0,0.0,1.0,13.965,1,1
1w9jafc0r0qvfyr9ahl2wmmt,9,0,a55,1,0.0,0.0,20.091,1,1
1z9tl0tgp1u1hd7qxdu4ugfw,1,0,a11,4,4.0,1.0,8.455,1,1
1z9tl0tgp1u1hd7qxdu4ugfw,2,0,a24,4,5.0,0.0,28.986,1,1
1z9tl0tgp1u1hd7qxdu4ugfw,3,0,a28,7,7.0,1.0,6.852,1,1
1z9tl0tgp1u1hd7qxdu4ugfw,4,0,a36,1,1.0,1.0,20.625,1,1
1z9tl0tgp1u1hd7qxdu4ugfw,5,0,a43,4,4.0,1.0,18.205,1,1
1z9tl0tgp1u1hd7qxdu4ugfw,6,0,a48,5,6.0,0.0,19.848,1,1
1z9tl0tgp1u1hd7qxdu4ugfw,7,0,a49,6,6.0,1.0,7.133,1,1
1z9tl0tgp1u1hd7qxdu4ugfw,8,0,a53,0,0.0,1.0,7.938,1,1
1z9tl0tgp1u1hd7qxdu4ugfw,9,0,a55,1,1.0,1.0,15.528,1,1
24tckozyhy6n0wrasshxbgfq,1,0,a11,4,0.0,0.0,9.878,1,1
24tckozyhy6n0wrasshxbgfq,2,0,a24,4,0.0,0.0,16.917,1,1
24tckozyhy6n0wrasshxbgfq,3,0,a28,7,7.0,1.0,9.651,1,1
24tckozyhy6n0wrasshxbgfq,4,0,a36,1,2.0,0.0,7.651,1,1
24tckozyhy6n0wrasshxbgfq,5,0,a43,4,4.0,1.0,11.675,1,1
24tckozyhy6n0wrasshxbgfq,6,0,a48,5,6.0,0.0,11.572,1,1
24tckozyhy6n0wrasshxbgfq,7,0,a49,6,6.0,1.0,11.933,1,1
24tckozyhy6n0wrasshxbgfq,8,0,a53,0,0.0,1.0,16.332,1,1
24tckozyhy6n0wrasshxbgfq,9,0,a55,1,2.0,0.0,22.229,1,1
28lrxegugl5cjmbl038832yt,1,0,a11,4,4.0,1.0,8.428,1,1
28lrxegugl5cjmbl038832yt,2,0,a24,4,5.0,0.0,14.966,1,1
28lrxegugl5cjmbl038832yt,3,0,a28,7,7.0,1.0,4.588,1,1
28lrxegugl5cjmbl038832yt,4,0,a36,1,4.0,0.0,20.36,1,1
28lrxegugl5cjmbl038832yt,5,0,a43,4,0.0,0.0,13.934,1,1
28lrxegugl5cjmbl038832yt,6,0,a48,5,2.0,0.0,9.592,1,1
28lrxegugl5cjmbl038832yt,7,0,a49,6,6.0,1.0,8.146,1,1
28lrxegugl5cjmbl038832yt,8,0,a53,0,4.0,0.0,11.156,1,1
28lrxegugl5cjmbl038832yt,9,0,a55,1,6.0,0.0,4.815,1,1
2aitaeog6msxzfiw4c7n7us8,1,0,a11,4,1.0,0.0,4.598,1,1
2aitaeog6msxzfiw4c7n7us8,2,0,a24,4,4.0,1.0,18.554,1,1
2aitaeog6msxzfiw4c7n7us8,3,0,a28,7,7.0,1.0,18.27,1,1
2aitaeog6msxzfiw4c7n7us8,4,0,a36,1,2.0,0.0,15.077,1,1
2aitaeog6msxzfiw4c7n7us8,5,0,a43,4,3.0,0.0,11.877,1,1
2aitaeog6msxzfiw4c7n7us8,6,0,a48,5,5.0,1.0,12.647,1,1
2aitaeog6msxzfiw4c7n7us8,7,0,a49,6,6.0,1.0,8.478,1,1
2aitaeog6msxzfiw4c7n7us8,8,0,a53,0,6.0,0.0,15.527,1,1
2aitaeog6msxzfiw4c7n7us8,9,0,a55,1,2.0,0.0,9.301,1,1
2bv2b8ptqanwk0q8kfk7m9nf,1,0,a11,4,4.0,1.0,10.02,1,1
2bv2b8ptqanwk0q8kfk7m9nf,2,0,a24,4,3.0,0.0,9.525,1,1
2bv2b8ptqanwk0q8kfk7m9nf,3,0,a28,7,2.0,0.0,16.093,1,1
2bv2b8ptqanwk0q8kfk7m9nf,4,0,a36,1,2.0,0.0,18.43,1,1
2bv2b8ptqanwk0q8kfk7m9nf,5,0,a43,4,4.0,1.0,18.732,1,1
2bv2b8ptqanwk0q8kfk7m9nf,6,0,a48,5,3.0,0.0,19.653,1,1
2bv2b8ptqanwk0q8kfk7m9nf,7,0,a49,6,2.0,0.0,10.181,1,1
2bv2b8ptqanwk0q8kfk7m9nf,8,0,a53,0,0.0,1.0,13.357,1,1
2bv2b8ptqanwk0q8kfk7m9nf,9,0,a55,1,2.0,0.0,16.558,1,1
2cb0ef08mmlo1ra9m9r8n0p6,1,0,a11,4,4.0,1.0,23.038,1,1
2cb0ef08mmlo1ra9m9r8n0p6,2,0,a24,4,0.0,0.0,21.697,1,1
2cb0ef08mmlo1ra9m9r8n0p6,3,0,a28,7,7.0,1.0,27.373,1,1
2cb0ef08mmlo1ra9m9r8n0p6,4,0,a36,1,2.0,0.0,28.716,1,1
2cb0ef08mmlo1ra9m9r8n0p6,5,0,a43,4,4.0,1.0,28.963,1,1
2cb0ef08mmlo1ra9m9r8n0p6,6,0,a48,5,0.0,0.0,20.078,1,1
2cb0ef08mmlo1ra9m9r8n0p6,7,0,a49,6,6.0,1.0,13.625,1,1
2cb0ef08mmlo1ra9m9r8n0p6,8,0,a53,0,0.0,1.0,12.609,1,1
2cb0ef08mmlo1ra9m9r8n0p6,9,0,a55,1,,,,1,1
2fnebzfivqk77pn4qq7ms3wp,1,0,a11,4,4.0,1.0,21.564,1,1
2fnebzfivqk77pn4qq7ms3wp,2,0,a24,4,4.0,1.0,16.119,1,1
2fnebzfivqk77pn4qq7ms3wp,3,0,a28,7,7.0,1.0,6.837,1,1
2fnebzfivqk77pn4qq7ms3wp,4,0,a36,1,1.0,1.0,18.903,1,1
2fnebzfivqk77pn4qq7ms3wp,5,0,a43,4,4.0,1.0,14.285,1,1
2fnebzfivqk77pn4qq7ms3wp,6,0,a48,5,5.0,1.0,19.349,1,1
2fnebzfivqk77pn4qq7ms3wp,7,0,a49,6,6.0,1.0,13.156,1,1
2fnebzfivqk77pn4qq7ms3wp,8,0,a53,0,0.0,1.0,8.155,1,1
2fnebzfivqk77pn4qq7ms3wp,9,0,a55,1,1.0,1.0,15.287,1,1
2fudccw6jujfokoo99h12skn,1,0,a11,4,0.0,0.0,3.666,1,1
2fudccw6jujfokoo99h12skn,2,0,a24,4,5.0,0.0,11.811,1,1
2fudccw6jujfokoo99h12skn,3,0,a28,7,7.0,1.0,3.891,1,1
2fudccw6jujfokoo99h12skn,4,0,a36,1,1.0,1.0,17.26,1,1
2fudccw6jujfokoo99h12skn,5,0,a43,4,1.0,0.0,13.467,1,1
2fudccw6jujfokoo99h12skn,6,0,a48,5,6.0,0.0,10.478,1,1
2fudccw6jujfokoo99h12skn,7,0,a49,6,2.0,0.0,5.755,1,1
2fudccw6jujfokoo99h12skn,8,0,a53,0,0.0,1.0,14.581,1,1
2fudccw6jujfokoo99h12skn,9,0,a55,1,2.0,0.0,22.042,1,1
2jtumtn20tpxear6e1o4e60o,1,0,a11,4,4.0,1.0,16.046,1,1
2jtumtn20tpxear6e1o4e60o,2,0,a24,4,4.0,1.0,15.515,1,1
2jtumtn20tpxear6e1o4e60o,3,0,a28,7,7.0,1.0,16.962,1,1
2jtumtn20tpxear6e1o4e60o,4,0,a36,1,1.0,1.0,21.85,1,1
2jtumtn20tpxear6e1o4e60o,5,0,a43,4,4.0,1.0,19.125,1,1
2jtumtn20tpxear6e1o4e60o,6,0,a48,5,7.0,0.0,23.868,1,1
2jtumtn20tpxear6e1o4e60o,7,0,a49,6,6.0,1.0,9.994,1,1
2jtumtn20tpxear6e1o4e60o,8,0,a53,0,6.0,0.0,22.219,1,1
2jtumtn20tpxear6e1o4e60o,9,0,a55,1,3.0,0.0,20.411,1,1
2zhhgttgak8yl2icy6p5maq3,1,0,a11,4,5.0,0.0,24.96,1,1
2zhhgttgak8yl2icy6p5maq3,2,0,a24,4,1.0,0.0,18.753,1,1
2zhhgttgak8yl2icy6p5maq3,3,0,a28,7,7.0,1.0,26.914,1,1
2zhhgttgak8yl2icy6p5maq3,4,0,a36,1,,,,1,1
2zhhgttgak8yl2icy6p5maq3,5,0,a43,4,4.0,1.0,24.237,1,1
2zhhgttgak8yl2icy6p5maq3,6,0,a48,5,,,,1,1
2zhhgttgak8yl2icy6p5maq3,7,0,a49,6,6.0,1.0,14.846,1,1
2zhhgttgak8yl2icy6p5maq3,8,0,a53,0,,,,1,1
2zhhgttgak8yl2icy6p5maq3,9,0,a55,1,7.0,0.0,26.154,1,1
2zriym9qpt4y73931pm3g3wj,1,0,a11,4,4.0,1.0,10.21,1,1
2zriym9qpt4y73931pm3g3wj,2,0,a24,4,4.0,1.0,16.991,1,1
2zriym9qpt4y73931pm3g3wj,3,0,a28,7,7.0,1.0,14.214,1,1
2zriym9qpt4y73931pm3g3wj,4,0,a36,1,1.0,1.0,22.82,1,1
2zriym9qpt4y73931pm3g3wj,5,0,a43,4,4.0,1.0,20.133,1,1
2zriym9qpt4y73931pm3g3wj,6,0,a48,5,1.0,0.0,23.786,1,1
2zriym9qpt4y73931pm3g3wj,7,0,a49,6,6.0,1.0,20.806,1,1
2zriym9qpt4y73931pm3g3wj,8,0,a53,0,6.0,0.0,22.343,1,1
2zriym9qpt4y73931pm3g3wj,9,0,a55,1,3.0,0.0,11.171,1,1
38o1khqbqorz1iez564q0jjy,1,0,a11,4,4.0,1.0,14.091,1,1
38o1khqbqorz1iez564q0jjy,2,0,a24,4,4.0,1.0,24.214,1,1
38o1khqbqorz1iez564q0jjy,3,0,a28,7,7.0,1.0,10.435,1,1
38o1khqbqorz1iez564q0jjy,4,0,a36,1,,,,1,1
38o1khqbqorz1iez564q0jjy,5,0,a43,4,,,,1,1
38o1khqbqorz1iez564q0jjy,6,0,a48,5,6.0,0.0,17.996,1,1
38o1khqbqorz1iez564q0jjy,7,0,a49,6,6.0,1.0,13.818,1,1
38o1khqbqorz1iez564q0jjy,8,0,a53,0,0.0,1.0,25.899,1,1
38o1khqbqorz1iez564q0jjy,9,0,a55,1,6.0,0.0,10.924,1,1
3cwt9j1wlyxl46g0r3gqrok9,1,0,a11,4,4.0,1.0,5.858,1,1
3cwt9j1wlyxl46g0r3gqrok9,2,0,a24,4,1.0,0.0,5.715,1,1
3cwt9j1wlyxl46g0r3gqrok9,3,0,a28,7,7.0,1.0,4.903,1,1
3cwt9j1wlyxl46g0r3gqrok9,4,0,a36,1,2.0,0.0,5.579,1,1
3cwt9j1wlyxl46g0r3gqrok9,5,0,a43,4,,,,1,1
3cwt9j1wlyxl46g0r3gqrok9,6,0,a48,5,,,,1,1
3cwt9j1wlyxl46g0r3gqrok9,7,0,a49,6,,,,1,1
3cwt9j1wlyxl46g0r3gqrok9,8,0,a53,0,,,,1,1
3cwt9j1wlyxl46g0r3gqrok9,9,0,a55,1,,,,1,1
3grrp47mki4v5x52q1f3trc2,1,0,a11,4,4.0,1.0,12.666,1,1
3grrp47mki4v5x52q1f3trc2,2,0,a24,4,4.0,1.0,12.982,1,1
3grrp47mki4v5x52q1f3trc2,3,0,a28,7,7.0,1.0,11.102,1,1
3grrp47mki4v5x52q1f3trc2,4,0,a36,1,2.0,0.0,20.877,1,1
3grrp47mki4v5x52q1f3trc2,5,0,a43,4,4.0,1.0,19.088,1,1
3grrp47mki4v5x52q1f3trc2,6,0,a48,5,4.0,0.0,16.658,1,1
3grrp47mki4v5x52q1f3trc2,7,0,a49,6,6.0,1.0,6.803,1,1
3grrp47mki4v5x52q1f3trc2,8,0,a53,0,0.0,1.0,7.339,1,1
3grrp47mki4v5x52q1f3trc2,9,0,a55,1,2.0,0.0,19.907,1,1
3lfx7v98cdm905xf5atvmmoh,1,0,a11,4,2.0,0.0,7.39,1,1
3lfx7v98cdm905xf5atvmmoh,2,0,a24,4,5.0,0.0,6.116,1,1
3lfx7v98cdm905xf5atvmmoh,3,0,a28,7,7.0,1.0,6.016,1,1
3lfx7v98cdm905xf5atvmmoh,4,0,a36,1,0.0,0.0,7.461,1,1
3lfx7v98cdm905xf5atvmmoh,5,0,a43,4,7.0,0.0,11.905,1,1
3lfx7v98cdm905xf5atvmmoh,6,0,a48,5,1.0,0.0,9.923,1,1
3lfx7v98cdm905xf5atvmmoh,7,0,a49,6,6.0,1.0,3.893,1,1
3lfx7v98cdm905xf5atvmmoh,8,0,a53,0,4.0,0.0,10.91,1,1
3lfx7v98cdm905xf5atvmmoh,9,0,a55,1,3.0,0.0,9.584,1,1
3m38bxr37vhviwf2uw2nsrh6,1,0,a11,4,1.0,0.0,9.411,1,1
3m38bxr37vhviwf2uw2nsrh6,2,0,a24,4,1.0,0.0,6.653,1,1
3m38bxr37vhviwf2uw2nsrh6,3,0,a28,7,3.0,0.0,8.807,1,1
3m38bxr37vhviwf2uw2nsrh6,4,0,a36,1,5.0,0.0,9.753,1,1
3m38bxr37vhviwf2uw2nsrh6,5,0,a43,4,1.0,0.0,11.536,1,1
3m38bxr37vhviwf2uw2nsrh6,6,0,a48,5,1.0,0.0,9.516,1,1
3m38bxr37vhviwf2uw2nsrh6,7,0,a49,6,0.0,0.0,7.52,1,1
3m38bxr37vhviwf2uw2nsrh6,8,0,a53,0,6.0,0.0,4.962,1,1
3m38bxr37vhviwf2uw2nsrh6,9,0,a55,1,5.0,0.0,3.72,1,1
3qdt1lww14lcxvrfiazrbkvs,1,0,a11,4,4.0,1.0,15.647,1,1
3qdt1lww14lcxvrfiazrbkvs,2,0,a24,4,1.0,0.0,14.647,1,1
3qdt1lww14lcxvrfiazrbkvs,3,0,a28,7,7.0,1.0,6.67,1,1
3qdt1lww14lcxvrfiazrbkvs,4,0,a36,1,1.0,1.0,14.778,1,1
3qdt1lww14lcxvrfiazrbkvs,5,0,a43,4,3.0,0.0,1.172,1,1
3qdt1lww14lcxvrfiazrbkvs,6,0,a48,5,2.0,0.0,1.301,1,1
3qdt1lww14lcxvrfiazrbkvs,7,0,a49,6,2.0,0.0,0.742,1,1
3qdt1lww14lcxvrfiazrbkvs,8,0,a53,0,0.0,1.0,0.448,1,1
3qdt1lww14lcxvrfiazrbkvs,9,0,a55,1,7.0,0.0,2.228,1,1
3xlyknpl9gb0nuadoa5yxf5u,1,0,a11,4,4.0,1.0,10.632,1,1
3xlyknpl9gb0nuadoa5yxf5u,2,0,a24,4,4.0,1.0,9.915,1,1
3xlyknpl9gb0nuadoa5yxf5u,3,0,a28,7,7.0,1.0,11.377,1,1
3xlyknpl9gb0nuadoa5yxf5u,4,0,a36,1,2.0,0.0,8.513,1,1
3xlyknpl9gb0nuadoa5yxf5u,5,0,a43,4,6.0,0.0,28.749,1,1
3xlyknpl9gb0nuadoa5yxf5u,6,0,a48,5,6.0,0.0,24.287,1,1
3xlyknpl9gb0nuadoa5yxf5u,7,0,a49,6,2.0,0.0,7.922,1,1
3xlyknpl9gb0nuadoa5yxf5u,8,0,a53,0,0.0,1.0,8.57,1,1
3xlyknpl9gb0nuadoa5yxf5u,9,0,a55,1,1.0,1.0,16.482,1,1
3z313k9zkv5l8l0tvaulhw9t,1,0,a11,4,,,,1,1
3z313k9zkv5l8l0tvaulhw9t,2,0,a24,4,5.0,0.0,3.938,1,1
3z313k9zkv5l8l0tvaulhw9t,3,0,a28,7,5.0,0.0,1.745,1,1
3z313k9zkv5l8l0tvaulhw9t,4,0,a36,1,1.0,1.0,3.935,1,1
3z313k9zkv5l8l0tvaulhw9t,5,0,a43,4,3.0,0.0,2.267,1,1
3z313k9zkv5l8l0tvaulhw9t,6,0,a48,5,4.0,0.0,7.33,1,1
3z313k9zkv5l8l0tvaulhw9t,7,0,a49,6,2.0,0.0,2.447,1,1
3z313k9zkv5l8l0tvaulhw9t,8,0,a53,0,3.0,0.0,1.635,1,1
3z313k9zkv5l8l0tvaulhw9t,9,0,a55,1,0.0,0.0,4.01,1,1
3ziqmxy057hwbqabl8a7s7vx,1,0,a11,4,4.0,1.0,8.98,1,1
3ziqmxy057hwbqabl8a7s7vx,2,0,a24,4,4.0,1.0,21.967,1,1
3ziqmxy057hwbqabl8a7s7vx,3,0,a28,7,7.0,1.0,13.362,1,1
3ziqmxy057hwbqabl8a7s7vx,4,0,a36,1,3.0,0.0,27.965,1,1
3ziqmxy057hwbqabl8a7s7vx,5,0,a43,4,4.0,1.0,16.816,1,1
3ziqmxy057hwbqabl8a7s7vx,6,0,a48,5,6.0,0.0,15.937,1,1
3ziqmxy057hwbqabl8a7s7vx,7,0,a49,6,6.0,1.0,7.773,1,1
3ziqmxy057hwbqabl8a7s7vx,8,0,a53,0,,,,1,1
3ziqmxy057hwbqabl8a7s7vx,9,0,a55,1,3.0,0.0,28.163,1,1
3zxzh1l2mt8r1m2qmgej0gs9,1,0,a11,4,4.0,1.0,18.611,1,1
3zxzh1l2mt8r1m2qmgej0gs9,2,0,a24,4,4.0,1.0,16.249,1,1
3zxzh1l2mt8r1m2qmgej0gs9,3,0,a28,7,7.0,1.0,17.146,1,1
3zxzh1l2mt8r1m2qmgej0gs9,4,0,a36,1,,,,1,1
3zxzh1l2mt8r1m2qmgej0gs9,5,0,a43,4,4.0,1.0,21.485,1,1
3zxzh1l2mt8r1m2qmgej0gs9,6,0,a48,5,7.0,0.0,24.891,1,1
3zxzh1l2mt8r1m2qmgej0gs9,7,0,a49,6,6.0,1.0,8.749,1,1
3zxzh1l2mt8r1m2qmgej0gs9,8,0,a53,0,0.0,1.0,19.078,1,1
3zxzh1l2mt8r1m2qmgej0gs9,9,0,a55,1,2.0,0.0,29.556,1,1
41ajss1627t281ibnqit1qsw,1,0,a11,4,0.0,0.0,21.066,1,1
41ajss1627t281ibnqit1qsw,2,0,a24,4,4.0,1.0,11.751,1,1
41ajss1627t281ibnqit1qsw,3,0,a28,7,7.0,1.0,7.448,1,1
41ajss1627t281ibnqit1qsw,4,0,a36,1,3.0,0.0,21.738,1,1
41ajss1627t281ibnqit1qsw,5,0,a43,4,4.0,1.0,12.291,1,1
41ajss1627t281ibnqit1qsw,6,0,a48,5,4.0,0.0,13.164,1,1
41ajss1627t281ibnqit1qsw,7,0,a49,6,6.0,1.0,9.062,1,1
41ajss1627t281ibnqit1qsw,8,0,a53,0,6.0,0.0,8.43,1,1
41ajss1627t281ibnqit1qsw,9,0,a55,1,2.0,0.0,10.842,1,1
41wk1pam6jtdlgk7cale7lh8,1,0,a11,4,4.0,1.0,20.989,1,1
41wk1pam6jtdlgk7cale7lh8,2,0,a24,4,4.0,1.0,10.267,1,1
41wk1pam6jtdlgk7cale7lh8,3,0,a28,7,7.0,1.0,11.07,1,1
41wk1pam6jtdlgk7cale7lh8,4,0,a36,1,2.0,0.0,23.511,1,1
41wk1pam6jtdlgk7cale7lh8,5,0,a43,4,4.0,1.0,16.961,1,1
41wk1pam6jtdlgk7cale7lh8,6,0,a48,5,3.0,0.0,27.732,1,1
41wk1pam6jtdlgk7cale7lh8,7,0,a49,6,6.0,1.0,11.916,1,1
41wk1pam6jtdlgk7cale7lh8,8,0,a53,0,0.0,1.0,11.67,1,1
41wk1pam6jtdlgk7cale7lh8,9,0,a55,1,,,,1,1
438ohfulofqhhxbnbv10v1lv,1,0,a11,4,5.0,0.0,21.943,1,1
438ohfulofqhhxbnbv10v1lv,2,0,a24,4,4.0,1.0,11.849,1,1
438ohfulofqhhxbnbv10v1lv,3,0,a28,7,2.0,0.0,9.867,1,1
438ohfulofqhhxbnbv10v1lv,4,0,a36,1,3.0,0.0,13.094,1,1
438ohfulofqhhxbnbv10v1lv,5,0,a43,4,5.0,0.0,22.083,1,1
438ohfulofqhhxbnbv10v1lv,6,0,a48,5,2.0,0.0,10.56,1,1
438ohfulofqhhxbnbv10v1lv,7,0,a49,6,0.0,0.0,15.821,1,1
438ohfulofqhhxbnbv10v1lv,8,0,a53,0,3.0,0.0,20.993,1,1
438ohfulofqhhxbnbv10v1lv,9,0,a55,1,6.0,0.0,14.294,1,1
4860s149fvexikc9f5ukhza6,1,0,a11,4,4.0,1.0,17.898,1,1
4860s149fvexikc9f5ukhza6,2,0,a24,4,1.0,0.0,22.964,1,1
4860s149fvexikc9f5ukhza6,3,0,a28,7,7.0,1.0,7.807,1,1
4860s149fvexikc9f5ukhza6,4,0,a36,1,,,,1,1
4860s149fvexikc9f5ukhza6,5,0,a43,4,0.0,0.0,9.373,1,1
4860s149fvexikc9f5ukhza6,6,0,a48,5,1.0,0.0,9.433,1,1
4860s149fvexikc9f5ukhza6,7,0,a49,6,6.0,1.0,8.532,1,1
4860s149fvexikc9f5ukhza6,8,0,a53,0,6.0,0.0,12.444,1,1
4860s149fvexikc9f5ukhza6,9,0,a55,1,6.0,0.0,6.427,1,1
4aar93sek9rg8u03m3jgjxei,1,0,a11,4,4.0,1.0,19.52,1,1
4aar93sek9rg8u03m3jgjxei,2,0,a24,4,4.0,1.0,7.664,1,1
4aar93sek9rg8u03m3jgjxei,3,0,a28,7,7.0,1.0,21.903,1,1
4aar93sek9rg8u03m3jgjxei,4,0,a36,1,2.0,0.0,25.471,1,1
4aar93sek9rg8u03m3jgjxei,5,0,a43,4,4.0,1.0,15.94,1,1
4aar93sek9rg8u03m3jgjxei,6,0,a48,5,,,,1,1
4aar93sek9rg8u03m3jgjxei,7,0,a49,6,6.0,1.0,7.362,1,1
4aar93sek9rg8u03m3jgjxei,8,0,a53,0,0.0,1.0,9.518,1,1
4aar93sek9rg8u03m3jgjxei,9,0,a55,1,6.0,0.0,28.902,1,1
4alka6co6e15hjikm87bbjkz,1,0,a11,4,5.0,0.0,8.432,1,1
4alka6co6e15hjikm87bbjkz,2,0,a24,4,3.0,0.0,11.987,1,1
4alka6co6e15hjikm87bbjkz,3,0,a28,7,6.0,0.0,12.585,1,1
4alka6co6e15hjikm87bbjkz,4,0,a36,1,2.0,0.0,2.492,1,1
4alka6co6e15hjikm87bbjkz,5,0,a43,4,1.0,0.0,0.884,1,1
4alka6co6e15hjikm87bbjkz,6,0,a48,5,3.0,0.0,1.374,1,1
4alka6co6e15hjikm87bbjkz,7,0,a49,6,5.0,0.0,1.692,1,1
4alka6co6e15hjikm87bbjkz,8,0,a53,0,3.0,0.0,1.482,1,1
4alka6co6e15hjikm87bbjkz,9,0,a55,1,1.0,1.0,2.027,1,1
4aux5txdh7un1ahtd274idwj,1,0,a11,4,4.0,1.0,12.162,1,1
4aux5txdh7un1ahtd274idwj,2,0,a24,4,4.0,1.0,18.874,1,1
4aux5txdh7un1ahtd274idwj,3,0,a28,7,7.0,1.0,15.985,1,1
4aux5txdh7un1ahtd274idwj,4,0,a36,1,1.0,1.0,22.384,1,1
4aux5txdh7un1ahtd274idwj,5,0,a43,4,4.0,1.0,17.395,1,1
4aux5txdh7un1ahtd274idwj,6,0,a48,5,7.0,0.0,26.026,1,1
4aux5txdh7un1ahtd274idwj,7,0,a49,6,6.0,1.0,13.43,1,1
4aux5txdh7un1ahtd274idwj,8,0,a53,0,6.0,0.0,23.424,1,1
4aux5txdh7un1ahtd274idwj,9,0,a55,1,6.0,0.0,25.842,1,1
4cxyj4dfixaii8ddxcr9c57l,1,0,a11,4,5.0,0.0,13.452,1,1
4cxyj4dfixaii8ddxcr9c57l,2,0,a24,4,3.0,0.0,12.58,1,1
4cxyj4dfixaii8ddxcr9c57l,3,0,a28,7,1.0,0.0,14.031,1,1
4cxyj4dfixaii8ddxcr9c57l,4,0,a36,1,1.0,1.0,16.447,1,1
4cxyj4dfixaii8ddxcr9c57l,5,0,a43,4,3.0,0.0,10.167,1,1
4cxyj4dfixaii8ddxcr9c57l,6,0,a48,5,0.0,0.0,16.269,1,1
4cxyj4dfixaii8ddxcr9c57l,7,0,a49,6,6.0,1.0,10.98,1,1
4cxyj4dfixaii8ddxcr9c57l,8,0,a53,0,0.0,1.0,14.203,1,1
4cxyj4dfixaii8ddxcr9c57l,9,0,a55,1,0.0,0.0,11.517,1,1
4dk0dacpzdaexmx76ot1pusf,1,0,a11,4,4.0,1.0,6.086,1,1
4dk0dacpzdaexmx76ot1pusf,2,0,a24,4,5.0,0.0,24.681,1,1
4dk0dacpzdaexmx76ot1pusf,3,0,a28,7,2.0,0.0,12.34,1,1
4dk0dacpzdaexmx76ot1pusf,4,0,a36,1,3.0,0.0,15.646,1,1
4dk0dacpzdaexmx76ot1pusf,5,0,a43,4,1.0,0.0,28.616,1,1
4dk0dacpzdaexmx76ot1pusf,6,0,a48,5,1.0,0.0,17.646,1,1
4dk0dacpzdaexmx76ot1pusf,7,0,a49,6,6.0,1.0,15.191,1,1
4dk0dacpzdaexmx76ot1pusf,8,0,a53,0,6.0,0.0,28.086,1,1
4dk0dacpzdaexmx76ot1pusf,9,0,a55,1,0.0,0.0,13.534,1,1
4dsinf5it1vmhp2qvqf6hmqv,1,0,a11,4,0.0,0.0,7.625,1,1
4dsinf5it1vmhp2qvqf6hmqv,2,0,a24,4,5.0,0.0,15.54,1,1
4dsinf5it1vmhp2qvqf6hmqv,3,0,a28,7,7.0,1.0,10.349,1,1
4dsinf5it1vmhp2qvqf6hmqv,4,0,a36,1,6.0,0.0,29.508,1,1
4dsinf5it1vmhp2qvqf6hmqv,5,0,a43,4,4.0,1.0,12.359,1,1
4dsinf5it1vmhp2qvqf6hmqv,6,0,a48,5,2.0,0.0,23.475,1,1
4dsinf5it1vmhp2qvqf6hmqv,7,0,a49,6,6.0,1.0,12.244,1,1
4dsinf5it1vmhp2qvqf6hmqv,8,0,a53,0,0.0,1.0,8.105,1,1
4dsinf5it1vmhp2qvqf6hmqv,9,0,a55,1,6.0,0.0,26.166,1,1
4hlkg7e0t6hn3w6ipvysjz5m,1,0,a11,4,4.0,1.0,19.721,1,1
4hlkg7e0t6hn3w6ipvysjz5m,2,0,a24,4,5.0,0.0,12.171,1,1
4hlkg7e0t6hn3w6ipvysjz5m,3,0,a28,7,7.0,1.0,22.865,1,1
4hlkg7e0t6hn3w6ipvysjz5m,4,0,a36,1,2.0,0.0,17.266,1,1
4hlkg7e0t6hn3w6ipvysjz5m,5,0,a43,4,7.0,0.0,19.339,1,1
4hlkg7e0t6hn3w6ipvysjz5m,6,0,a48,5,0.0,0.0,17.506,1,1
4hlkg7e0t6hn3w6ipvysjz5m,7,0,a49,6,6.0,1.0,10.498,1,1
4hlkg7e0t6hn3w6ipvysjz5m,8,0,a53,0,6.0,0.0,12.714,1,1
4hlkg7e0t6hn3w6ipvysjz5m,9,0,a55,1,4.0,0.0,13.026,1,1
4ksp68f45oxl9g3grsns8pyz,1,0,a11,4,3.0,0.0,5.566,1,1
4ksp68f45oxl9g3grsns8pyz,2,0,a24,4,5.0,0.0,6.394,1,1
4ksp68f45oxl9g3grsns8pyz,3,0,a28,7,7.0,1.0,11.032,1,1
4ksp68f45oxl9g3grsns8pyz,4,0,a36,1,0.0,0.0,2.694,1,1
4ksp68f45oxl9g3grsns8pyz,5,0,a43,4,5.0,0.0,1.795,1,1
4ksp68f45oxl9g3grsns8pyz,6,0,a48,5,3.0,0.0,7.132,1,1
4ksp68f45oxl9g3grsns8pyz,7,0,a49,6,7.0,0.0,9.733,1,1
4ksp68f45oxl9g3grsns8pyz,8,0,a53,0,4.0,0.0,1.349,1,1
4ksp68f45oxl9g3grsns8pyz,9,0,a55,1,7.0,0.0,6.096,1,1
4n1m9d3petpxgtdj0lrvxqey,1,0,a11,4,4.0,1.0,7.893,1,1
4n1m9d3petpxgtdj0lrvxqey,2,0,a24,4,4.0,1.0,12.776,1,1
4n1m9d3petpxgtdj0lrvxqey,3,0,a28,7,7.0,1.0,6.407,1,1
4n1m9d3petpxgtdj0lrvxqey,4,0,a36,1,1.0,1.0,12.323,1,1
4n1m9d3petpxgtdj0lrvxqey,5,0,a43,4,4.0,1.0,11.715,1,1
4n1m9d3petpxgtdj0lrvxqey,6,0,a48,5,6.0,0.0,7.117,1,1
4n1m9d3petpxgtdj0lrvxqey,7,0,a49,6,6.0,1.0,5.864,1,1
4n1m9d3petpxgtdj0lrvxqey,8,0,a53,0,0.0,1.0,4.465,1,1
4n1m9d3petpxgtdj0lrvxqey,9,0,a55,1,7.0,0.0,19.871,1,1
4qbktuwkhw43sei43s7jpjje,1,0,a11,4,4.0,1.0,9.333,1,1
4qbktuwkhw43sei43s7jpjje,2,0,a24,4,4.0,1.0,10.437,1,1
4qbktuwkhw43sei43s7jpjje,3,0,a28,7,7.0,1.0,11.838,1,1
4qbktuwkhw43sei43s7jpjje,4,0,a36,1,7.0,0.0,12.349,1,1
4qbktuwkhw43sei43s7jpjje,5,0,a43,4,4.0,1.0,13.155,1,1
4qbktuwkhw43sei43s7jpjje,6,0,a48,5,5.0,1.0,9.987,1,1
4qbktuwkhw43sei43s7jpjje,7,0,a49,6,6.0,1.0,11.838,1,1
4qbktuwkhw43sei43s7jpjje,8,0,a53,0,0.0,1.0,17.158,1,1
4qbktuwkhw43sei43s7jpjje,9,0,a55,1,1.0,1.0,17.389,1,1
4qnv72s78t4iu8l5im81law0,1,0,a11,4,5.0,0.0,17.415,1,1
4qnv72s78t4iu8l5im81law0,2,0,a24,4,4.0,1.0,10.209,1,1
4qnv72s78t4iu8l5im81law0,3,0,a28,7,7.0,1.0,13.383,1,1
4qnv72s78t4iu8l5im81law0,4,0,a36,1,1.0,1.0,29.859,1,1
4qnv72s78t4iu8l5im81law0,5,0,a43,4,4.0,1.0,15.268,1,1
4qnv72s78t4iu8l5im81law0,6,0,a48,5,7.0,0.0,23.23,1,1
4qnv72s78t4iu8l5im81law0,7,0,a49,6,6.0,1.0,9.609,1,1
4qnv72s78t4iu8l5im81law0,8,0,a53,0,0.0,1.0,18.514,1,1
4qnv72s78t4iu8l5im81law0,9,0,a55,1,1.0,1.0,20.734,1,1
53kzdflbudey66baph2a4p9n,1,0,a11,4,4.0,1.0,14.921,1,1
53kzdflbudey66baph2a4p9n,2,0,a24,4,4.0,1.0,18.774,1,1
53kzdflbudey66baph2a4p9n,3,0,a28,7,7.0,1.0,15.318,1,1
53kzdflbudey66baph2a4p9n,4,0,a36,1,1.0,1.0,28.935,1,1
53kzdflbudey66baph2a4p9n,5,0,a43,4,4.0,1.0,19.744,1,1
53kzdflbudey66baph2a4p9n,6,0,a48,5,3.0,0.0,28.591,1,1
53kzdflbudey66baph2a4p9n,7,0,a49,6,6.0,1.0,10.459,1,1
53kzdflbudey66baph2a4p9n,8,0,a53,0,0.0,1.0,25.817,1,1
53kzdflbudey66baph2a4p9n,9,0,a55,1,5.0,0.0,24.141,1,1
56h64nq2o5zuwljavox4i31d,1,0,a11,4,0.0,0.0,8.214,1,1
56h64nq2o5zuwljavox4i31d,2,0,a24,4,5.0,0.0,11.733,1,1
56h64nq2o5zuwljavox4i31d,3,0,a28,7,7.0,1.0,11.101,1,1
56h64nq2o5zuwljavox4i31d,4,0,a36,1,1.0,1.0,19.173,1,1
56h64nq2o5zuwljavox4i31d,5,0,a43,4,4.0,1.0,14.806,1,1
56h64nq2o5zuwljavox4i31d,6,0,a48,5,6.0,0.0,18.848,1,1
56h64nq2o5zuwljavox4i31d,7,0,a49,6,6.0,1.0,8.594,1,1
56h64nq2o5zuwljavox4i31d,8,0,a53,0,6.0,0.0,4.546,1,1
56h64nq2o5zuwljavox4i31d,9,0,a55,1,6.0,0.0,11.844,1,1
59zjs1m6bwy5kx28gu4hwgwj,1,0,a11,4,4.0,1.0,9.224,1,1
59zjs1m6bwy5kx28gu4hwgwj,2,0,a24,4,4.0,1.0,10.185,1,1
59zjs1m6bwy5kx28gu4hwgwj,3,0,a28,7,7.0,1.0,5.459,1,1
59zjs1m6bwy5kx28gu4hwgwj,4,0,a36,1,1.0,1.0,17.566,1,1
59zjs1m6bwy5kx28gu4hwgwj,5,0,a43,4,4.0,1.0,14.751,1,1
59zjs1m6bwy5kx28gu4hwgwj,6,0,a48,5,5.0,1.0,22.139,1,1
59zjs1m6bwy5kx28gu4hwgwj,7,0,a49,6,6.0,1.0,7.474,1,1
59zjs1m6bwy5kx28gu4hwgwj,8,0,a53,0,0.0,1.0,15.041,1,1
59zjs1m6bwy5kx28gu4hwgwj,9,0,a55,1,7.0,0.0,29.391,1,1
5bj63tfobt71iq76e6y2ee8h,1,0,a11,4,2.0,0.0,10.143,1,1
5bj63tfobt71iq76e6y2ee8h,2,0,a24,4,2.0,0.0,26.22,1,1
5bj63tfobt71iq76e6y2ee8h,3,0,a28,7,7.0,1.0,8.931,1,1
5bj63tfobt71iq76e6y2ee8h,4,0,a36,1,5.0,0.0,13.189,1,1
5bj63tfobt71iq76e6y2ee8h,5,0,a43,4,4.0,1.0,15.899,1,1
5bj63tfobt71iq76e6y2ee8h,6,0,a48,5,5.0,1.0,23.935,1,1
5bj63tfobt71iq76e6y2ee8h,7,0,a49,6,0.0,0.0,14.734,1,1
5bj63tfobt71iq76e6y2ee8h,8,0,a53,0,6.0,0.0,5.606,1,1
5bj63tfobt71iq76e6y2ee8h,9,0,a55,1,0.0,0.0,10.395,1,1
5c1maa4ipzlitwl4e92h9q0e,1,0,a11,4,4.0,1.0,14.57,1,1
5c1maa4ipzlitwl4e92h9q0e,2,0,a24,4,4.0,1.0,9.85,1,1
5c1maa4ipzlitwl4e92h9q0e,3,0,a28,7,7.0,1.0,8.283,1,1
5c1maa4ipzlitwl4e92h9q0e,4,0,a36,1,2.0,0.0,12.346,1,1
5c1maa4ipzlitwl4e92h9q0e,5,0,a43,4,4.0,1.0,23.281,1,1
5c1maa4ipzlitwl4e92h9q0e,6,0,a48,5,7.0,0.0,25.574,1,1
5c1maa4ipzlitwl4e92h9q0e,7,0,a49,6,6.0,1.0,6.49,1,1
5c1maa4ipzlitwl4e92h9q0e,8,0,a53,0,0.0,1.0,8.39,1,1
5c1maa4ipzlitwl4e92h9q0e,9,0,a55,1,5.0,0.0,27.412,1,1
5e689f8cytlli9jwv6erg899,1,0,a11,4,4.0,1.0,21.354,1,1
5e689f8cytlli9jwv6erg899,2,0,a24,4,4.0,1.0,11.549,1,1
5e689f8cytlli9jwv6erg899,3,0,a28,7,7.0,1.0,17.991,1,1
5e689f8cytlli9jwv6erg899,4,0,a36,1,6.0,0.0,25.724,1,1
5e689f8cytlli9jwv6erg899,5,0,a43,4,6.0,0.0,8.403,1,1
5e689f8cytlli9jwv6erg899,6,0,a48,5,4.0,0.0,28.738,1,1
5e689f8cytlli9jwv6erg899,7,0,a49,6,6.0,1.0,6.309,1,1
5e689f8cytlli9jwv6erg899,8,0,a53,0,0.0,1.0,7.933,1,1
5e689f8cytlli9jwv6erg899,9,0,a55,1,6.0,0.0,20.741,1,1
5l2u7j2h21z19tcxhsjk2c08,1,0,a11,4,4.0,1.0,14.616,1,1
5l2u7j2h21z19tcxhsjk2c08,2,0,a24,4,4.0,1.0,14.526,1,1
5l2u7j2h21z19tcxhsjk2c08,3,0,a28,7,7.0,1.0,10.914,1,1
5l2u7j2h21z19tcxhsjk2c08,4,0,a36,1,2.0,0.0,27.171,1,1
5l2u7j2h21z19tcxhsjk2c08,5,0,a43,4,4.0,1.0,17.971,1,1
5l2u7j2h21z19tcxhsjk2c08,6,0,a48,5,4.0,0.0,27.103,1,1
5l2u7j2h21z19tcxhsjk2c08,7,0,a49,6,6.0,1.0,16.218,1,1
5l2u7j2h21z19tcxhsjk2c08,8,0,a53,0,0.0,1.0,9.349,1,1
5l2u7j2h21z19tcxhsjk2c08,9,0,a55,1,1.0,1.0,18.692,1,1
5u07f1czvi0xb50zn16xcgg8,1,0,a11,4,4.0,1.0,16.183,1,1
5u07f1czvi0xb50zn16xcgg8,2,0,a24,4,2.0,0.0,14.548,1,1
5u07f1czvi0xb50zn16xcgg8,3,0,a28,7,7.0,1.0,14.313,1,1
5u07f1czvi0xb50zn16xcgg8,4,0,a36,1,2.0,0.0,12.223,1,1
5u07f1czvi0xb50zn16xcgg8,5,0,a43,4,4.0,1.0,17.273,1,1
5u07f1czvi0xb50zn16xcgg8,6,0,a48,5,3.0,0.0,10.511,1,1
5u07f1czvi0xb50zn16xcgg8,7,0,a49,6,6.0,1.0,9.942,1,1
5u07f1czvi0xb50zn16xcgg8,8,0,a53,0,0.0,1.0,17.704,1,1
5u07f1czvi0xb50zn16xcgg8,9,0,a55,1,2.0,0.0,10.752,1,1
5xlzk18eq5a0ddiqfj2a5i7a,1,0,a11,4,4.0,1.0,19.513,1,1
5xlzk18eq5a0ddiqfj2a5i7a,2,0,a24,4,4.0,1.0,17.851,1,1
5xlzk18eq5a0ddiqfj2a5i7a,3,0,a28,7,7.0,1.0,15.449,1,1
5xlzk18eq5a0ddiqfj2a5i7a,4,0,a36,1,2.0,0.0,12.908,1,1
5xlzk18eq5a0ddiqfj2a5i7a,5,0,a43,4,4.0,1.0,22.647,1,1
5xlzk18eq5a0ddiqfj2a5i7a,6,0,a48,5,,,,1,1
5xlzk18eq5a0ddiqfj2a5i7a,7,0,a49,6,6.0,1.0,9.834,1,1
5xlzk18eq5a0ddiqfj2a5i7a,8,0,a53,0,0.0,1.0,12.861,1,1
5xlzk18eq5a0ddiqfj2a5i7a,9,0,a55,1,5.0,0.0,14.484,1,1
5xplh8hs67ttduk01u4cnqlh,1,0,a11,4,5.0,0.0,6.752,1,1
5xplh8hs67ttduk01u4cnqlh,2,0,a24,4,5.0,0.0,7.964,1,1
5xplh8hs67ttduk01u4cnqlh,3,0,a28,7,7.0,1.0,7.248,1,1
5xplh8hs67ttduk01u4cnqlh,4,0,a36,1,5.0,0.0,10.078,1,1
5xplh8hs67ttduk01u4cnqlh,5,0,a43,4,7.0,0.0,12.882,1,1
5xplh8hs67ttduk01u4cnqlh,6,0,a48,5,4.0,0.0,8.972,1,1
5xplh8hs67ttduk01u4cnqlh,7,0,a49,6,6.0,1.0,13.063,1,1
5xplh8hs67ttduk01u4cnqlh,8,0,a53,0,1.0,0.0,11.591,1,1
5xplh8hs67ttduk01u4cnqlh,9,0,a55,1,6.0,0.0,5.071,1,1
5xtclcocd6qqkxafo0l2g9cm,1,0,a11,4,5.0,0.0,9.713,1,1
5xtclcocd6qqkxafo0l2g9cm,2,0,a24,4,5.0,0.0,10.363,1,1
5xtclcocd6qqkxafo0l2g9cm,3,0,a28,7,7.0,1.0,12.833,1,1
5xtclcocd6qqkxafo0l2g9cm,4,0,a36,1,4.0,0.0,13.5,1,1
5xtclcocd6qqkxafo0l2g9cm,5,0,a43,4,4.0,1.0,12.315,1,1
5xtclcocd6qqkxafo0l2g9cm,6,0,a48,5,7.0,0.0,9.539,1,1
5xtclcocd6qqkxafo0l2g9cm,7,0,a49,6,7.0,0.0,22.653,1,1
5xtclcocd6qqkxafo0l2g9cm,8,0,a53,0,0.0,1.0,16.819,1,1
5xtclcocd6qqkxafo0l2g9cm,9,0,a55,1,6.0,0.0,18.586,1,1
608dtq6d0xec75zqgm3kmmeg,1,0,a11,4,4.0,1.0,10.422,1,1
608dtq6d0xec75zqgm3kmmeg,2,0,a24,4,0.0,0.0,20.466,1,1
608dtq6d0xec75zqgm3kmmeg,3,0,a28,7,7.0,1.0,9.599,1,1
608dtq6d0xec75zqgm3kmmeg,4,0,a36,1,,,,1,1
608dtq6d0xec75zqgm3kmmeg,5,0,a43,4,4.0,1.0,8.332,1,1
608dtq6d0xec75zqgm3kmmeg,6,0,a48,5,3.0,0.0,19.788,1,1
608dtq6d0xec75zqgm3kmmeg,7,0,a49,6,6.0,1.0,9.343,1,1
608dtq6d0xec75zqgm3kmmeg,8,0,a53,0,1.0,0.0,19.884,1,1
608dtq6d0xec75zqgm3kmmeg,9,0,a55,1,2.0,0.0,17.042,1,1
66g7o29rze5oq57cj9cncbd2,1,0,a11,4,4.0,1.0,22.222,1,1
66g7o29rze5oq57cj9cncbd2,2,0,a24,4,4.0,1.0,29.163,1,1
66g7o29rze5oq57cj9cncbd2,3,0,a28,7,7.0,1.0,12.43,1,1
66g7o29rze5oq57cj9cncbd2,4,0,a36,1,2.0,0.0,17.295,1,1
66g7o29rze5oq57cj9cncbd2,5,0,a43,4,4.0,1.0,23.572,1,1
66g7o29rze5oq57cj9cncbd2,6,0,a48,5,7.0,0.0,17.937,1,1
66g7o29rze5oq57cj9cncbd2,7,0,a49,6,6.0,1.0,11.417,1,1
66g7o29rze5oq57cj9cncbd2,8,0,a53,0,0.0,1.0,16.278,1,1
66g7o29rze5oq57cj9cncbd2,9,0,a55,1,5.0,0.0,29.05,1,1
6vbm9zf46dicbp9lguwjfgey,1,0,a11,4,0.0,0.0,15.567,1,1
6vbm9zf46dicbp9lguwjfgey,2,0,a24,4,4.0,1.0,16.162,1,1
6vbm9zf46dicbp9lguwjfgey,3,0,a28,7,7.0,1.0,21.365,1,1
6vbm9zf46dicbp9lguwjfgey,4,0,a36,1,5.0,0.0,25.585,1,1
6vbm9zf46dicbp9lguwjfgey,5,0,a43,4,4.0,1.0,16.116,1,1
6vbm9zf46dicbp9lguwjfgey,6,0,a48,5,6.0,0.0,13.779,1,1
6vbm9zf46dicbp9lguwjfgey,7,0,a49,6,0.0,0.0,4.514,1,1
6vbm9zf46dicbp9lguwjfgey,8,0,a53,0,7.0,0.0,2.781,1,1
6vbm9zf46dicbp9lguwjfgey,9,0,a55,1,6.0,0.0,2.369,1,1
6w9ojjc7tj02tgn3xrbdmcy6,1,0,a11,4,4.0,1.0,17.642,1,1
6w9ojjc7tj02tgn3xrbdmcy6,2,0,a24,4,4.0,1.0,24.57,1,1
6w9ojjc7tj02tgn3xrbdmcy6,3,0,a28,7,7.0,1.0,20.313,1,1
6w9ojjc7tj02tgn3xrbdmcy6,4,0,a36,1,,,,1,1
6w9ojjc7tj02tgn3xrbdmcy6,5,0,a43,4,4.0,1.0,24.95,1,1
6w9ojjc7tj02tgn3xrbdmcy6,6,0,a48,5,7.0,0.0,22.485,1,1
6w9ojjc7tj02tgn3xrbdmcy6,7,0,a49,6,6.0,1.0,10.126,1,1
6w9ojjc7tj02tgn3xrbdmcy6,8,0,a53,0,0.0,1.0,11.416,1,1
6w9ojjc7tj02tgn3xrbdmcy6,9,0,a55,1,2.0,0.0,28.48,1,1
758kt0my7ux5ltj4303u68ig,1,0,a11,4,5.0,0.0,13.805,1,1
758kt0my7ux5ltj4303u68ig,2,0,a24,4,3.0,0.0,8.7,1,1
758kt0my7ux5ltj4303u68ig,3,0,a28,7,7.0,1.0,15.352,1,1
758kt0my7ux5ltj4303u68ig,4,0,a36,1,3.0,0.0,23.996,1,1
758kt0my7ux5ltj4303u68ig,5,0,a43,4,0.0,0.0,20.925,1,1
758kt0my7ux5ltj4303u68ig,6,0,a48,5,5.0,1.0,21.828,1,1
758kt0my7ux5ltj4303u68ig,7,0,a49,6,0.0,0.0,23.707,1,1
758kt0my7ux5ltj4303u68ig,8,0,a53,0,6.0,0.0,6.604,1,1
758kt0my7ux5ltj4303u68ig,9,0,a55,1,3.0,0.0,12.547,1,1
7aq0xcfzob00t2r2vrrbswmr,1,0,a11,4,4.0,1.0,23.481,1,1
7aq0xcfzob00t2r2vrrbswmr,2,0,a24,4,4.0,1.0,22.307,1,1
7aq0xcfzob00t2r2vrrbswmr,3,0,a28,7,7.0,1.0,10.44,1,1
7aq0xcfzob00t2r2vrrbswmr,4,0,a36,1,1.0,1.0,17.865,1,1
7aq0xcfzob00t2r2vrrbswmr,5,0,a43,4,4.0,1.0,12.277,1,1
7aq0xcfzob00t2r2vrrbswmr,6,0,a48,5,4.0,0.0,27.758,1,1
7aq0xcfzob00t2r2vrrbswmr,7,0,a49,6,6.0,1.0,6.975,1,1
7aq0xcfzob00t2r2vrrbswmr,8,0,a53,0,0.0,1.0,17.044,1,1
7aq0xcfzob00t2r2vrrbswmr,9,0,a55,1,,,,1,1
7mrbn6yo1ppkbyjy7kz7mpq2,1,0,a11,4,5.0,0.0,18.171,1,1
7mrbn6yo1ppkbyjy7kz7mpq2,2,0,a24,4,4.0,1.0,18.806,1,1
7mrbn6yo1ppkbyjy7kz7mpq2,3,0,a28,7,7.0,1.0,12.244,1,1
7mrbn6yo1ppkbyjy7kz7mpq2,4,0,a36,1,3.0,0.0,13.922,1,1
7mrbn6yo1ppkbyjy7kz7mpq2,5,0,a43,4,4.0,1.0,18.451,1,1
7mrbn6yo1ppkbyjy7kz7mpq2,6,0,a48,5,6.0,0.0,28.531,1,1
7mrbn6yo1ppkbyjy7kz7mpq2,7,0,a49,6,6.0,1.0,11.275,1,1
7mrbn6yo1ppkbyjy7kz7mpq2,8,0,a53,0,6.0,0.0,27.116,1,1
7mrbn6yo1ppkbyjy7kz7mpq2,9,0,a55,1,6.0,0.0,25.965,1,1
7povmb6awscd62wrex2p6g8d,1,0,a11,4,4.0,1.0,15.413,1,1
7povmb6awscd62wrex2p6g8d,2,0,a24,4,0.0,0.0,12.691,1,1
7povmb6awscd62wrex2p6g8d,3,0,a28,7,7.0,1.0,10.629,1,1
7povmb6awscd62wrex2p6g8d,4,0,a36,1,3.0,0.0,12.42,1,1
7povmb6awscd62wrex2p6g8d,5,0,a43,4,7.0,0.0,10.404,1,1
7povmb6awscd62wrex2p6g8d,6,0,a48,5,7.0,0.0,18.686,1,1
7povmb6awscd62wrex2p6g8d,7,0,a49,6,6.0,1.0,12.2,1,1
7povmb6awscd62wrex2p6g8d,8,0,a53,0,0.0,1.0,16.041,1,1
7povmb6awscd62wrex2p6g8d,9,0,a55,1,1.0,1.0,16.637,1,1
87jaytrb0x60fbn0rdf880n4,1,0,a11,4,4.0,1.0,16.788,1,1
87jaytrb0x60fbn0rdf880n4,2,0,a24,4,5.0,0.0,15.357,1,1
87jaytrb0x60fbn0rdf880n4,3,0,a28,7,7.0,1.0,8.344,1,1
87jaytrb0x60fbn0rdf880n4,4,0,a36,1,2.0,0.0,14.467,1,1
87jaytrb0x60fbn0rdf880n4,5,0,a43,4,0.0,0.0,7.203,1,1
87jaytrb0x60fbn0rdf880n4,6,0,a48,5,6.0,0.0,11.472,1,1
87jaytrb0x60fbn0rdf880n4,7,0,a49,6,6.0,1.0,13.602,1,1
87jaytrb0x60fbn0rdf880n4,8,0,a53,0,0.0,1.0,12.438,1,1
87jaytrb0x60fbn0rdf880n4,9,0,a55,1,6.0,0.0,28.2,1,1
89alqlb24wckatlpcdik234f,1,0,a11,4,4.0,1.0,6.637,1,1
89alqlb24wckatlpcdik234f,2,0,a24,4,4.0,1.0,5.47,1,1
89alqlb24wckatlpcdik234f,3,0,a28,7,7.0,1.0,9.659,1,1
89alqlb24wckatlpcdik234f,4,0,a36,1,2.0,0.0,7.749,1,1
89alqlb24wckatlpcdik234f,5,0,a43,4,1.0,0.0,18.165,1,1
89alqlb24wckatlpcdik234f,6,0,a48,5,6.0,0.0,16.635,1,1
89alqlb24wckatlpcdik234f,7,0,a49,6,6.0,1.0,7.37,1,1
89alqlb24wckatlpcdik234f,8,0,a53,0,0.0,1.0,6.681,1,1
89alqlb24wckatlpcdik234f,9,0,a55,1,1.0,1.0,11.765,1,1
8jaa11nme2t5xexy6rvl1jm1,1,0,a11,4,4.0,1.0,8.706,1,1
8jaa11nme2t5xexy6rvl1jm1,2,0,a24,4,4.0,1.0,6.423,1,1
8jaa11nme2t5xexy6rvl1jm1,3,0,a28,7,7.0,1.0,11.749,1,1
8jaa11nme2t5xexy6rvl1jm1,4,0,a36,1,2.0,0.0,12.851,1,1
8jaa11nme2t5xexy6rvl1jm1,5,0,a43,4,3.0,0.0,14.819,1,1
8jaa11nme2t5xexy6rvl1jm1,6,0,a48,5,7.0,0.0,13.602,1,1
8jaa11nme2t5xexy6rvl1jm1,7,0,a49,6,2.0,0.0,7.673,1,1
8jaa11nme2t5xexy6rvl1jm1,8,0,a53,0,5.0,0.0,14.652,1,1
8jaa11nme2t5xexy6rvl1jm1,9,0,a55,1,0.0,0.0,17.754,1,1
8kt910fiiiugas4gfw99u89n,1,0,a11,4,4.0,1.0,22.71,1,1
8kt910fiiiugas4gfw99u89n,2,0,a24,4,4.0,1.0,20.674,1,1
8kt910fiiiugas4gfw99u89n,3,0,a28,7,7.0,1.0,23.288,1,1
8kt910fiiiugas4gfw99u89n,4,0,a36,1,1.0,1.0,27.722,1,1
8kt910fiiiugas4gfw99u89n,5,0,a43,4,4.0,1.0,20.434,1,1
8kt910fiiiugas4gfw99u89n,6,0,a48,5,6.0,0.0,28.825,1,1
8kt910fiiiugas4gfw99u89n,7,0,a49,6,6.0,1.0,11.401,1,1
8kt910fiiiugas4gfw99u89n,8,0,a53,0,0.0,1.0,8.922,1,1
8kt910fiiiugas4gfw99u89n,9,0,a55,1,1.0,1.0,25.514,1,1
8mhbvgqqnyqb3l21i90su6he,1,0,a11,4,5.0,0.0,13.946,1,1
8mhbvgqqnyqb3l21i90su6he,2,0,a24,4,4.0,1.0,17.083,1,1
8mhbvgqqnyqb3l21i90su6he,3,0,a28,7,5.0,0.0,21.033,1,1
8mhbvgqqnyqb3l21i90su6he,4,0,a36,1,2.0,0.0,16.377,1,1
8mhbvgqqnyqb3l21i90su6he,5,0,a43,4,4.0,1.0,6.655,1,1
8mhbvgqqnyqb3l21i90su6he,6,0,a48,5,1.0,0.0,5.913,1,1
8mhbvgqqnyqb3l21i90su6he,7,0,a49,6,2.0,0.0,6.551,1,1
8mhbvgqqnyqb3l21i90su6he,8,0,a53,0,2.0,0.0,7.758,1,1
8mhbvgqqnyqb3l21i90su6he,9,0,a55,1,6.0,0.0,6.187,1,1
8nffzdd3kyzjfr9b8rot84xh,1,0,a11,4,4.0,1.0,11.003,1,1
8nffzdd3kyzjfr9b8rot84xh,2,0,a24,4,0.0,0.0,15.285,1,1
8nffzdd3kyzjfr9b8rot84xh,3,0,a28,7,7.0,1.0,12.94,1,1
8nffzdd3kyzjfr9b8rot84xh,4,0,a36,1,1.0,1.0,17.83,1,1
8nffzdd3kyzjfr9b8rot84xh,5,0,a43,4,7.0,0.0,29.742,1,1
8nffzdd3kyzjfr9b8rot84xh,6,0,a48,5,7.0,0.0,26.835,1,1
8nffzdd3kyzjfr9b8rot84xh,7,0,a49,6,6.0,1.0,10.587,1,1
8nffzdd3kyzjfr9b8rot84xh,8,0,a53,0,6.0,0.0,29.048,1,1
8nffzdd3kyzjfr9b8rot84xh,9,0,a55,1,2.0,0.0,11.873,1,1
8ox4mbrcj4fon8yekjsz63qt,1,0,a11,4,5.0,0.0,8.363,1,1
8ox4mbrcj4fon8yekjsz63qt,2,0,a24,4,5.0,0.0,25.042,1,1
8ox4mbrcj4fon8yekjsz63qt,3,0,a28,7,7.0,1.0,6.575,1,1
8ox4mbrcj4fon8yekjsz63qt,4,0,a36,1,6.0,0.0,8.131,1,1
8ox4mbrcj4fon8yekjsz63qt,5,0,a43,4,3.0,0.0,23.635,1,1
8ox4mbrcj4fon8yekjsz63qt,6,0,a48,5,6.0,0.0,19.983,1,1
8ox4mbrcj4fon8yekjsz63qt,7,0,a49,6,6.0,1.0,10.587,1,1
8ox4mbrcj4fon8yekjsz63qt,8,0,a53,0,6.0,0.0,3.159,1,1
8ox4mbrcj4fon8yekjsz63qt,9,0,a55,1,6.0,0.0,2.051,1,1
8tjnnr68n5kd8w3slqldd88t,1,0,a11,4,0.0,0.0,8.723,1,1
8tjnnr68n5kd8w3slqldd88t,2,0,a24,4,4.0,1.0,11.492,1,1
8tjnnr68n5kd8w3slqldd88t,3,0,a28,7,7.0,1.0,6.328,1,1
8tjnnr68n5kd8w3slqldd88t,4,0,a36,1,1.0,1.0,25.769,1,1
8tjnnr68n5kd8w3slqldd88t,5,0,a43,4,4.0,1.0,24.689,1,1
8tjnnr68n5kd8w3slqldd88t,6,0,a48,5,7.0,0.0,29.456,1,1
8tjnnr68n5kd8w3slqldd88t,7,0,a49,6,6.0,1.0,4.168,1,1
8tjnnr68n5kd8w3slqldd88t,8,0,a53,0,0.0,1.0,7.593,1,1
8tjnnr68n5kd8w3slqldd88t,9,0,a55,1,0.0,0.0,25.516,1,1
905afalfokgy508gkbhgt1hx,1,0,a11,4,4.0,1.0,13.017,1,1
905afalfokgy508gkbhgt1hx,2,0,a24,4,2.0,0.0,26.808,1,1
905afalfokgy508gkbhgt1hx,3,0,a28,7,7.0,1.0,13.232,1,1
905afalfokgy508gkbhgt1hx,4,0,a36,1,,,,1,1
905afalfokgy508gkbhgt1hx,5,0,a43,4,3.0,0.0,13.838,1,1
905afalfokgy508gkbhgt1hx,6,0,a48,5,1.0,0.0,9.244,1,1
905afalfokgy508gkbhgt1hx,7,0,a49,6,6.0,1.0,7.377,1,1
905afalfokgy508gkbhgt1hx,8,0,a53,0,3.0,0.0,18.83,1,1
905afalfokgy508gkbhgt1hx,9,0,a55,1,3.0,0.0,22.236,1,1
956dsja0kqtsmwj2ytzsgewv,1,0,a11,4,4.0,1.0,13.704,1,1
956dsja0kqtsmwj2ytzsgewv,2,0,a24,4,4.0,1.0,10.606,1,1
956dsja0kqtsmwj2ytzsgewv,3,0,a28,7,7.0,1.0,8.855,1,1
956dsja0kqtsmwj2ytzsgewv,4,0,a36,1,1.0,1.0,14.442,1,1
956dsja0kqtsmwj2ytzsgewv,5,0,a43,4,4.0,1.0,19.194,1,1
956dsja0kqtsmwj2ytzsgewv,6,0,a48,5,5.0,1.0,23.922,1,1
956dsja0kqtsmwj2ytzsgewv,7,0,a49,6,6.0,1.0,7.693,1,1
956dsja0kqtsmwj2ytzsgewv,8,0,a53,0,2.0,0.0,28.143,1,1
956dsja0kqtsmwj2ytzsgewv,9,0,a55,1,1.0,1.0,29.744,1,1
967oec9l1nvfo0ziqgqy1te2,1,0,a11,4,3.0,0.0,9.211,1,1
967oec9l1nvfo0ziqgqy1te2,2,0,a24,4,4.0,1.0,10.45,1,1
967oec9l1nvfo0ziqgqy1te2,3,0,a28,7,7.0,1.0,15.29,1,1
967oec9l1nvfo0ziqgqy1te2,4,0,a36,1,2.0,0.0,14.653,1,1
967oec9l1nvfo0ziqgqy1te2,5,0,a43,4,3.0,0.0,29.152,1,1
967oec9l1nvfo0ziqgqy1te2,6,0,a48,5,4.0,0.0,28.432,1,1
967oec9l1nvfo0ziqgqy1te2,7,0,a49,6,6.0,1.0,12.865,1,1
967oec9l1nvfo0ziqgqy1te2,8,0,a53,0,0.0,1.0,14.818,1,1
967oec9l1nvfo0ziqgqy1te2,9,0,a55,1,6.0,0.0,16.222,1,1
986nb9qudtufx25ancsy4uus,1,0,a11,4,5.0,0.0,10.929,1,1
986nb9qudtufx25ancsy4uus,2,0,a24,4,4.0,1.0,17.546,1,1
986nb9qudtufx25ancsy4uus,3,0,a28,7,3.0,0.0,14.168,1,1
986nb9qudtufx25ancsy4uus,4,0,a36,1,,,,1,1
986nb9qudtufx25ancsy4uus,5,0,a43,4,0.0,0.0,11.273,1,1
986nb9qudtufx25ancsy4uus,6,0,a48,5,3.0,0.0,14.879,1,1
986nb9qudtufx25ancsy4uus,7,0,a49,6,2.0,0.0,12.961,1,1
986nb9qudtufx25ancsy4uus,8,0,a53,0,6.0,0.0,14.817,1,1
986nb9qudtufx25ancsy4uus,9,0,a55,1,0.0,0.0,24.216,1,1
98go0w582iiympeu2js4xcwp,1,0,a11,4,5.0,0.0,18.653,1,1
98go0w582iiympeu2js4xcwp,2,0,a24,4,5.0,0.0,27.182,1,1
98go0w582iiympeu2js4xcwp,3,0,a28,7,7.0,1.0,16.387,1,1
98go0w582iiympeu2js4xcwp,4,0,a36,1,2.0,0.0,14.713,1,1
98go0w582iiympeu2js4xcwp,5,0,a43,4,4.0,1.0,24.673,1,1
98go0w582iiympeu2js4xcwp,6,0,a48,5,6.0,0.0,18.816,1,1
98go0w582iiympeu2js4xcwp,7,0,a49,6,6.0,1.0,10.257,1,1
98go0w582iiympeu2js4xcwp,8,0,a53,0,2.0,0.0,14.24,1,1
98go0w582iiympeu2js4xcwp,9,0,a55,1,0.0,0.0,22.222,1,1
9afw5te4a1v33a52p16gw5wy,1,0,a11,4,4.0,1.0,10.305,1,1
9afw5te4a1v33a52p16gw5wy,2,0,a24,4,5.0,0.0,5.363,1,1
9afw5te4a1v33a52p16gw5wy,3,0,a28,7,7.0,1.0,13.16,1,1
9afw5te4a1v33a52p16gw5wy,4,0,a36,1,1.0,1.0,17.608,1,1
9afw5te4a1v33a52p16gw5wy,5,0,a43,4,3.0,0.0,16.621,1,1
9afw5te4a1v33a52p16gw5wy,6,0,a48,5,6.0,0.0,10.2,1,1
9afw5te4a1v33a52p16gw5wy,7,0,a49,6,6.0,1.0,6.478,1,1
9afw5te4a1v33a52p16gw5wy,8,0,a53,0,7.0,0.0,14.736,1,1
9afw5te4a1v33a52p16gw5wy,9,0,a55,1,6.0,0.0,4.308,1,1
9fyils7m7b8jmf5dqtqofyi6,1,0,a11,4,5.0,0.0,7.807,1,1
9fyils7m7b8jmf5dqtqofyi6,2,0,a24,4,2.0,0.0,28.901,1,1
9fyils7m7b8jmf5dqtqofyi6,3,0,a28,7,2.0,0.0,11.968,1,1
9fyils7m7b8jmf5dqtqofyi6,4,0,a36,1,2.0,0.0,11.757,1,1
9fyils7m7b8jmf5dqtqofyi6,5,0,a43,4,4.0,1.0,25.188,1,1
9fyils7m7b8jmf5dqtqofyi6,6,0,a48,5,7.0,0.0,29.416,1,1
9fyils7m7b8jmf5dqtqofyi6,7,0,a49,6,6.0,1.0,5.985,1,1
9fyils7m7b8jmf5dqtqofyi6,8,0,a53,0,0.0,1.0,7.392,1,1
9fyils7m7b8jmf5dqtqofyi6,9,0,a55,1,1.0,1.0,22.478,1,1
9g5sxg7rugvbvu7fehkz1iil,1,0,a11,4,0.0,0.0,9.278,1,1
9g5sxg7rugvbvu7fehkz1iil,2,0,a24,4,5.0,0.0,9.245,1,1
9g5sxg7rugvbvu7fehkz1iil,3,0,a28,7,7.0,1.0,5.678,1,1
9g5sxg7rugvbvu7fehkz1iil,4,0,a36,1,5.0,0.0,21.559,1,1
9g5sxg7rugvbvu7fehkz1iil,5,0,a43,4,4.0,1.0,11.796,1,1
9g5sxg7rugvbvu7fehkz1iil,6,0,a48,5,1.0,0.0,19.649,1,1
9g5sxg7rugvbvu7fehkz1iil,7,0,a49,6,6.0,1.0,9.564,1,1
9g5sxg7rugvbvu7fehkz1iil,8,0,a53,0,0.0,1.0,10.322,1,1
9g5sxg7rugvbvu7fehkz1iil,9,0,a55,1,6.0,0.0,3.32,1,1
9odg3d3q0fk9hedo3u35n5bi,1,0,a11,4,2.0,0.0,21.169,1,1
9odg3d3q0fk9hedo3u35n5bi,2,0,a24,4,4.0,1.0,19.485,1,1
9odg3d3q0fk9hedo3u35n5bi,3,0,a28,7,7.0,1.0,13.011,1,1
9odg3d3q0fk9hedo3u35n5bi,4,0,a36,1,4.0,0.0,25.888,1,1
9odg3d3q0fk9hedo3u35n5bi,5,0,a43,4,4.0,1.0,13.665,1,1
9odg3d3q0fk9hedo3u35n5bi,6,0,a48,5,6.0,0.0,13.504,1,1
9odg3d3q0fk9hedo3u35n5bi,7,0,a49,6,2.0,0.0,10.091,1,1
9odg3d3q0fk9hedo3u35n5bi,8,0,a53,0,0.0,1.0,21.861,1,1
9odg3d3q0fk9hedo3u35n5bi,9,0,a55,1,4.0,0.0,29.154,1,1
9s4xl1c38uivrm2ff88176s4,1,0,a11,4,4.0,1.0,14.889,1,1
9s4xl1c38uivrm2ff88176s4,2,0,a24,4,4.0,1.0,17.063,1,1
9s4xl1c38uivrm2ff88176s4,3,0,a28,7,7.0,1.0,9.766,1,1
9s4xl1c38uivrm2ff88176s4,4,0,a36,1,2.0,0.0,25.063,1,1
9s4xl1c38uivrm2ff88176s4,5,0,a43,4,4.0,1.0,14.43,1,1
9s4xl1c38uivrm2ff88176s4,6,0,a48,5,0.0,0.0,25.65,1,1
9s4xl1c38uivrm2ff88176s4,7,0,a49,6,6.0,1.0,16.389,1,1
9s4xl1c38uivrm2ff88176s4,8,0,a53,0,0.0,1.0,19.139,1,1
9s4xl1c38uivrm2ff88176s4,9,0,a55,1,0.0,0.0,10.943,1,1
9tf8q5wjsq762a1h18m6wawj,1,0,a11,4,4.0,1.0,9.909,1,1
9tf8q5wjsq762a1h18m6wawj,2,0,a24,4,5.0,0.0,23.971,1,1
9tf8q5wjsq762a1h18m6wawj,3,0,a28,7,7.0,1.0,13.408,1,1
9tf8q5wjsq762a1h18m6wawj,4,0,a36,1,1.0,1.0,26.551,1,1
9tf8q5wjsq762a1h18m6wawj,5,0,a43,4,1.0,0.0,20.655,1,1
9tf8q5wjsq762a1h18m6wawj,6,0,a48,5,6.0,0.0,25.526,1,1
9tf8q5wjsq762a1h18m6wawj,7,0,a49,6,6.0,1.0,9.257,1,1
9tf8q5wjsq762a1h18m6wawj,8,0,a53,0,6.0,0.0,14.937,1,1
9tf8q5wjsq762a1h18m6wawj,9,0,a55,1,6.0,0.0,13.758,1,1
a8u9tqwngrm4ar2zrwuhl0rw,1,0,a11,4,3.0,0.0,20.706,1,1
a8u9tqwngrm4ar2zrwuhl0rw,2,0,a24,4,3.0,0.0,16.599,1,1
a8u9tqwngrm4ar2zrwuhl0rw,3,0,a28,7,7.0,1.0,21.622,1,1
a8u9tqwngrm4ar2zrwuhl0rw,4,0,a36,1,2.0,0.0,21.489,1,1
a8u9tqwngrm4ar2zrwuhl0rw,5,0,a43,4,4.0,1.0,22.608,1,1
a8u9tqwngrm4ar2zrwuhl0rw,6,0,a48,5,7.0,0.0,24.056,1,1
a8u9tqwngrm4ar2zrwuhl0rw,7,0,a49,6,6.0,1.0,20.792,1,1
a8u9tqwngrm4ar2zrwuhl0rw,8,0,a53,0,3.0,0.0,27.292,1,1
a8u9tqwngrm4ar2zrwuhl0rw,9,0,a55,1,6.0,0.0,28.524,1,1
a9i6yhw5fdy05k2trwjtly6v,1,0,a11,4,5.0,0.0,7.626,1,1
a9i6yhw5fdy05k2trwjtly6v,2,0,a24,4,2.0,0.0,10.698,1,1
a9i6yhw5fdy05k2trwjtly6v,3,0,a28,7,7.0,1.0,5.722,1,1
a9i6yhw5fdy05k2trwjtly6v,4,0,a36,1,4.0,0.0,17.092,1,1
a9i6yhw5fdy05k2trwjtly6v,5,0,a43,4,4.0,1.0,9.587,1,1
a9i6yhw5fdy05k2trwjtly6v,6,0,a48,5,7.0,0.0,9.377,1,1
a9i6yhw5fdy05k2trwjtly6v,7,0,a49,6,2.0,0.0,11.619,1,1
a9i6yhw5fdy05k2trwjtly6v,8,0,a53,0,3.0,0.0,5.572,1,1
a9i6yhw5fdy05k2trwjtly6v,9,0,a55,1,4.0,0.0,10.784,1,1
a9xyo7m7jpfr3cef88kci6nd,1,0,a11,4,4.0,1.0,19.479,1,1
a9xyo7m7jpfr3cef88kci6nd,2,0,a24,4,4.0,1.0,17.813,1,1
a9xyo7m7jpfr3cef88kci6nd,3,0,a28,7,7.0,1.0,17.729,1,1
a9xyo7m7jpfr3cef88kci6nd,4,0,a36,1,3.0,0.0,28.399,1,1
a9xyo7m7jpfr3cef88kci6nd,5,0,a43,4,4.0,1.0,16.44,1,1
a9xyo7m7jpfr3cef88kci6nd,6,0,a48,5,6.0,0.0,14.829,1,1
a9xyo7m7jpfr3cef88kci6nd,7,0,a49,6,6.0,1.0,7.261,1,1
a9xyo7m7jpfr3cef88kci6nd,8,0,a53,0,0.0,1.0,16.589,1,1
a9xyo7m7jpfr3cef88kci6nd,9,0,a55,1,4.0,0.0,29.423,1,1
aa1lgg9pkqjbkzl6nfteph4k,1,0,a11,4,2.0,0.0,5.483,1,1
aa1lgg9pkqjbkzl6nfteph4k,2,0,a24,4,4.0,1.0,11.512,1,1
aa1lgg9pkqjbkzl6nfteph4k,3,0,a28,7,7.0,1.0,13.217,1,1
aa1lgg9pkqjbkzl6nfteph4k,4,0,a36,1,2.0,0.0,14.037,1,1
aa1lgg9pkqjbkzl6nfteph4k,5,0,a43,4,4.0,1.0,16.092,1,1
aa1lgg9pkqjbkzl6nfteph4k,6,0,a48,5,1.0,0.0,25.722,1,1
aa1lgg9pkqjbkzl6nfteph4k,7,0,a49,6,2.0,0.0,14.415,1,1
aa1lgg9pkqjbkzl6nfteph4k,8,0,a53,0,6.0,0.0,5.295,1,1
aa1lgg9pkqjbkzl6nfteph4k,9,0,a55,1,3.0,0.0,6.501,1,1
afp14too3qdtpy7yf24t34qb,1,0,a11,4,4.0,1.0,6.9,1,1
afp14too3qdtpy7yf24t34qb,2,0,a24,4,2.0,0.0,4.79,1,1
afp14too3qdtpy7yf24t34qb,3,0,a28,7,7.0,1.0,4.787,1,1
afp14too3qdtpy7yf24t34qb,4,0,a36,1,7.0,0.0,7.378,1,1
afp14too3qdtpy7yf24t34qb,5,0,a43,4,7.0,0.0,10.61,1,1
afp14too3qdtpy7yf24t34qb,6,0,a48,5,3.0,0.0,9.473,1,1
afp14too3qdtpy7yf24t34qb,7,0,a49,6,0.0,0.0,4.736,1,1
afp14too3qdtpy7yf24t34qb,8,0,a53,0,6.0,0.0,7.328,1,1
afp14too3qdtpy7yf24t34qb,9,0,a55,1,2.0,0.0,5.202,1,1
anvk62nkqtvq89v6zob2vgni,1,0,a11,4,4.0,1.0,15.758,1,1
anvk62nkqtvq89v6zob2vgni,2,0,a24,4,5.0,0.0,15.179,1,1
anvk62nkqtvq89v6zob2vgni,3,0,a28,7,7.0,1.0,9.19,1,1
anvk62nkqtvq89v6zob2vgni,4,0,a36,1,1.0,1.0,19.658,1,1
anvk62nkqtvq89v6zob2vgni,5,0,a43,4,4.0,1.0,17.345,1,1
anvk62nkqtvq89v6zob2vgni,6,0,a48,5,7.0,0.0,11.275,1,1
anvk62nkqtvq89v6zob2vgni,7,0,a49,6,6.0,1.0,12.912,1,1
anvk62nkqtvq89v6zob2vgni,8,0,a53,0,0.0,1.0,7.238,1,1
anvk62nkqtvq89v6zob2vgni,9,0,a55,1,0.0,0.0,15.115,1,1
asix2f04aq38c2o8gdn3j8uk,1,0,a11,4,4.0,1.0,21.084,1,1
asix2f04aq38c2o8gdn3j8uk,2,0,a24,4,0.0,0.0,15.527,1,1
asix2f04aq38c2o8gdn3j8uk,3,0,a28,7,7.0,1.0,9.712,1,1
asix2f04aq38c2o8gdn3j8uk,4,0,a36,1,6.0,0.0,15.954,1,1
asix2f04aq38c2o8gdn3j8uk,5,0,a43,4,4.0,1.0,16.313,1,1
asix2f04aq38c2o8gdn3j8uk,6,0,a48,5,1.0,0.0,17.535,1,1
asix2f04aq38c2o8gdn3j8uk,7,0,a49,6,2.0,0.0,14.793,1,1
asix2f04aq38c2o8gdn3j8uk,8,0,a53,0,1.0,0.0,12.007,1,1
asix2f04aq38c2o8gdn3j8uk,9,0,a55,1,2.0,0.0,13.755,1,1
av4jenhfprndgcu5lslrmlmz,1,0,a11,4,0.0,0.0,16.248,1,1
av4jenhfprndgcu5lslrmlmz,2,0,a24,4,1.0,0.0,28.595,1,1
av4jenhfprndgcu5lslrmlmz,3,0,a28,7,7.0,1.0,16.476,1,1
av4jenhfprndgcu5lslrmlmz,4,0,a36,1,2.0,0.0,15.692,1,1
av4jenhfprndgcu5lslrmlmz,5,0,a43,4,7.0,0.0,19.03,1,1
av4jenhfprndgcu5lslrmlmz,6,0,a48,5,1.0,0.0,24.028,1,1
av4jenhfprndgcu5lslrmlmz,7,0,a49,6,6.0,1.0,9.432,1,1
av4jenhfprndgcu5lslrmlmz,8,0,a53,0,0.0,1.0,7.771,1,1
av4jenhfprndgcu5lslrmlmz,9,0,a55,1,3.0,0.0,17.382,1,1
azj78vq0mta467n8doj63c8h,1,0,a11,4,5.0,0.0,6.256,1,1
azj78vq0mta467n8doj63c8h,2,0,a24,4,5.0,0.0,9.49,1,1
azj78vq0mta467n8doj63c8h,3,0,a28,7,7.0,1.0,12.624,1,1
azj78vq0mta467n8doj63c8h,4,0,a36,1,1.0,1.0,16.025,1,1
azj78vq0mta467n8doj63c8h,5,0,a43,4,7.0,0.0,17.336,1,1
azj78vq0mta467n8doj63c8h,6,0,a48,5,1.0,0.0,27.313,1,1
azj78vq0mta467n8doj63c8h,7,0,a49,6,4.0,0.0,8.193,1,1
azj78vq0mta467n8doj63c8h,8,0,a53,0,0.0,1.0,9.183,1,1
azj78vq0mta467n8doj63c8h,9,0,a55,1,6.0,0.0,24.719,1,1
b9t5ng97lbahokkoc0yb1w17,1,0,a11,4,5.0,0.0,3.684,1,1
b9t5ng97lbahokkoc0yb1w17,2,0,a24,4,5.0,0.0,7.256,1,1
b9t5ng97lbahokkoc0yb1w17,3,0,a28,7,7.0,1.0,3.906,1,1
b9t5ng97lbahokkoc0yb1w17,4,0,a36,1,2.0,0.0,5.69,1,1
b9t5ng97lbahokkoc0yb1w17,5,0,a43,4,3.0,0.0,6.019,1,1
b9t5ng97lbahokkoc0yb1w17,6,0,a48,5,6.0,0.0,5.432,1,1
b9t5ng97lbahokkoc0yb1w17,7,0,a49,6,6.0,1.0,5.564,1,1
b9t5ng97lbahokkoc0yb1w17,8,0,a53,0,6.0,0.0,5.579,1,1
b9t5ng97lbahokkoc0yb1w17,9,0,a55,1,2.0,0.0,6.692,1,1
bh2gbiidt0gzz16dfzmbkqa0,1,0,a11,4,4.0,1.0,4.964,1,1
bh2gbiidt0gzz16dfzmbkqa0,2,0,a24,4,5.0,0.0,5.683,1,1
bh2gbiidt0gzz16dfzmbkqa0,3,0,a28,7,7.0,1.0,5.908,1,1
bh2gbiidt0gzz16dfzmbkqa0,4,0,a36,1,3.0,0.0,4.582,1,1
bh2gbiidt0gzz16dfzmbkqa0,5,0,a43,4,7.0,0.0,7.557,1,1
bh2gbiidt0gzz16dfzmbkqa0,6,0,a48,5,7.0,0.0,7.471,1,1
bh2gbiidt0gzz16dfzmbkqa0,7,0,a49,6,6.0,1.0,7.526,1,1
bh2gbiidt0gzz16dfzmbkqa0,8,0,a53,0,2.0,0.0,7.714,1,1
bh2gbiidt0gzz16dfzmbkqa0,9,0,a55,1,2.0,0.0,5.96,1,1
bibr4vmh4s571rpxxd3izfwn,1,0,a11,4,3.0,0.0,18.344,1,1
bibr4vmh4s571rpxxd3izfwn,2,0,a24,4,4.0,1.0,21.828,1,1
bibr4vmh4s571rpxxd3izfwn,3,0,a28,7,7.0,1.0,28.553,1,1
bibr4vmh4s571rpxxd3izfwn,4,0,a36,1,4.0,0.0,4.782,1,1
bibr4vmh4s571rpxxd3izfwn,5,0,a43,4,2.0,0.0,5.517,1,1
bibr4vmh4s571rpxxd3izfwn,6,0,a48,5,6.0,0.0,2.667,1,1
bibr4vmh4s571rpxxd3izfwn,7,0,a49,6,6.0,1.0,2.899,1,1
bibr4vmh4s571rpxxd3izfwn,8,0,a53,0,6.0,0.0,4.286,1,1
bibr4vmh4s571rpxxd3izfwn,9,0,a55,1,0.0,0.0,3.203,1,1
biehie4hpxkq60sfc84pzplp,1,0,a11,4,4.0,1.0,9.533,1,1
biehie4hpxkq60sfc84pzplp,2,0,a24,4,4.0,1.0,12.517,1,1
biehie4hpxkq60sfc84pzplp,3,0,a28,7,7.0,1.0,18.425,1,1
biehie4hpxkq60sfc84pzplp,4,0,a36,1,2.0,0.0,12.541,1,1
biehie4hpxkq60sfc84pzplp,5,0,a43,4,4.0,1.0,14.308,1,1
biehie4hpxkq60sfc84pzplp,6,0,a48,5,7.0,0.0,15.148,1,1
biehie4hpxkq60sfc84pzplp,7,0,a49,6,6.0,1.0,5.296,1,1
biehie4hpxkq60sfc84pzplp,8,0,a53,0,6.0,0.0,9.063,1,1
biehie4hpxkq60sfc84pzplp,9,0,a55,1,6.0,0.0,5.92,1,1
biqonnr4iwtp8u6wqqpadu2a,1,0,a11,4,5.0,0.0,16.417,1,1
biqonnr4iwtp8u6wqqpadu2a,2,0,a24,4,5.0,0.0,14.017,1,1
biqonnr4iwtp8u6wqqpadu2a,3,0,a28,7,7.0,1.0,5.926,1,1
biqonnr4iwtp8u6wqqpadu2a,4,0,a36,1,1.0,1.0,13.675,1,1
biqonnr4iwtp8u6wqqpadu2a,5,0,a43,4,4.0,1.0,10.49,1,1
biqonnr4iwtp8u6wqqpadu2a,6,0,a48,5,3.0,0.0,13.033,1,1
biqonnr4iwtp8u6wqqpadu2a,7,0,a49,6,0.0,0.0,14.699,1,1
biqonnr4iwtp8u6wqqpadu2a,8,0,a53,0,3.0,0.0,15.952,1,1
biqonnr4iwtp8u6wqqpadu2a,9,0,a55,1,3.0,0.0,13.117,1,1
bnhqnb4drhbfpj3fixyznexn,1,0,a11,4,4.0,1.0,8.05,1,1
bnhqnb4drhbfpj3fixyznexn,2,0,a24,4,4.0,1.0,11.423,1,1
bnhqnb4drhbfpj3fixyznexn,3,0,a28,7,7.0,1.0,7.397,1,1
bnhqnb4drhbfpj3fixyznexn,4,0,a36,1,1.0,1.0,13.614,1,1
bnhqnb4drhbfpj3fixyznexn,5,0,a43,4,4.0,1.0,8.82,1,1
bnhqnb4drhbfpj3fixyznexn,6,0,a48,5,5.0,1.0,24.07,1,1
bnhqnb4drhbfpj3fixyznexn,7,0,a49,6,6.0,1.0,7.827,1,1
bnhqnb4drhbfpj3fixyznexn,8,0,a53,0,0.0,1.0,6.541,1,1
bnhqnb4drhbfpj3fixyznexn,9,0,a55,1,,,,1,1
bonu84eynx8to4noo1gep53n,1,0,a11,4,5.0,0.0,10.03,1,1
bonu84eynx8to4noo1gep53n,2,0,a24,4,4.0,1.0,5.754,1,1
bonu84eynx8to4noo1gep53n,3,0,a28,7,7.0,1.0,5.778,1,1
bonu84eynx8to4noo1gep53n,4,0,a36,1,2.0,0.0,13.525,1,1
bonu84eynx8to4noo1gep53n,5,0,a43,4,3.0,0.0,12.51,1,1
bonu84eynx8to4noo1gep53n,6,0,a48,5,6.0,0.0,19.453,1,1
bonu84eynx8to4noo1gep53n,7,0,a49,6,6.0,1.0,8.54,1,1
bonu84eynx8to4noo1gep53n,8,0,a53,0,0.0,1.0,10.517,1,1
bonu84eynx8to4noo1gep53n,9,0,a55,1,6.0,0.0,16.716,1,1
bppynjwoe619kl445jdxl5yu,1,0,a11,4,5.0,0.0,19.738,1,1
bppynjwoe619kl445jdxl5yu,2,0,a24,4,2.0,0.0,15.797,1,1
bppynjwoe619kl445jdxl5yu,3,0,a28,7,,,,1,1
bppynjwoe619kl445jdxl5yu,4,0,a36,1,7.0,0.0,14.093,1,1
bppynjwoe619kl445jdxl5yu,5,0,a43,4,7.0,0.0,19.075,1,1
bppynjwoe619kl445jdxl5yu,6,0,a48,5,3.0,0.0,4.48,1,1
bppynjwoe619kl445jdxl5yu,7,0,a49,6,6.0,1.0,9.553,1,1
bppynjwoe619kl445jdxl5yu,8,0,a53,0,0.0,1.0,3.123,1,1
bppynjwoe619kl445jdxl5yu,9,0,a55,1,6.0,0.0,6.389,1,1
bv3rpfsnlin5i8samevinw6e,1,0,a11,4,4.0,1.0,6.644,1,1
bv3rpfsnlin5i8samevinw6e,2,0,a24,4,1.0,0.0,11.672,1,1
bv3rpfsnlin5i8samevinw6e,3,0,a28,7,7.0,1.0,6.575,1,1
bv3rpfsnlin5i8samevinw6e,4,0,a36,1,2.0,0.0,10.193,1,1
bv3rpfsnlin5i8samevinw6e,5,0,a43,4,4.0,1.0,8.464,1,1
bv3rpfsnlin5i8samevinw6e,6,0,a48,5,7.0,0.0,16.784,1,1
bv3rpfsnlin5i8samevinw6e,7,0,a49,6,6.0,1.0,7.633,1,1
bv3rpfsnlin5i8samevinw6e,8,0,a53,0,0.0,1.0,8.48,1,1
bv3rpfsnlin5i8samevinw6e,9,0,a55,1,1.0,1.0,20.847,1,1
bw6rdole1yt1jot1wgxfzimi,1,0,a11,4,5.0,0.0,20.097,1,1
bw6rdole1yt1jot1wgxfzimi,2,0,a24,4,4.0,1.0,17.621,1,1
bw6rdole1yt1jot1wgxfzimi,3,0,a28,7,7.0,1.0,16.512,1,1
bw6rdole1yt1jot1wgxfzimi,4,0,a36,1,1.0,1.0,23.787,1,1
bw6rdole1yt1jot1wgxfzimi,5,0,a43,4,1.0,0.0,21.351,1,1
bw6rdole1yt1jot1wgxfzimi,6,0,a48,5,5.0,1.0,20.522,1,1
bw6rdole1yt1jot1wgxfzimi,7,0,a49,6,2.0,0.0,14.726,1,1
bw6rdole1yt1jot1wgxfzimi,8,0,a53,0,2.0,0.0,12.601,1,1
bw6rdole1yt1jot1wgxfzimi,9,0,a55,1,4.0,0.0,24.649,1,1
byjabzdbugkiw5v2g2rhwok3,1,0,a11,4,5.0,0.0,9.604,1,1
byjabzdbugkiw5v2g2rhwok3,2,0,a24,4,1.0,0.0,13.727,1,1
byjabzdbugkiw5v2g2rhwok3,3,0,a28,7,2.0,0.0,8.427,1,1
byjabzdbugkiw5v2g2rhwok3,4,0,a36,1,1.0,1.0,13.359,1,1
byjabzdbugkiw5v2g2rhwok3,5,0,a43,4,1.0,0.0,10.972,1,1
byjabzdbugkiw5v2g2rhwok3,6,0,a48,5,7.0,0.0,13.636,1,1
byjabzdbugkiw5v2g2rhwok3,7,0,a49,6,6.0,1.0,9.419,1,1
byjabzdbugkiw5v2g2rhwok3,8,0,a53,0,6.0,0.0,11.558,1,1
byjabzdbugkiw5v2g2rhwok3,9,0,a55,1,5.0,0.0,17.164,1,1
ccizjdhpne8gyrqv46ky4uzr,1,0,a11,4,4.0,1.0,15.477,1,1
ccizjdhpne8gyrqv46ky4uzr,2,0,a24,4,4.0,1.0,24.52,1,1
ccizjdhpne8gyrqv46ky4uzr,3,0,a28,7,7.0,1.0,21.642,1,1
ccizjdhpne8gyrqv46ky4uzr,4,0,a36,1,5.0,0.0,25.895,1,1
ccizjdhpne8gyrqv46ky4uzr,5,0,a43,4,4.0,1.0,19.963,1,1
ccizjdhpne8gyrqv46ky4uzr,6,0,a48,5,7.0,0.0,25.447,1,1
ccizjdhpne8gyrqv46ky4uzr,7,0,a49,6,6.0,1.0,12.554,1,1
ccizjdhpne8gyrqv46ky4uzr,8,0,a53,0,6.0,0.0,11.405,1,1
ccizjdhpne8gyrqv46ky4uzr,9,0,a55,1,6.0,0.0,17.335,1,1
cf2exwv92q3639ajwcqxjp6h,1,0,a11,4,4.0,1.0,19.538,1,1
cf2exwv92q3639ajwcqxjp6h,2,0,a24,4,5.0,0.0,24.643,1,1
cf2exwv92q3639ajwcqxjp6h,3,0,a28,7,7.0,1.0,13.032,1,1
cf2exwv92q3639ajwcqxjp6h,4,0,a36,1,1.0,1.0,16.3,1,1
cf2exwv92q3639ajwcqxjp6h,5,0,a43,4,4.0,1.0,29.987,1,1
cf2exwv92q3639ajwcqxjp6h,6,0,a48,5,6.0,0.0,26.386,1,1
cf2exwv92q3639ajwcqxjp6h,7,0,a49,6,6.0,1.0,7.878,1,1
cf2exwv92q3639ajwcqxjp6h,8,0,a53,0,6.0,0.0,23.349,1,1
cf2exwv92q3639ajwcqxjp6h,9,0,a55,1,6.0,0.0,19.642,1,1
cgkc6pxov6542313smgbf9fn,1,0,a11,4,5.0,0.0,13.793,1,1
cgkc6pxov6542313smgbf9fn,2,0,a24,4,4.0,1.0,24.358,1,1
cgkc6pxov6542313smgbf9fn,3,0,a28,7,7.0,1.0,18.89,1,1
cgkc6pxov6542313smgbf9fn,4,0,a36,1,5.0,0.0,28.718,1,1
cgkc6pxov6542313smgbf9fn,5,0,a43,4,4.0,1.0,14.098,1,1
cgkc6pxov6542313smgbf9fn,6,0,a48,5,,,,1,1
cgkc6pxov6542313smgbf9fn,7,0,a49,6,6.0,1.0,9.614,1,1
cgkc6pxov6542313smgbf9fn,8,0,a53,0,0.0,1.0,19.701,1,1
cgkc6pxov6542313smgbf9fn,9,0,a55,1,7.0,0.0,28.873,1,1
ckqu6fi3n6f4rlwc3ews3ce8,1,0,a11,4,4.0,1.0,9.757,1,1
ckqu6fi3n6f4rlwc3ews3ce8,2,0,a24,4,1.0,0.0,9.97,1,1
ckqu6fi3n6f4rlwc3ews3ce8,3,0,a28,7,7.0,1.0,7.516,1,1
ckqu6fi3n6f4rlwc3ews3ce8,4,0,a36,1,2.0,0.0,16.569,1,1
ckqu6fi3n6f4rlwc3ews3ce8,5,0,a43,4,4.0,1.0,14.649,1,1
ckqu6fi3n6f4rlwc3ews3ce8,6,0,a48,5,6.0,0.0,14.439,1,1
ckqu6fi3n6f4rlwc3ews3ce8,7,0,a49,6,0.0,0.0,17.101,1,1
ckqu6fi3n6f4rlwc3ews3ce8,8,0,a53,0,3.0,0.0,11.828,1,1
ckqu6fi3n6f4rlwc3ews3ce8,9,0,a55,1,0.0,0.0,12.55,1,1
cujwjliz7vs2ql45auo8meze,1,0,a11,4,0.0,0.0,8.078,1,1
cujwjliz7vs2ql45auo8meze,2,0,a24,4,4.0,1.0,13.861,1,1
cujwjliz7vs2ql45auo8meze,3,0,a28,7,7.0,1.0,14.938,1,1
cujwjliz7vs2ql45auo8meze,4,0,a36,1,1.0,1.0,27.129,1,1
cujwjliz7vs2ql45auo8meze,5,0,a43,4,4.0,1.0,26.184,1,1
cujwjliz7vs2ql45auo8meze,6,0,a48,5,6.0,0.0,28.116,1,1
cujwjliz7vs2ql45auo8meze,7,0,a49,6,6.0,1.0,25.714,1,1
cujwjliz7vs2ql45auo8meze,8,0,a53,0,0.0,1.0,29.873,1,1
cujwjliz7vs2ql45auo8meze,9,0,a55,1,2.0,0.0,26.272,1,1
cuxfw7tycjvu55m9g9bt7p60,1,0,a11,4,4.0,1.0,9.126,1,1
cuxfw7tycjvu55m9g9bt7p60,2,0,a24,4,1.0,0.0,14.993,1,1
cuxfw7tycjvu55m9g9bt7p60,3,0,a28,7,7.0,1.0,4.732,1,1
cuxfw7tycjvu55m9g9bt7p60,4,0,a36,1,2.0,0.0,17.677,1,1
cuxfw7tycjvu55m9g9bt7p60,5,0,a43,4,4.0,1.0,11.06,1,1
cuxfw7tycjvu55m9g9bt7p60,6,0,a48,5,6.0,0.0,9.895,1,1
cuxfw7tycjvu55m9g9bt7p60,7,0,a49,6,6.0,1.0,7.327,1,1
cuxfw7tycjvu55m9g9bt7p60,8,0,a53,0,6.0,0.0,12.05,1,1
cuxfw7tycjvu55m9g9bt7p60,9,0,a55,1,6.0,0.0,13.482,1,1
cwjww21w8yi9x684h8ztqoty,1,0,a11,4,4.0,1.0,20.591,1,1
cwjww21w8yi9x684h8ztqoty,2,0,a24,4,3.0,0.0,18.142,1,1
cwjww21w8yi9x684h8ztqoty,3,0,a28,7,5.0,0.0,19.552,1,1
cwjww21w8yi9x684h8ztqoty,4,0,a36,1,2.0,0.0,13.115,1,1
cwjww21w8yi9x684h8ztqoty,5,0,a43,4,3.0,0.0,12.258,1,1
cwjww21w8yi9x684h8ztqoty,6,0,a48,5,7.0,0.0,11.756,1,1
cwjww21w8yi9x684h8ztqoty,7,0,a49,6,0.0,0.0,10.619,1,1
cwjww21w8yi9x684h8ztqoty,8,0,a53,0,5.0,0.0,6.164,1,1
cwjww21w8yi9x684h8ztqoty,9,0,a55,1,6.0,0.0,13.252,1,1
cxrluto8rtj5kmpjg5rg328j,1,0,a11,4,0.0,0.0,19.155,1,1
cxrluto8rtj5kmpjg5rg328j,2,0,a24,4,4.0,1.0,29.328,1,1
cxrluto8rtj5kmpjg5rg328j,3,0,a28,7,7.0,1.0,13.007,1,1
cxrluto8rtj5kmpjg5rg328j,4,0,a36,1,7.0,0.0,13.21,1,1
cxrluto8rtj5kmpjg5rg328j,5,0,a43,4,7.0,0.0,6.777,1,1
cxrluto8rtj5kmpjg5rg328j,6,0,a48,5,0.0,0.0,16.829,1,1
cxrluto8rtj5kmpjg5rg328j,7,0,a49,6,0.0,0.0,5.947,1,1
cxrluto8rtj5kmpjg5rg328j,8,0,a53,0,3.0,0.0,8.346,1,1
cxrluto8rtj5kmpjg5rg328j,9,0,a55,1,6.0,0.0,12.165,1,1
cyqcu3205ucusvdl6g60j3i9,1,0,a11,4,3.0,0.0,7.475,1,1
cyqcu3205ucusvdl6g60j3i9,2,0,a24,4,4.0,1.0,17.559,1,1
cyqcu3205ucusvdl6g60j3i9,3,0,a28,7,7.0,1.0,17.39,1,1
cyqcu3205ucusvdl6g60j3i9,4,0,a36,1,1.0,1.0,13.047,1,1
cyqcu3205ucusvdl6g60j3i9,5,0,a43,4,7.0,0.0,9.601,1,1
cyqcu3205ucusvdl6g60j3i9,6,0,a48,5,5.0,1.0,25.862,1,1
cyqcu3205ucusvdl6g60j3i9,7,0,a49,6,0.0,0.0,19.683,1,1
cyqcu3205ucusvdl6g60j3i9,8,0,a53,0,0.0,1.0,13.295,1,1
cyqcu3205ucusvdl6g60j3i9,9,0,a55,1,3.0,0.0,26.795,1,1
d4bq4ejxbk7pr3js2mbpxvnv,1,0,a11,4,4.0,1.0,22.355,1,1
d4bq4ejxbk7pr3js2mbpxvnv,2,0,a24,4,4.0,1.0,16.563,1,1
d4bq4ejxbk7pr3js2mbpxvnv,3,0,a28,7,7.0,1.0,15.517,1,1
d4bq4ejxbk7pr3js2mbpxvnv,4,0,a36,1,3.0,0.0,20.618,1,1
d4bq4ejxbk7pr3js2mbpxvnv,5,0,a43,4,4.0,1.0,19.148,1,1
d4bq4ejxbk7pr3js2mbpxvnv,6,0,a48,5,7.0,0.0,22.275,1,1
d4bq4ejxbk7pr3js2mbpxvnv,7,0,a49,6,2.0,0.0,17.718,1,1
d4bq4ejxbk7pr3js2mbpxvnv,8,0,a53,0,3.0,0.0,29.947,1,1
d4bq4ejxbk7pr3js2mbpxvnv,9,0,a55,1,6.0,0.0,14.585,1,1
d665qacqhdty2fkpz6clxzvl,1,0,a11,4,4.0,1.0,12.913,1,1
d665qacqhdty2fkpz6clxzvl,2,0,a24,4,4.0,1.0,11.862,1,1
d665qacqhdty2fkpz6clxzvl,3,0,a28,7,7.0,1.0,16.038,1,1
d665qacqhdty2fkpz6clxzvl,4,0,a36,1,1.0,1.0,28.05,1,1
d665qacqhdty2fkpz6clxzvl,5,0,a43,4,4.0,1.0,26.694,1,1
d665qacqhdty2fkpz6clxzvl,6,0,a48,5,1.0,0.0,28.729,1,1
d665qacqhdty2fkpz6clxzvl,7,0,a49,6,6.0,1.0,13.738,1,1
d665qacqhdty2fkpz6clxzvl,8,0,a53,0,0.0,1.0,12.865,1,1
d665qacqhdty2fkpz6clxzvl,9,0,a55,1,1.0,1.0,24.582,1,1
de5c3l1czdxwwc2gc8g08i0w,1,0,a11,4,4.0,1.0,8.652,1,1
de5c3l1czdxwwc2gc8g08i0w,2,0,a24,4,4.0,1.0,9.814,1,1
de5c3l1czdxwwc2gc8g08i0w,3,0,a28,7,7.0,1.0,9.925,1,1
de5c3l1czdxwwc2gc8g08i0w,4,0,a36,1,3.0,0.0,25.493,1,1
de5c3l1czdxwwc2gc8g08i0w,5,0,a43,4,4.0,1.0,14.775,1,1
de5c3l1czdxwwc2gc8g08i0w,6,0,a48,5,7.0,0.0,28.376,1,1
de5c3l1czdxwwc2gc8g08i0w,7,0,a49,6,6.0,1.0,6.899,1,1
de5c3l1czdxwwc2gc8g08i0w,8,0,a53,0,0.0,1.0,27.284,1,1
de5c3l1czdxwwc2gc8g08i0w,9,0,a55,1,7.0,0.0,14.486,1,1
dh3tec5fqs2m2ey3kynk7qn4,1,0,a11,4,4.0,1.0,15.09,1,1
dh3tec5fqs2m2ey3kynk7qn4,2,0,a24,4,3.0,0.0,9.433,1,1
dh3tec5fqs2m2ey3kynk7qn4,3,0,a28,7,2.0,0.0,12.039,1,1
dh3tec5fqs2m2ey3kynk7qn4,4,0,a36,1,3.0,0.0,16.057,1,1
dh3tec5fqs2m2ey3kynk7qn4,5,0,a43,4,4.0,1.0,13.545,1,1
dh3tec5fqs2m2ey3kynk7qn4,6,0,a48,5,0.0,0.0,5.162,1,1
dh3tec5fqs2m2ey3kynk7qn4,7,0,a49,6,6.0,1.0,8.163,1,1
dh3tec5fqs2m2ey3kynk7qn4,8,0,a53,0,6.0,0.0,11.738,1,1
dh3tec5fqs2m2ey3kynk7qn4,9,0,a55,1,3.0,0.0,12.865,1,1
dmhyd9lmiuc57y5gred9h8lz,1,0,a11,4,0.0,0.0,5.92,1,1
dmhyd9lmiuc57y5gred9h8lz,2,0,a24,4,4.0,1.0,8.558,1,1
dmhyd9lmiuc57y5gred9h8lz,3,0,a28,7,7.0,1.0,11.324,1,1
dmhyd9lmiuc57y5gred9h8lz,4,0,a36,1,3.0,0.0,9.394,1,1
dmhyd9lmiuc57y5gred9h8lz,5,0,a43,4,7.0,0.0,10.531,1,1
dmhyd9lmiuc57y5gred9h8lz,6,0,a48,5,6.0,0.0,11.888,1,1
dmhyd9lmiuc57y5gred9h8lz,7,0,a49,6,6.0,1.0,8.158,1,1
dmhyd9lmiuc57y5gred9h8lz,8,0,a53,0,6.0,0.0,7.53,1,1
dmhyd9lmiuc57y5gred9h8lz,9,0,a55,1,1.0,1.0,14.933,1,1
dqrv28q6hr0c4l37490i85xy,1,0,a11,4,4.0,1.0,9.164,1,1
dqrv28q6hr0c4l37490i85xy,2,0,a24,4,0.0,0.0,8.364,1,1
dqrv28q6hr0c4l37490i85xy,3,0,a28,7,3.0,0.0,8.06,1,1
dqrv28q6hr0c4l37490i85xy,4,0,a36,1,3.0,0.0,16.668,1,1
dqrv28q6hr0c4l37490i85xy,5,0,a43,4,4.0,1.0,19.109,1,1
dqrv28q6hr0c4l37490i85xy,6,0,a48,5,6.0,0.0,19.274,1,1
dqrv28q6hr0c4l37490i85xy,7,0,a49,6,6.0,1.0,14.622,1,1
dqrv28q6hr0c4l37490i85xy,8,0,a53,0,0.0,1.0,11.917,1,1
dqrv28q6hr0c4l37490i85xy,9,0,a55,1,,,,1,1
dshdea9umx9hpccpai31x3of,1,0,a11,4,5.0,0.0,10.854,1,1
dshdea9umx9hpccpai31x3of,2,0,a24,4,5.0,0.0,14.198,1,1
dshdea9umx9hpccpai31x3of,3,0,a28,7,7.0,1.0,12.708,1,1
dshdea9umx9hpccpai31x3of,4,0,a36,1,1.0,1.0,17.398,1,1
dshdea9umx9hpccpai31x3of,5,0,a43,4,4.0,1.0,17.018,1,1
dshdea9umx9hpccpai31x3of,6,0,a48,5,6.0,0.0,14.998,1,1
dshdea9umx9hpccpai31x3of,7,0,a49,6,0.0,0.0,6.495,1,1
dshdea9umx9hpccpai31x3of,8,0,a53,0,1.0,0.0,5.458,1,1
dshdea9umx9hpccpai31x3of,9,0,a55,1,5.0,0.0,3.112,1,1
e0malvuazpptmosp7anw5qu3,1,0,a11,4,5.0,0.0,14.708,1,1
e0malvuazpptmosp7anw5qu3,2,0,a24,4,4.0,1.0,7.315,1,1
e0malvuazpptmosp7anw5qu3,3,0,a28,7,2.0,0.0,22.282,1,1
e0malvuazpptmosp7anw5qu3,4,0,a36,1,5.0,0.0,25.274,1,1
e0malvuazpptmosp7anw5qu3,5,0,a43,4,4.0,1.0,17.928,1,1
e0malvuazpptmosp7anw5qu3,6,0,a48,5,6.0,0.0,13.839,1,1
e0malvuazpptmosp7anw5qu3,7,0,a49,6,6.0,1.0,21.371,1,1
e0malvuazpptmosp7anw5qu3,8,0,a53,0,0.0,1.0,17.355,1,1
e0malvuazpptmosp7anw5qu3,9,0,a55,1,4.0,0.0,28.941,1,1
e3214r8tm5mfp8lm8ih2lice,1,0,a11,4,3.0,0.0,20.071,1,1
e3214r8tm5mfp8lm8ih2lice,2,0,a24,4,5.0,0.0,7.552,1,1
e3214r8tm5mfp8lm8ih2lice,3,0,a28,7,7.0,1.0,8.486,1,1
e3214r8tm5mfp8lm8ih2lice,4,0,a36,1,7.0,0.0,20.624,1,1
e3214r8tm5mfp8lm8ih2lice,5,0,a43,4,7.0,0.0,23.115,1,1
e3214r8tm5mfp8lm8ih2lice,6,0,a48,5,7.0,0.0,14.508,1,1
e3214r8tm5mfp8lm8ih2lice,7,0,a49,6,3.0,0.0,19.148,1,1
e3214r8tm5mfp8lm8ih2lice,8,0,a53,0,6.0,0.0,26.4,1,1
e3214r8tm5mfp8lm8ih2lice,9,0,a55,1,0.0,0.0,8.624,1,1
e376vxc79im577e1uo2asiry,1,0,a11,4,0.0,0.0,9.608,1,1
e376vxc79im577e1uo2asiry,2,0,a24,4,4.0,1.0,10.943,1,1
e376vxc79im577e1uo2asiry,3,0,a28,7,7.0,1.0,14.665,1,1
e376vxc79im577e1uo2asiry,4,0,a36,1,1.0,1.0,27.855,1,1
e376vxc79im577e1uo2asiry,5,0,a43,4,4.0,1.0,13.048,1,1
e376vxc79im577e1uo2asiry,6,0,a48,5,,,,1,1
e376vxc79im577e1uo2asiry,7,0,a49,6,6.0,1.0,14.303,1,1
e376vxc79im577e1uo2asiry,8,0,a53,0,0.0,1.0,21.132,1,1
e376vxc79im577e1uo2asiry,9,0,a55,1,5.0,0.0,29.154,1,1
ejdblv5jwjzbuq2duc7njuxo,1,0,a11,4,5.0,0.0,15.792,1,1
ejdblv5jwjzbuq2duc7njuxo,2,0,a24,4,5.0,0.0,10.479,1,1
ejdblv5jwjzbuq2duc7njuxo,3,0,a28,7,7.0,1.0,13.786,1,1
ejdblv5jwjzbuq2duc7njuxo,4,0,a36,1,1.0,1.0,19.834,1,1
ejdblv5jwjzbuq2duc7njuxo,5,0,a43,4,4.0,1.0,18.777,1,1
ejdblv5jwjzbuq2duc7njuxo,6,0,a48,5,5.0,1.0,21.854,1,1
ejdblv5jwjzbuq2duc7njuxo,7,0,a49,6,6.0,1.0,9.877,1,1
ejdblv5jwjzbuq2duc7njuxo,8,0,a53,0,0.0,1.0,18.62,1,1
ejdblv5jwjzbuq2duc7njuxo,9,0,a55,1,1.0,1.0,24.595,1,1
eqbm3l2nnu77opdbld781z3b,1,0,a11,4,5.0,0.0,6.231,1,1
eqbm3l2nnu77opdbld781z3b,2,0,a24,4,3.0,0.0,4.764,1,1
eqbm3l2nnu77opdbld781z3b,3,0,a28,7,7.0,1.0,4.983,1,1
eqbm3l2nnu77opdbld781z3b,4,0,a36,1,1.0,1.0,8.308,1,1
eqbm3l2nnu77opdbld781z3b,5,0,a43,4,0.0,0.0,3.946,1,1
eqbm3l2nnu77opdbld781z3b,6,0,a48,5,3.0,0.0,3.911,1,1
eqbm3l2nnu77opdbld781z3b,7,0,a49,6,2.0,0.0,5.368,1,1
eqbm3l2nnu77opdbld781z3b,8,0,a53,0,6.0,0.0,4.8,1,1
eqbm3l2nnu77opdbld781z3b,9,0,a55,1,3.0,0.0,4.327,1,1
etifpx88lv661gdbbif4i05f,1,0,a11,4,4.0,1.0,21.812,1,1
etifpx88lv661gdbbif4i05f,2,0,a24,4,4.0,1.0,11.745,1,1
etifpx88lv661gdbbif4i05f,3,0,a28,7,7.0,1.0,10.908,1,1
etifpx88lv661gdbbif4i05f,4,0,a36,1,0.0,0.0,28.668,1,1
etifpx88lv661gdbbif4i05f,5,0,a43,4,4.0,1.0,14.443,1,1
etifpx88lv661gdbbif4i05f,6,0,a48,5,4.0,0.0,21.166,1,1
etifpx88lv661gdbbif4i05f,7,0,a49,6,6.0,1.0,6.588,1,1
etifpx88lv661gdbbif4i05f,8,0,a53,0,0.0,1.0,10.927,1,1
etifpx88lv661gdbbif4i05f,9,0,a55,1,6.0,0.0,18.881,1,1
ew4bdx3qy5fntm3689ooxatw,1,0,a11,4,4.0,1.0,13.584,1,1
ew4bdx3qy5fntm3689ooxatw,2,0,a24,4,5.0,0.0,18.168,1,1
ew4bdx3qy5fntm3689ooxatw,3,0,a28,7,2.0,0.0,11.393,1,1
ew4bdx3qy5fntm3689ooxatw,4,0,a36,1,2.0,0.0,29.225,1,1
ew4bdx3qy5fntm3689ooxatw,5,0,a43,4,4.0,1.0,15.709,1,1
ew4bdx3qy5fntm3689ooxatw,6,0,a48,5,6.0,0.0,18.915,1,1
ew4bdx3qy5fntm3689ooxatw,7,0,a49,6,6.0,1.0,9.632,1,1
ew4bdx3qy5fntm3689ooxatw,8,0,a53,0,6.0,0.0,13.417,1,1
ew4bdx3qy5fntm3689ooxatw,9,0,a55,1,2.0,0.0,18.602,1,1
ewssuanxp5sffm451bzpbgzv,1,0,a11,4,5.0,0.0,15.335,1,1
ewssuanxp5sffm451bzpbgzv,2,0,a24,4,4.0,1.0,22.958,1,1
ewssuanxp5sffm451bzpbgzv,3,0,a28,7,7.0,1.0,18.306,1,1
ewssuanxp5sffm451bzpbgzv,4,0,a36,1,,,,1,1
ewssuanxp5sffm451bzpbgzv,5,0,a43,4,3.0,0.0,26.785,1,1
ewssuanxp5sffm451bzpbgzv,6,0,a48,5,3.0,0.0,14.761,1,1
ewssuanxp5sffm451bzpbgzv,7,0,a49,6,6.0,1.0,17.175,1,1
ewssuanxp5sffm451bzpbgzv,8,0,a53,0,5.0,0.0,24.507,1,1
ewssuanxp5sffm451bzpbgzv,9,0,a55,1,1.0,1.0,29.431,1,1
ez50wkrb4elook0xp2tbgyuo,1,0,a11,4,4.0,1.0,20.278,1,1
ez50wkrb4elook0xp2tbgyuo,2,0,a24,4,,,,1,1
ez50wkrb4elook0xp2tbgyuo,3,0,a28,7,7.0,1.0,18.388,1,1
ez50wkrb4elook0xp2tbgyuo,4,0,a36,1,2.0,0.0,15.21,1,1
ez50wkrb4elook0xp2tbgyuo,5,0,a43,4,4.0,1.0,12.784,1,1
ez50wkrb4elook0xp2tbgyuo,6,0,a48,5,7.0,0.0,22.01,1,1
ez50wkrb4elook0xp2tbgyuo,7,0,a49,6,6.0,1.0,13.215,1,1
ez50wkrb4elook0xp2tbgyuo,8,0,a53,0,0.0,1.0,9.924,1,1
ez50wkrb4elook0xp2tbgyuo,9,0,a55,1,0.0,0.0,15.296,1,1
ezwfqkvrps0u2irevlt3ya8y,1,0,a11,4,5.0,0.0,9.008,1,1
ezwfqkvrps0u2irevlt3ya8y,2,0,a24,4,1.0,0.0,7.441,1,1
ezwfqkvrps0u2irevlt3ya8y,3,0,a28,7,7.0,1.0,10.09,1,1
ezwfqkvrps0u2irevlt3ya8y,4,0,a36,1,2.0,0.0,17.748,1,1
ezwfqkvrps0u2irevlt3ya8y,5,0,a43,4,2.0,0.0,10.426,1,1
ezwfqkvrps0u2irevlt3ya8y,6,0,a48,5,3.0,0.0,29.804,1,1
ezwfqkvrps0u2irevlt3ya8y,7,0,a49,6,6.0,1.0,7.823,1,1
ezwfqkvrps0u2irevlt3ya8y,8,0,a53,0,6.0,0.0,16.052,1,1
ezwfqkvrps0u2irevlt3ya8y,9,0,a55,1,6.0,0.0,9.887,1,1
f3dwrm9ix1t80zveb9e4rpsa,1,0,a11,4,4.0,1.0,17.831,1,1
f3dwrm9ix1t80zveb9e4rpsa,2,0,a24,4,3.0,0.0,20.947,1,1
f3dwrm9ix1t80zveb9e4rpsa,3,0,a28,7,7.0,1.0,11.747,1,1
f3dwrm9ix1t80zveb9e4rpsa,4,0,a36,1,3.0,0.0,13.442,1,1
f3dwrm9ix1t80zveb9e4rpsa,5,0,a43,4,4.0,1.0,26.915,1,1
f3dwrm9ix1t80zveb9e4rpsa,6,0,a48,5,3.0,0.0,27.244,1,1
f3dwrm9ix1t80zveb9e4rpsa,7,0,a49,6,2.0,0.0,22.837,1,1
f3dwrm9ix1t80zveb9e4rpsa,8,0,a53,0,0.0,1.0,20.324,1,1
f3dwrm9ix1t80zveb9e4rpsa,9,0,a55,1,2.0,0.0,25.325,1,1
f6kzcs90zb94q2an1kurmk63,1,0,a11,4,5.0,0.0,3.742,1,1
f6kzcs90zb94q2an1kurmk63,2,0,a24,4,5.0,0.0,3.411,1,1
f6kzcs90zb94q2an1kurmk63,3,0,a28,7,7.0,1.0,3.518,1,1
f6kzcs90zb94q2an1kurmk63,4,0,a36,1,3.0,0.0,6.735,1,1
f6kzcs90zb94q2an1kurmk63,5,0,a43,4,1.0,0.0,7.628,1,1
f6kzcs90zb94q2an1kurmk63,6,0,a48,5,6.0,0.0,4.58,1,1
f6kzcs90zb94q2an1kurmk63,7,0,a49,6,6.0,1.0,4.288,1,1
f6kzcs90zb94q2an1kurmk63,8,0,a53,0,6.0,0.0,6.963,1,1
f6kzcs90zb94q2an1kurmk63,9,0,a55,1,3.0,0.0,5.02,1,1
fimuhhhzamh5xwqtsmhbkoki,1,0,a11,4,4.0,1.0,11.621,1,1
fimuhhhzamh5xwqtsmhbkoki,2,0,a24,4,4.0,1.0,13.566,1,1
fimuhhhzamh5xwqtsmhbkoki,3,0,a28,7,7.0,1.0,17.408,1,1
fimuhhhzamh5xwqtsmhbkoki,4,0,a36,1,2.0,0.0,20.518,1,1
fimuhhhzamh5xwqtsmhbkoki,5,0,a43,4,4.0,1.0,19.728,1,1
fimuhhhzamh5xwqtsmhbkoki,6,0,a48,5,3.0,0.0,29.453,1,1
fimuhhhzamh5xwqtsmhbkoki,7,0,a49,6,6.0,1.0,10.076,1,1
fimuhhhzamh5xwqtsmhbkoki,8,0,a53,0,0.0,1.0,15.629,1,1
fimuhhhzamh5xwqtsmhbkoki,9,0,a55,1,1.0,1.0,21.651,1,1
fmk5ei5snkc03mjwqkcohexz,1,0,a11,4,5.0,0.0,6.024,1,1
fmk5ei5snkc03mjwqkcohexz,2,0,a24,4,4.0,1.0,5.709,1,1
fmk5ei5snkc03mjwqkcohexz,3,0,a28,7,0.0,0.0,5.172,1,1
fmk5ei5snkc03mjwqkcohexz,4,0,a36,1,7.0,0.0,5.931,1,1
fmk5ei5snkc03mjwqkcohexz,5,0,a43,4,0.0,0.0,5.295,1,1
fmk5ei5snkc03mjwqkcohexz,6,0,a48,5,7.0,0.0,3.505,1,1
fmk5ei5snkc03mjwqkcohexz,7,0,a49,6,3.0,0.0,3.528,1,1
fmk5ei5snkc03mjwqkcohexz,8,0,a53,0,6.0,0.0,5.644,1,1
fmk5ei5snkc03mjwqkcohexz,9,0,a55,1,6.0,0.0,6.579,1,1
fp36rhx1xlowdu97uaiz62sb,1,0,a11,4,4.0,1.0,16.144,1,1
fp36rhx1xlowdu97uaiz62sb,2,0,a24,4,4.0,1.0,8.455,1,1
fp36rhx1xlowdu97uaiz62sb,3,0,a28,7,7.0,1.0,16.781,1,1
fp36rhx1xlowdu97uaiz62sb,4,0,a36,1,2.0,0.0,6.94,1,1
fp36rhx1xlowdu97uaiz62sb,5,0,a43,4,4.0,1.0,21.491,1,1
fp36rhx1xlowdu97uaiz62sb,6,0,a48,5,6.0,0.0,21.451,1,1
fp36rhx1xlowdu97uaiz62sb,7,0,a49,6,6.0,1.0,7.252,1,1
fp36rhx1xlowdu97uaiz62sb,8,0,a53,0,0.0,1.0,10.585,1,1
fp36rhx1xlowdu97uaiz62sb,9,0,a55,1,1.0,1.0,22.419,1,1
fpwz3r5f1ln35xmcll74g1hi,1,0,a11,4,4.0,1.0,9.667,1,1
fpwz3r5f1ln35xmcll74g1hi,2,0,a24,4,4.0,1.0,24.827,1,1
fpwz3r5f1ln35xmcll74g1hi,3,0,a28,7,7.0,1.0,15.145,1,1
fpwz3r5f1ln35xmcll74g1hi,4,0,a36,1,,,,1,1
fpwz3r5f1ln35xmcll74g1hi,5,0,a43,4,4.0,1.0,9.461,1,1
fpwz3r5f1ln35xmcll74g1hi,6,0,a48,5,4.0,0.0,21.981,1,1
fpwz3r5f1ln35xmcll74g1hi,7,0,a49,6,6.0,1.0,15.354,1,1
fpwz3r5f1ln35xmcll74g1hi,8,0,a53,0,0.0,1.0,19.826,1,1
fpwz3r5f1ln35xmcll74g1hi,9,0,a55,1,4.0,0.0,29.566,1,1
fslsjbju9uaq2lt7mjke1i2f,1,0,a11,4,5.0,0.0,4.863,1,1
fslsjbju9uaq2lt7mjke1i2f,2,0,a24,4,5.0,0.0,4.758,1,1
fslsjbju9uaq2lt7mjke1i2f,3,0,a28,7,2.0,0.0,2.695,1,1
fslsjbju9uaq2lt7mjke1i2f,4,0,a36,1,5.0,0.0,18.596,1,1
fslsjbju9uaq2lt7mjke1i2f,5,0,a43,4,4.0,1.0,5.907,1,1
fslsjbju9uaq2lt7mjke1i2f,6,0,a48,5,1.0,0.0,5.334,1,1
fslsjbju9uaq2lt7mjke1i2f,7,0,a49,6,0.0,0.0,6.446,1,1
fslsjbju9uaq2lt7mjke1i2f,8,0,a53,0,3.0,0.0,9.268,1,1
fslsjbju9uaq2lt7mjke1i2f,9,0,a55,1,4.0,0.0,8.786,1,1
fu89agc2b6e3t5wq03vs9abf,1,0,a11,4,4.0,1.0,14.837,1,1
fu89agc2b6e3t5wq03vs9abf,2,0,a24,4,3.0,0.0,10.23,1,1
fu89agc2b6e3t5wq03vs9abf,3,0,a28,7,7.0,1.0,10.461,1,1
fu89agc2b6e3t5wq03vs9abf,4,0,a36,1,1.0,1.0,16.012,1,1
fu89agc2b6e3t5wq03vs9abf,5,0,a43,4,4.0,1.0,12.076,1,1
fu89agc2b6e3t5wq03vs9abf,6,0,a48,5,5.0,1.0,7.719,1,1
fu89agc2b6e3t5wq03vs9abf,7,0,a49,6,6.0,1.0,2.919,1,1
fu89agc2b6e3t5wq03vs9abf,8,0,a53,0,0.0,1.0,17.762,1,1
fu89agc2b6e3t5wq03vs9abf,9,0,a55,1,5.0,0.0,27.827,1,1
fv2qc1wl1kwo3gko65urpe2f,1,0,a11,4,4.0,1.0,11.062,1,1
fv2qc1wl1kwo3gko65urpe2f,2,0,a24,4,4.0,1.0,24.455,1,1
fv2qc1wl1kwo3gko65urpe2f,3,0,a28,7,7.0,1.0,15.896,1,1
fv2qc1wl1kwo3gko65urpe2f,4,0,a36,1,3.0,0.0,23.643,1,1
fv2qc1wl1kwo3gko65urpe2f,5,0,a43,4,4.0,1.0,21.215,1,1
fv2qc1wl1kwo3gko65urpe2f,6,0,a48,5,6.0,0.0,14.297,1,1
fv2qc1wl1kwo3gko65urpe2f,7,0,a49,6,6.0,1.0,12.291,1,1
fv2qc1wl1kwo3gko65urpe2f,8,0,a53,0,6.0,0.0,10.592,1,1
fv2qc1wl1kwo3gko65urpe2f,9,0,a55,1,6.0,0.0,11.053,1,1
fyagt08ad8rhqjm1n4krn44n,1,0,a11,4,0.0,0.0,6.165,1,1
fyagt08ad8rhqjm1n4krn44n,2,0,a24,4,5.0,0.0,17.504,1,1
fyagt08ad8rhqjm1n4krn44n,3,0,a28,7,7.0,1.0,6.491,1,1
fyagt08ad8rhqjm1n4krn44n,4,0,a36,1,1.0,1.0,12.331,1,1
fyagt08ad8rhqjm1n4krn44n,5,0,a43,4,4.0,1.0,20.638,1,1
fyagt08ad8rhqjm1n4krn44n,6,0,a48,5,6.0,0.0,17.216,1,1
fyagt08ad8rhqjm1n4krn44n,7,0,a49,6,6.0,1.0,13.22,1,1
fyagt08ad8rhqjm1n4krn44n,8,0,a53,0,0.0,1.0,14.87,1,1
fyagt08ad8rhqjm1n4krn44n,9,0,a55,1,4.0,0.0,23.622,1,1
g0dr4dwili67z9batvv48ng3,1,0,a11,4,4.0,1.0,19.395,1,1
g0dr4dwili67z9batvv48ng3,2,0,a24,4,5.0,0.0,8.56,1,1
g0dr4dwili67z9batvv48ng3,3,0,a28,7,7.0,1.0,8.937,1,1
g0dr4dwili67z9batvv48ng3,4,0,a36,1,2.0,0.0,18.508,1,1
g0dr4dwili67z9batvv48ng3,5,0,a43,4,3.0,0.0,22.355,1,1
g0dr4dwili67z9batvv48ng3,6,0,a48,5,3.0,0.0,26.824,1,1
g0dr4dwili67z9batvv48ng3,7,0,a49,6,6.0,1.0,13.248,1,1
g0dr4dwili67z9batvv48ng3,8,0,a53,0,6.0,0.0,12.887,1,1
g0dr4dwili67z9batvv48ng3,9,0,a55,1,3.0,0.0,5.533,1,1
g9mk524o0jgndv79kvb7ider,1,0,a11,4,1.0,0.0,4.704,1,1
g9mk524o0jgndv79kvb7ider,2,0,a24,4,4.0,1.0,15.332,1,1
g9mk524o0jgndv79kvb7ider,3,0,a28,7,2.0,0.0,13.45,1,1
g9mk524o0jgndv79kvb7ider,4,0,a36,1,7.0,0.0,18.336,1,1
g9mk524o0jgndv79kvb7ider,5,0,a43,4,3.0,0.0,18.275,1,1
g9mk524o0jgndv79kvb7ider,6,0,a48,5,7.0,0.0,16.729,1,1
g9mk524o0jgndv79kvb7ider,7,0,a49,6,6.0,1.0,11.113,1,1
g9mk524o0jgndv79kvb7ider,8,0,a53,0,6.0,0.0,6.525,1,1
g9mk524o0jgndv79kvb7ider,9,0,a55,1,7.0,0.0,20.503,1,1
g9om15xjpbv9cqq3v3zj52te,1,0,a11,4,4.0,1.0,5.833,1,1
g9om15xjpbv9cqq3v3zj52te,2,0,a24,4,4.0,1.0,9.465,1,1
g9om15xjpbv9cqq3v3zj52te,3,0,a28,7,7.0,1.0,7.099,1,1
g9om15xjpbv9cqq3v3zj52te,4,0,a36,1,2.0,0.0,11.075,1,1
g9om15xjpbv9cqq3v3zj52te,5,0,a43,4,4.0,1.0,9.106,1,1
g9om15xjpbv9cqq3v3zj52te,6,0,a48,5,6.0,0.0,12.291,1,1
g9om15xjpbv9cqq3v3zj52te,7,0,a49,6,6.0,1.0,9.65,1,1
g9om15xjpbv9cqq3v3zj52te,8,0,a53,0,0.0,1.0,6.187,1,1
g9om15xjpbv9cqq3v3zj52te,9,0,a55,1,2.0,0.0,16.403,1,1
gawaak8xicocheupcnoxsb6b,1,0,a11,4,4.0,1.0,15.14,1,1
gawaak8xicocheupcnoxsb6b,2,0,a24,4,4.0,1.0,9.531,1,1
gawaak8xicocheupcnoxsb6b,3,0,a28,7,7.0,1.0,9.164,1,1
gawaak8xicocheupcnoxsb6b,4,0,a36,1,5.0,0.0,11.789,1,1
gawaak8xicocheupcnoxsb6b,5,0,a43,4,4.0,1.0,10.708,1,1
gawaak8xicocheupcnoxsb6b,6,0,a48,5,3.0,0.0,22.324,1,1
gawaak8xicocheupcnoxsb6b,7,0,a49,6,6.0,1.0,5.776,1,1
gawaak8xicocheupcnoxsb6b,8,0,a53,0,3.0,0.0,27.485,1,1
gawaak8xicocheupcnoxsb6b,9,0,a55,1,5.0,0.0,25.82,1,1
ggk9m091rqrozt1olw3xwtap,1,0,a11,4,4.0,1.0,11.462,1,1
ggk9m091rqrozt1olw3xwtap,2,0,a24,4,4.0,1.0,25.619,1,1
ggk9m091rqrozt1olw3xwtap,3,0,a28,7,7.0,1.0,28.501,1,1
ggk9m091rqrozt1olw3xwtap,4,0,a36,1,1.0,1.0,17.112,1,1
ggk9m091rqrozt1olw3xwtap,5,0,a43,4,4.0,1.0,18.622,1,1
ggk9m091rqrozt1olw3xwtap,6,0,a48,5,0.0,0.0,29.408,1,1
ggk9m091rqrozt1olw3xwtap,7,0,a49,6,6.0,1.0,9.496,1,1
ggk9m091rqrozt1olw3xwtap,8,0,a53,0,0.0,1.0,7.793,1,1
ggk9m091rqrozt1olw3xwtap,9,0,a55,1,3.0,0.0,28.984,1,1
gj44aa56fjnz93pzshgpycyj,1,0,a11,4,4.0,1.0,28.404,1,1
gj44aa56fjnz93pzshgpycyj,2,0,a24,4,4.0,1.0,13.356,1,1
gj44aa56fjnz93pzshgpycyj,3,0,a28,7,,,,1,1
gj44aa56fjnz93pzshgpycyj,4,0,a36,1,,,,1,1
gj44aa56fjnz93pzshgpycyj,5,0,a43,4,7.0,0.0,7.006,1,1
gj44aa56fjnz93pzshgpycyj,6,0,a48,5,6.0,0.0,27.028,1,1
gj44aa56fjnz93pzshgpycyj,7,0,a49,6,2.0,0.0,13.932,1,1
gj44aa56fjnz93pzshgpycyj,8,0,a53,0,1.0,0.0,27.468,1,1
gj44aa56fjnz93pzshgpycyj,9,0,a55,1,5.0,0.0,29.166,1,1
gjqi63u7s1jw9bna88ohuw5l,1,0,a11,4,4.0,1.0,11.958,1,1
gjqi63u7s1jw9bna88ohuw5l,2,0,a24,4,4.0,1.0,6.922,1,1
gjqi63u7s1jw9bna88ohuw5l,3,0,a28,7,7.0,1.0,5.673,1,1
gjqi63u7s1jw9bna88ohuw5l,4,0,a36,1,2.0,0.0,14.582,1,1
gjqi63u7s1jw9bna88ohuw5l,5,0,a43,4,4.0,1.0,11.886,1,1
gjqi63u7s1jw9bna88ohuw5l,6,0,a48,5,6.0,0.0,14.724,1,1
gjqi63u7s1jw9bna88ohuw5l,7,0,a49,6,2.0,0.0,8.647,1,1
gjqi63u7s1jw9bna88ohuw5l,8,0,a53,0,0.0,1.0,7.821,1,1
gjqi63u7s1jw9bna88ohuw5l,9,0,a55,1,5.0,0.0,10.431,1,1
gkp2a2ie4rrkid143xyi6ame,1,0,a11,4,4.0,1.0,23.397,1,1
gkp2a2ie4rrkid143xyi6ame,2,0,a24,4,4.0,1.0,13.821,1,1
gkp2a2ie4rrkid143xyi6ame,3,0,a28,7,7.0,1.0,21.145,1,1
gkp2a2ie4rrkid143xyi6ame,4,0,a36,1,1.0,1.0,26.393,1,1
gkp2a2ie4rrkid143xyi6ame,5,0,a43,4,4.0,1.0,8.838,1,1
gkp2a2ie4rrkid143xyi6ame,6,0,a48,5,7.0,0.0,29.878,1,1
gkp2a2ie4rrkid143xyi6ame,7,0,a49,6,6.0,1.0,8.993,1,1
gkp2a2ie4rrkid143xyi6ame,8,0,a53,0,0.0,1.0,6.554,1,1
gkp2a2ie4rrkid143xyi6ame,9,0,a55,1,1.0,1.0,28.058,1,1
gl0hjknfc3qyk702z52pksgr,1,0,a11,4,4.0,1.0,14.761,1,1
gl0hjknfc3qyk702z52pksgr,2,0,a24,4,1.0,0.0,13.692,1,1
gl0hjknfc3qyk702z52pksgr,3,0,a28,7,7.0,1.0,4.769,1,1
gl0hjknfc3qyk702z52pksgr,4,0,a36,1,1.0,1.0,7.412,1,1
gl0hjknfc3qyk702z52pksgr,5,0,a43,4,4.0,1.0,21.503,1,1
gl0hjknfc3qyk702z52pksgr,6,0,a48,5,1.0,0.0,13.0,1,1
gl0hjknfc3qyk702z52pksgr,7,0,a49,6,6.0,1.0,6.895,1,1
gl0hjknfc3qyk702z52pksgr,8,0,a53,0,0.0,1.0,8.182,1,1
gl0hjknfc3qyk702z52pksgr,9,0,a55,1,3.0,0.0,17.728,1,1
gn2s9zqfcrwaor508oc2ni1p,1,0,a11,4,4.0,1.0,7.709,1,1
gn2s9zqfcrwaor508oc2ni1p,2,0,a24,4,4.0,1.0,15.785,1,1
gn2s9zqfcrwaor508oc2ni1p,3,0,a28,7,7.0,1.0,13.282,1,1
gn2s9zqfcrwaor508oc2ni1p,4,0,a36,1,0.0,0.0,29.38,1,1
gn2s9zqfcrwaor508oc2ni1p,5,0,a43,4,4.0,1.0,13.313,1,1
gn2s9zqfcrwaor508oc2ni1p,6,0,a48,5,6.0,0.0,15.57,1,1
gn2s9zqfcrwaor508oc2ni1p,7,0,a49,6,6.0,1.0,6.079,1,1
gn2s9zqfcrwaor508oc2ni1p,8,0,a53,0,0.0,1.0,7.733,1,1
gn2s9zqfcrwaor508oc2ni1p,9,0,a55,1,0.0,0.0,23.039,1,1
gpw6vareka5vxe8727s7benc,1,0,a11,4,4.0,1.0,11.419,1,1
gpw6vareka5vxe8727s7benc,2,0,a24,4,4.0,1.0,14.947,1,1
gpw6vareka5vxe8727s7benc,3,0,a28,7,7.0,1.0,11.798,1,1
gpw6vareka5vxe8727s7benc,4,0,a36,1,5.0,0.0,28.858,1,1
gpw6vareka5vxe8727s7benc,5,0,a43,4,7.0,0.0,7.878,1,1
gpw6vareka5vxe8727s7benc,6,0,a48,5,5.0,1.0,28.186,1,1
gpw6vareka5vxe8727s7benc,7,0,a49,6,6.0,1.0,8.268,1,1
gpw6vareka5vxe8727s7benc,8,0,a53,0,0.0,1.0,15.748,1,1
gpw6vareka5vxe8727s7benc,9,0,a55,1,2.0,0.0,28.419,1,1
gvfhzk9w5kl3o3xie8ktpoqn,1,0,a11,4,4.0,1.0,21.465,1,1
gvfhzk9w5kl3o3xie8ktpoqn,2,0,a24,4,2.0,0.0,10.43,1,1
gvfhzk9w5kl3o3xie8ktpoqn,3,0,a28,7,7.0,1.0,12.009,1,1
gvfhzk9w5kl3o3xie8ktpoqn,4,0,a36,1,2.0,0.0,15.178,1,1
gvfhzk9w5kl3o3xie8ktpoqn,5,0,a43,4,4.0,1.0,13.961,1,1
gvfhzk9w5kl3o3xie8ktpoqn,6,0,a48,5,,,,1,1
gvfhzk9w5kl3o3xie8ktpoqn,7,0,a49,6,6.0,1.0,8.902,1,1
gvfhzk9w5kl3o3xie8ktpoqn,8,0,a53,0,6.0,0.0,3.765,1,1
gvfhzk9w5kl3o3xie8ktpoqn,9,0,a55,1,3.0,0.0,26.21,1,1
gwxlnync7z5sd5wbyi9xa3ge,1,0,a11,4,5.0,0.0,8.569,1,1
gwxlnync7z5sd5wbyi9xa3ge,2,0,a24,4,0.0,0.0,4.527,1,1
gwxlnync7z5sd5wbyi9xa3ge,3,0,a28,7,2.0,0.0,5.485,1,1
gwxlnync7z5sd5wbyi9xa3ge,4,0,a36,1,2.0,0.0,6.749,1,1
gwxlnync7z5sd5wbyi9xa3ge,5,0,a43,4,4.0,1.0,9.762,1,1
gwxlnync7z5sd5wbyi9xa3ge,6,0,a48,5,6.0,0.0,9.006,1,1
gwxlnync7z5sd5wbyi9xa3ge,7,0,a49,6,0.0,0.0,3.394,1,1
gwxlnync7z5sd5wbyi9xa3ge,8,0,a53,0,0.0,1.0,0.525,1,1
gwxlnync7z5sd5wbyi9xa3ge,9,0,a55,1,6.0,0.0,10.483,1,1
h1kel1z6pkwmvkfo973tbgzy,1,0,a11,4,4.0,1.0,12.51,1,1
h1kel1z6pkwmvkfo973tbgzy,2,0,a24,4,3.0,0.0,19.464,1,1
h1kel1z6pkwmvkfo973tbgzy,3,0,a28,7,7.0,1.0,14.151,1,1
h1kel1z6pkwmvkfo973tbgzy,4,0,a36,1,1.0,1.0,27.421,1,1
h1kel1z6pkwmvkfo973tbgzy,5,0,a43,4,4.0,1.0,23.781,1,1
h1kel1z6pkwmvkfo973tbgzy,6,0,a48,5,7.0,0.0,18.327,1,1
h1kel1z6pkwmvkfo973tbgzy,7,0,a49,6,6.0,1.0,11.315,1,1
h1kel1z6pkwmvkfo973tbgzy,8,0,a53,0,0.0,1.0,13.06,1,1
h1kel1z6pkwmvkfo973tbgzy,9,0,a55,1,4.0,0.0,29.519,1,1
h94402cnxnv9ziiph3bgzr9l,1,0,a11,4,4.0,1.0,16.577,1,1
h94402cnxnv9ziiph3bgzr9l,2,0,a24,4,2.0,0.0,6.51,1,1
h94402cnxnv9ziiph3bgzr9l,3,0,a28,7,7.0,1.0,14.024,1,1
h94402cnxnv9ziiph3bgzr9l,4,0,a36,1,2.0,0.0,22.871,1,1
h94402cnxnv9ziiph3bgzr9l,5,0,a43,4,4.0,1.0,22.055,1,1
h94402cnxnv9ziiph3bgzr9l,6,0,a48,5,5.0,1.0,16.556,1,1
h94402cnxnv9ziiph3bgzr9l,7,0,a49,6,6.0,1.0,7.654,1,1
h94402cnxnv9ziiph3bgzr9l,8,0,a53,0,0.0,1.0,9.69,1,1
h94402cnxnv9ziiph3bgzr9l,9,0,a55,1,2.0,0.0,27.357,1,1
hacu7jckwxt9wkr0l785qvis,1,0,a11,4,5.0,0.0,1.844,1,1
hacu7jckwxt9wkr0l785qvis,2,0,a24,4,0.0,0.0,1.308,1,1
hacu7jckwxt9wkr0l785qvis,3,0,a28,7,7.0,1.0,5.351,1,1
hacu7jckwxt9wkr0l785qvis,4,0,a36,1,7.0,0.0,4.678,1,1
hacu7jckwxt9wkr0l785qvis,5,0,a43,4,4.0,1.0,3.312,1,1
hacu7jckwxt9wkr0l785qvis,6,0,a48,5,6.0,0.0,1.693,1,1
hacu7jckwxt9wkr0l785qvis,7,0,a49,6,6.0,1.0,6.497,1,1
hacu7jckwxt9wkr0l785qvis,8,0,a53,0,6.0,0.0,6.889,1,1
hacu7jckwxt9wkr0l785qvis,9,0,a55,1,6.0,0.0,5.938,1,1
hh1owoc1aqd3rcinmc56z68n,1,0,a11,4,4.0,1.0,14.806,1,1
hh1owoc1aqd3rcinmc56z68n,2,0,a24,4,4.0,1.0,16.97,1,1
hh1owoc1aqd3rcinmc56z68n,3,0,a28,7,2.0,0.0,16.297,1,1
hh1owoc1aqd3rcinmc56z68n,4,0,a36,1,5.0,0.0,28.12,1,1
hh1owoc1aqd3rcinmc56z68n,5,0,a43,4,4.0,1.0,23.859,1,1
hh1owoc1aqd3rcinmc56z68n,6,0,a48,5,4.0,0.0,27.644,1,1
hh1owoc1aqd3rcinmc56z68n,7,0,a49,6,6.0,1.0,8.148,1,1
hh1owoc1aqd3rcinmc56z68n,8,0,a53,0,0.0,1.0,19.944,1,1
hh1owoc1aqd3rcinmc56z68n,9,0,a55,1,5.0,0.0,23.55,1,1
hnl0vcoxwm84ddt2nu7xm7tg,1,0,a11,4,4.0,1.0,8.074,1,1
hnl0vcoxwm84ddt2nu7xm7tg,2,0,a24,4,0.0,0.0,11.092,1,1
hnl0vcoxwm84ddt2nu7xm7tg,3,0,a28,7,4.0,0.0,4.325,1,1
hnl0vcoxwm84ddt2nu7xm7tg,4,0,a36,1,3.0,0.0,2.26,1,1
hnl0vcoxwm84ddt2nu7xm7tg,5,0,a43,4,3.0,0.0,3.012,1,1
hnl0vcoxwm84ddt2nu7xm7tg,6,0,a48,5,1.0,0.0,1.548,1,1
hnl0vcoxwm84ddt2nu7xm7tg,7,0,a49,6,0.0,0.0,3.13,1,1
hnl0vcoxwm84ddt2nu7xm7tg,8,0,a53,0,6.0,0.0,1.569,1,1
hnl0vcoxwm84ddt2nu7xm7tg,9,0,a55,1,0.0,0.0,1.582,1,1
ht23l4nyaovc9ivq52c9wtwp,1,0,a11,4,4.0,1.0,12.754,1,1
ht23l4nyaovc9ivq52c9wtwp,2,0,a24,4,4.0,1.0,27.921,1,1
ht23l4nyaovc9ivq52c9wtwp,3,0,a28,7,7.0,1.0,8.229,1,1
ht23l4nyaovc9ivq52c9wtwp,4,0,a36,1,2.0,0.0,29.162,1,1
ht23l4nyaovc9ivq52c9wtwp,5,0,a43,4,4.0,1.0,16.916,1,1
ht23l4nyaovc9ivq52c9wtwp,6,0,a48,5,4.0,0.0,26.789,1,1
ht23l4nyaovc9ivq52c9wtwp,7,0,a49,6,6.0,1.0,10.418,1,1
ht23l4nyaovc9ivq52c9wtwp,8,0,a53,0,0.0,1.0,17.828,1,1
ht23l4nyaovc9ivq52c9wtwp,9,0,a55,1,,,,1,1
ht7xl5ao4khm5tpxm5eklyqu,1,0,a11,4,4.0,1.0,15.503,1,1
ht7xl5ao4khm5tpxm5eklyqu,2,0,a24,4,5.0,0.0,13.047,1,1
ht7xl5ao4khm5tpxm5eklyqu,3,0,a28,7,3.0,0.0,13.638,1,1
ht7xl5ao4khm5tpxm5eklyqu,4,0,a36,1,7.0,0.0,8.48,1,1
ht7xl5ao4khm5tpxm5eklyqu,5,0,a43,4,1.0,0.0,10.828,1,1
ht7xl5ao4khm5tpxm5eklyqu,6,0,a48,5,6.0,0.0,11.776,1,1
ht7xl5ao4khm5tpxm5eklyqu,7,0,a49,6,6.0,1.0,10.986,1,1
ht7xl5ao4khm5tpxm5eklyqu,8,0,a53,0,6.0,0.0,15.543,1,1
ht7xl5ao4khm5tpxm5eklyqu,9,0,a55,1,6.0,0.0,11.386,1,1
htqg94qtav92c1q6cm3csxgl,1,0,a11,4,5.0,0.0,7.452,1,1
htqg94qtav92c1q6cm3csxgl,2,0,a24,4,5.0,0.0,11.841,1,1
htqg94qtav92c1q6cm3csxgl,3,0,a28,7,3.0,0.0,8.861,1,1
htqg94qtav92c1q6cm3csxgl,4,0,a36,1,2.0,0.0,17.94,1,1
htqg94qtav92c1q6cm3csxgl,5,0,a43,4,0.0,0.0,9.028,1,1
htqg94qtav92c1q6cm3csxgl,6,0,a48,5,1.0,0.0,16.26,1,1
htqg94qtav92c1q6cm3csxgl,7,0,a49,6,2.0,0.0,7.091,1,1
htqg94qtav92c1q6cm3csxgl,8,0,a53,0,6.0,0.0,18.84,1,1
htqg94qtav92c1q6cm3csxgl,9,0,a55,1,6.0,0.0,5.755,1,1
hvbemxqiy5t79oi53f8oskob,1,0,a11,4,4.0,1.0,8.544,1,1
hvbemxqiy5t79oi53f8oskob,2,0,a24,4,5.0,0.0,15.415,1,1
hvbemxqiy5t79oi53f8oskob,3,0,a28,7,7.0,1.0,6.232,1,1
hvbemxqiy5t79oi53f8oskob,4,0,a36,1,2.0,0.0,7.053,1,1
hvbemxqiy5t79oi53f8oskob,5,0,a43,4,4.0,1.0,8.858,1,1
hvbemxqiy5t79oi53f8oskob,6,0,a48,5,6.0,0.0,6.539,1,1
hvbemxqiy5t79oi53f8oskob,7,0,a49,6,2.0,0.0,8.012,1,1
hvbemxqiy5t79oi53f8oskob,8,0,a53,0,6.0,0.0,10.774,1,1
hvbemxqiy5t79oi53f8oskob,9,0,a55,1,3.0,0.0,13.216,1,1
hw8zadof87h4cb1fiu9xhesr,1,0,a11,4,4.0,1.0,11.244,1,1
hw8zadof87h4cb1fiu9xhesr,2,0,a24,4,5.0,0.0,7.343,1,1
hw8zadof87h4cb1fiu9xhesr,3,0,a28,7,7.0,1.0,8.885,1,1
hw8zadof87h4cb1fiu9xhesr,4,0,a36,1,1.0,1.0,18.121,1,1
hw8zadof87h4cb1fiu9xhesr,5,0,a43,4,4.0,1.0,16.616,1,1
hw8zadof87h4cb1fiu9xhesr,6,0,a48,5,6.0,0.0,16.779,1,1
hw8zadof87h4cb1fiu9xhesr,7,0,a49,6,6.0,1.0,3.769,1,1
hw8zadof87h4cb1fiu9xhesr,8,0,a53,0,6.0,0.0,16.812,1,1
hw8zadof87h4cb1fiu9xhesr,9,0,a55,1,6.0,0.0,12.504,1,1
hx2aifix9ct6lkvbn9g194jx,1,0,a11,4,5.0,0.0,6.874,1,1
hx2aifix9ct6lkvbn9g194jx,2,0,a24,4,0.0,0.0,11.856,1,1
hx2aifix9ct6lkvbn9g194jx,3,0,a28,7,7.0,1.0,11.01,1,1
hx2aifix9ct6lkvbn9g194jx,4,0,a36,1,1.0,1.0,28.618,1,1
hx2aifix9ct6lkvbn9g194jx,5,0,a43,4,4.0,1.0,17.572,1,1
hx2aifix9ct6lkvbn9g194jx,6,0,a48,5,2.0,0.0,26.344,1,1
hx2aifix9ct6lkvbn9g194jx,7,0,a49,6,7.0,0.0,19.295,1,1
hx2aifix9ct6lkvbn9g194jx,8,0,a53,0,3.0,0.0,28.086,1,1
hx2aifix9ct6lkvbn9g194jx,9,0,a55,1,7.0,0.0,25.834,1,1
i0f191mbhx31o0b6m91c9f84,1,0,a11,4,4.0,1.0,28.028,1,1
i0f191mbhx31o0b6m91c9f84,2,0,a24,4,4.0,1.0,13.864,1,1
i0f191mbhx31o0b6m91c9f84,3,0,a28,7,7.0,1.0,11.035,1,1
i0f191mbhx31o0b6m91c9f84,4,0,a36,1,4.0,0.0,29.394,1,1
i0f191mbhx31o0b6m91c9f84,5,0,a43,4,4.0,1.0,27.128,1,1
i0f191mbhx31o0b6m91c9f84,6,0,a48,5,,,,1,1
i0f191mbhx31o0b6m91c9f84,7,0,a49,6,6.0,1.0,11.717,1,1
i0f191mbhx31o0b6m91c9f84,8,0,a53,0,0.0,1.0,13.835,1,1
i0f191mbhx31o0b6m91c9f84,9,0,a55,1,0.0,0.0,29.248,1,1
i83h7dwl4py2q3x0m45ffwia,1,0,a11,4,4.0,1.0,11.037,1,1
i83h7dwl4py2q3x0m45ffwia,2,0,a24,4,4.0,1.0,15.554,1,1
i83h7dwl4py2q3x0m45ffwia,3,0,a28,7,7.0,1.0,23.594,1,1
i83h7dwl4py2q3x0m45ffwia,4,0,a36,1,2.0,0.0,24.103,1,1
i83h7dwl4py2q3x0m45ffwia,5,0,a43,4,4.0,1.0,16.074,1,1
i83h7dwl4py2q3x0m45ffwia,6,0,a48,5,7.0,0.0,22.084,1,1
i83h7dwl4py2q3x0m45ffwia,7,0,a49,6,6.0,1.0,7.188,1,1
i83h7dwl4py2q3x0m45ffwia,8,0,a53,0,0.0,1.0,8.94,1,1
i83h7dwl4py2q3x0m45ffwia,9,0,a55,1,7.0,0.0,21.285,1,1
ias5mzthynddpnoeqx97txkl,1,0,a11,4,4.0,1.0,9.51,1,1
ias5mzthynddpnoeqx97txkl,2,0,a24,4,5.0,0.0,3.557,1,1
ias5mzthynddpnoeqx97txkl,3,0,a28,7,7.0,1.0,8.816,1,1
ias5mzthynddpnoeqx97txkl,4,0,a36,1,2.0,0.0,6.747,1,1
ias5mzthynddpnoeqx97txkl,5,0,a43,4,7.0,0.0,9.788,1,1
ias5mzthynddpnoeqx97txkl,6,0,a48,5,4.0,0.0,2.607,1,1
ias5mzthynddpnoeqx97txkl,7,0,a49,6,6.0,1.0,5.056,1,1
ias5mzthynddpnoeqx97txkl,8,0,a53,0,6.0,0.0,11.279,1,1
ias5mzthynddpnoeqx97txkl,9,0,a55,1,6.0,0.0,7.735,1,1
ifb8ria7zc0yw7fgmj5lpfgm,1,0,a11,4,4.0,1.0,13.292,1,1
ifb8ria7zc0yw7fgmj5lpfgm,2,0,a24,4,4.0,1.0,20.317,1,1
ifb8ria7zc0yw7fgmj5lpfgm,3,0,a28,7,7.0,1.0,13.821,1,1
ifb8ria7zc0yw7fgmj5lpfgm,4,0,a36,1,1.0,1.0,29.723,1,1
ifb8ria7zc0yw7fgmj5lpfgm,5,0,a43,4,4.0,1.0,18.068,1,1
ifb8ria7zc0yw7fgmj5lpfgm,6,0,a48,5,6.0,0.0,19.245,1,1
ifb8ria7zc0yw7fgmj5lpfgm,7,0,a49,6,2.0,0.0,13.654,1,1
ifb8ria7zc0yw7fgmj5lpfgm,8,0,a53,0,0.0,1.0,7.908,1,1
ifb8ria7zc0yw7fgmj5lpfgm,9,0,a55,1,1.0,1.0,25.403,1,1
il0yopf471got4tcy1yijcn1,1,0,a11,4,4.0,1.0,9.052,1,1
il0yopf471got4tcy1yijcn1,2,0,a24,4,4.0,1.0,9.977,1,1
il0yopf471got4tcy1yijcn1,3,0,a28,7,7.0,1.0,9.524,1,1
il0yopf471got4tcy1yijcn1,4,0,a36,1,2.0,0.0,26.538,1,1
il0yopf471got4tcy1yijcn1,5,0,a43,4,4.0,1.0,27.485,1,1
il0yopf471got4tcy1yijcn1,6,0,a48,5,4.0,0.0,13.397,1,1
il0yopf471got4tcy1yijcn1,7,0,a49,6,6.0,1.0,10.863,1,1
il0yopf471got4tcy1yijcn1,8,0,a53,0,0.0,1.0,9.763,1,1
il0yopf471got4tcy1yijcn1,9,0,a55,1,1.0,1.0,14.881,1,1
im9lykiocrw08y7xyox1xavi,1,0,a11,4,2.0,0.0,11.403,1,1
im9lykiocrw08y7xyox1xavi,2,0,a24,4,5.0,0.0,20.017,1,1
im9lykiocrw08y7xyox1xavi,3,0,a28,7,7.0,1.0,25.788,1,1
im9lykiocrw08y7xyox1xavi,4,0,a36,1,2.0,0.0,29.24,1,1
im9lykiocrw08y7xyox1xavi,5,0,a43,4,4.0,1.0,19.672,1,1
im9lykiocrw08y7xyox1xavi,6,0,a48,5,,,,1,1
im9lykiocrw08y7xyox1xavi,7,0,a49,6,6.0,1.0,11.545,1,1
im9lykiocrw08y7xyox1xavi,8,0,a53,0,0.0,1.0,18.34,1,1
im9lykiocrw08y7xyox1xavi,9,0,a55,1,5.0,0.0,23.736,1,1
in8hydh7yuf3tm2927paebwn,1,0,a11,4,4.0,1.0,5.536,1,1
in8hydh7yuf3tm2927paebwn,2,0,a24,4,4.0,1.0,13.641,1,1
in8hydh7yuf3tm2927paebwn,3,0,a28,7,7.0,1.0,5.728,1,1
in8hydh7yuf3tm2927paebwn,4,0,a36,1,2.0,0.0,12.102,1,1
in8hydh7yuf3tm2927paebwn,5,0,a43,4,7.0,0.0,4.095,1,1
in8hydh7yuf3tm2927paebwn,6,0,a48,5,6.0,0.0,15.394,1,1
in8hydh7yuf3tm2927paebwn,7,0,a49,6,6.0,1.0,10.816,1,1
in8hydh7yuf3tm2927paebwn,8,0,a53,0,0.0,1.0,10.195,1,1
in8hydh7yuf3tm2927paebwn,9,0,a55,1,3.0,0.0,15.354,1,1
iqvlj8ompvnxkuumb5dcjvvl,1,0,a11,4,0.0,0.0,4.312,1,1
iqvlj8ompvnxkuumb5dcjvvl,2,0,a24,4,5.0,0.0,7.736,1,1
iqvlj8ompvnxkuumb5dcjvvl,3,0,a28,7,3.0,0.0,10.716,1,1
iqvlj8ompvnxkuumb5dcjvvl,4,0,a36,1,0.0,0.0,11.497,1,1
iqvlj8ompvnxkuumb5dcjvvl,5,0,a43,4,0.0,0.0,10.201,1,1
iqvlj8ompvnxkuumb5dcjvvl,6,0,a48,5,5.0,1.0,12.589,1,1
iqvlj8ompvnxkuumb5dcjvvl,7,0,a49,6,0.0,0.0,2.98,1,1
iqvlj8ompvnxkuumb5dcjvvl,8,0,a53,0,6.0,0.0,9.816,1,1
iqvlj8ompvnxkuumb5dcjvvl,9,0,a55,1,0.0,0.0,5.592,1,1
iuur60svjr6r7xaw8m977jmp,1,0,a11,4,0.0,0.0,25.358,1,1
iuur60svjr6r7xaw8m977jmp,2,0,a24,4,4.0,1.0,8.71,1,1
iuur60svjr6r7xaw8m977jmp,3,0,a28,7,7.0,1.0,10.485,1,1
iuur60svjr6r7xaw8m977jmp,4,0,a36,1,,,,1,1
iuur60svjr6r7xaw8m977jmp,5,0,a43,4,4.0,1.0,8.056,1,1
iuur60svjr6r7xaw8m977jmp,6,0,a48,5,6.0,0.0,15.996,1,1
iuur60svjr6r7xaw8m977jmp,7,0,a49,6,6.0,1.0,7.176,1,1
iuur60svjr6r7xaw8m977jmp,8,0,a53,0,0.0,1.0,10.156,1,1
iuur60svjr6r7xaw8m977jmp,9,0,a55,1,1.0,1.0,1.708,1,1
iwihfoiyaj40fppqj5d5m7oq,1,0,a11,4,4.0,1.0,13.799,1,1
iwihfoiyaj40fppqj5d5m7oq,2,0,a24,4,4.0,1.0,29.105,1,1
iwihfoiyaj40fppqj5d5m7oq,3,0,a28,7,7.0,1.0,8.892,1,1
iwihfoiyaj40fppqj5d5m7oq,4,0,a36,1,2.0,0.0,15.718,1,1
iwihfoiyaj40fppqj5d5m7oq,5,0,a43,4,0.0,0.0,29.103,1,1
iwihfoiyaj40fppqj5d5m7oq,6,0,a48,5,7.0,0.0,21.876,1,1
iwihfoiyaj40fppqj5d5m7oq,7,0,a49,6,2.0,0.0,21.208,1,1
iwihfoiyaj40fppqj5d5m7oq,8,0,a53,0,6.0,0.0,3.686,1,1
iwihfoiyaj40fppqj5d5m7oq,9,0,a55,1,3.0,0.0,15.253,1,1
j6gispl536l95iyvzdnxeadh,1,0,a11,4,4.0,1.0,12.789,1,1
j6gispl536l95iyvzdnxeadh,2,0,a24,4,3.0,0.0,10.614,1,1
j6gispl536l95iyvzdnxeadh,3,0,a28,7,3.0,0.0,8.685,1,1
j6gispl536l95iyvzdnxeadh,4,0,a36,1,2.0,0.0,12.02,1,1
j6gispl536l95iyvzdnxeadh,5,0,a43,4,7.0,0.0,8.915,1,1
j6gispl536l95iyvzdnxeadh,6,0,a48,5,6.0,0.0,5.657,1,1
j6gispl536l95iyvzdnxeadh,7,0,a49,6,6.0,1.0,7.608,1,1
j6gispl536l95iyvzdnxeadh,8,0,a53,0,3.0,0.0,11.154,1,1
j6gispl536l95iyvzdnxeadh,9,0,a55,1,3.0,0.0,8.174,1,1
jictxitpp54wftyvxlrkk6rs,1,0,a11,4,4.0,1.0,19.403,1,1
jictxitpp54wftyvxlrkk6rs,2,0,a24,4,4.0,1.0,27.248,1,1
jictxitpp54wftyvxlrkk6rs,3,0,a28,7,7.0,1.0,9.31,1,1
jictxitpp54wftyvxlrkk6rs,4,0,a36,1,1.0,1.0,16.228,1,1
jictxitpp54wftyvxlrkk6rs,5,0,a43,4,4.0,1.0,9.175,1,1
jictxitpp54wftyvxlrkk6rs,6,0,a48,5,5.0,1.0,20.928,1,1
jictxitpp54wftyvxlrkk6rs,7,0,a49,6,6.0,1.0,6.273,1,1
jictxitpp54wftyvxlrkk6rs,8,0,a53,0,0.0,1.0,11.846,1,1
jictxitpp54wftyvxlrkk6rs,9,0,a55,1,5.0,0.0,26.726,1,1
jil1mat350anq2m149vr3jud,1,0,a11,4,4.0,1.0,20.328,1,1
jil1mat350anq2m149vr3jud,2,0,a24,4,4.0,1.0,17.598,1,1
jil1mat350anq2m149vr3jud,3,0,a28,7,7.0,1.0,17.029,1,1
jil1mat350anq2m149vr3jud,4,0,a36,1,3.0,0.0,26.641,1,1
jil1mat350anq2m149vr3jud,5,0,a43,4,4.0,1.0,18.714,1,1
jil1mat350anq2m149vr3jud,6,0,a48,5,4.0,0.0,21.454,1,1
jil1mat350anq2m149vr3jud,7,0,a49,6,6.0,1.0,10.787,1,1
jil1mat350anq2m149vr3jud,8,0,a53,0,0.0,1.0,26.814,1,1
jil1mat350anq2m149vr3jud,9,0,a55,1,1.0,1.0,22.496,1,1
jqe0c9ncek5jtaj72tnyc3lr,1,0,a11,4,4.0,1.0,9.055,1,1
jqe0c9ncek5jtaj72tnyc3lr,2,0,a24,4,4.0,1.0,4.573,1,1
jqe0c9ncek5jtaj72tnyc3lr,3,0,a28,7,7.0,1.0,7.623,1,1
jqe0c9ncek5jtaj72tnyc3lr,4,0,a36,1,5.0,0.0,20.953,1,1
jqe0c9ncek5jtaj72tnyc3lr,5,0,a43,4,4.0,1.0,11.539,1,1
jqe0c9ncek5jtaj72tnyc3lr,6,0,a48,5,6.0,0.0,15.194,1,1
jqe0c9ncek5jtaj72tnyc3lr,7,0,a49,6,0.0,0.0,5.864,1,1
jqe0c9ncek5jtaj72tnyc3lr,8,0,a53,0,4.0,0.0,13.372,1,1
jqe0c9ncek5jtaj72tnyc3lr,9,0,a55,1,5.0,0.0,12.003,1,1
jsfby9ro2g7y9402jk2ov2ud,1,0,a11,4,5.0,0.0,13.552,1,1
jsfby9ro2g7y9402jk2ov2ud,2,0,a24,4,4.0,1.0,12.378,1,1
jsfby9ro2g7y9402jk2ov2ud,3,0,a28,7,3.0,0.0,11.21,1,1
jsfby9ro2g7y9402jk2ov2ud,4,0,a36,1,2.0,0.0,14.221,1,1
jsfby9ro2g7y9402jk2ov2ud,5,0,a43,4,3.0,0.0,25.696,1,1
jsfby9ro2g7y9402jk2ov2ud,6,0,a48,5,2.0,0.0,18.489,1,1
jsfby9ro2g7y9402jk2ov2ud,7,0,a49,6,6.0,1.0,9.339,1,1
jsfby9ro2g7y9402jk2ov2ud,8,0,a53,0,0.0,1.0,6.881,1,1
jsfby9ro2g7y9402jk2ov2ud,9,0,a55,1,,,,1,1
jshqci67yas44rp7y2ji1508,1,0,a11,4,0.0,0.0,13.893,1,1
jshqci67yas44rp7y2ji1508,2,0,a24,4,0.0,0.0,15.52,1,1
jshqci67yas44rp7y2ji1508,3,0,a28,7,7.0,1.0,16.702,1,1
jshqci67yas44rp7y2ji1508,4,0,a36,1,0.0,0.0,18.777,1,1
jshqci67yas44rp7y2ji1508,5,0,a43,4,4.0,1.0,23.611,1,1
jshqci67yas44rp7y2ji1508,6,0,a48,5,6.0,0.0,29.959,1,1
jshqci67yas44rp7y2ji1508,7,0,a49,6,6.0,1.0,10.142,1,1
jshqci67yas44rp7y2ji1508,8,0,a53,0,7.0,0.0,29.031,1,1
jshqci67yas44rp7y2ji1508,9,0,a55,1,7.0,0.0,18.47,1,1
jvmclaemywybgwnglxbma49a,1,0,a11,4,4.0,1.0,4.272,1,1
jvmclaemywybgwnglxbma49a,2,0,a24,4,3.0,0.0,6.998,1,1
jvmclaemywybgwnglxbma49a,3,0,a28,7,3.0,0.0,5.613,1,1
jvmclaemywybgwnglxbma49a,4,0,a36,1,1.0,1.0,17.353,1,1
jvmclaemywybgwnglxbma49a,5,0,a43,4,4.0,1.0,10.167,1,1
jvmclaemywybgwnglxbma49a,6,0,a48,5,6.0,0.0,19.559,1,1
jvmclaemywybgwnglxbma49a,7,0,a49,6,6.0,1.0,10.476,1,1
jvmclaemywybgwnglxbma49a,8,0,a53,0,1.0,0.0,7.956,1,1
jvmclaemywybgwnglxbma49a,9,0,a55,1,6.0,0.0,9.135,1,1
k6h7vgt8fj14ychs2qaujfpw,1,0,a11,4,0.0,0.0,6.016,1,1
k6h7vgt8fj14ychs2qaujfpw,2,0,a24,4,5.0,0.0,2.0,1,1
k6h7vgt8fj14ychs2qaujfpw,3,0,a28,7,7.0,1.0,4.757,1,1
k6h7vgt8fj14ychs2qaujfpw,4,0,a36,1,7.0,0.0,7.448,1,1
k6h7vgt8fj14ychs2qaujfpw,5,0,a43,4,5.0,0.0,4.098,1,1
k6h7vgt8fj14ychs2qaujfpw,6,0,a48,5,0.0,0.0,10.205,1,1
k6h7vgt8fj14ychs2qaujfpw,7,0,a49,6,4.0,0.0,7.494,1,1
k6h7vgt8fj14ychs2qaujfpw,8,0,a53,0,0.0,1.0,11.177,1,1
k6h7vgt8fj14ychs2qaujfpw,9,0,a55,1,2.0,0.0,10.308,1,1
kab0jzzxrafag6ufef89ftkv,1,0,a11,4,4.0,1.0,11.958,1,1
kab0jzzxrafag6ufef89ftkv,2,0,a24,4,4.0,1.0,21.595,1,1
kab0jzzxrafag6ufef89ftkv,3,0,a28,7,7.0,1.0,15.554,1,1
kab0jzzxrafag6ufef89ftkv,4,0,a36,1,1.0,1.0,17.029,1,1
kab0jzzxrafag6ufef89ftkv,5,0,a43,4,4.0,1.0,17.734,1,1
kab0jzzxrafag6ufef89ftkv,6,0,a48,5,6.0,0.0,24.11,1,1
kab0jzzxrafag6ufef89ftkv,7,0,a49,6,6.0,1.0,12.068,1,1
kab0jzzxrafag6ufef89ftkv,8,0,a53,0,0.0,1.0,15.428,1,1
kab0jzzxrafag6ufef89ftkv,9,0,a55,1,1.0,1.0,29.404,1,1
kfwpo7jdu24osnoenb40egtw,1,0,a11,4,4.0,1.0,11.776,1,1
kfwpo7jdu24osnoenb40egtw,2,0,a24,4,4.0,1.0,10.222,1,1
kfwpo7jdu24osnoenb40egtw,3,0,a28,7,7.0,1.0,15.397,1,1
kfwpo7jdu24osnoenb40egtw,4,0,a36,1,4.0,0.0,23.103,1,1
kfwpo7jdu24osnoenb40egtw,5,0,a43,4,4.0,1.0,24.385,1,1
kfwpo7jdu24osnoenb40egtw,6,0,a48,5,6.0,0.0,18.471,1,1
kfwpo7jdu24osnoenb40egtw,7,0,a49,6,6.0,1.0,14.784,1,1
kfwpo7jdu24osnoenb40egtw,8,0,a53,0,0.0,1.0,9.174,1,1
kfwpo7jdu24osnoenb40egtw,9,0,a55,1,1.0,1.0,25.923,1,1
kjnguvi77x6fjhgf03qy189m,1,0,a11,4,4.0,1.0,4.07,1,1
kjnguvi77x6fjhgf03qy189m,2,0,a24,4,4.0,1.0,3.509,1,1
kjnguvi77x6fjhgf03qy189m,3,0,a28,7,3.0,0.0,3.213,1,1
kjnguvi77x6fjhgf03qy189m,4,0,a36,1,2.0,0.0,8.505,1,1
kjnguvi77x6fjhgf03qy189m,5,0,a43,4,4.0,1.0,3.943,1,1
kjnguvi77x6fjhgf03qy189m,6,0,a48,5,6.0,0.0,5.886,1,1
kjnguvi77x6fjhgf03qy189m,7,0,a49,6,0.0,0.0,7.286,1,1
kjnguvi77x6fjhgf03qy189m,8,0,a53,0,0.0,1.0,5.766,1,1
kjnguvi77x6fjhgf03qy189m,9,0,a55,1,3.0,0.0,5.447,1,1
kmfa156i9qo40qse8rcrhgkk,1,0,a11,4,5.0,0.0,12.502,1,1
kmfa156i9qo40qse8rcrhgkk,2,0,a24,4,5.0,0.0,18.138,1,1
kmfa156i9qo40qse8rcrhgkk,3,0,a28,7,7.0,1.0,10.959,1,1
kmfa156i9qo40qse8rcrhgkk,4,0,a36,1,2.0,0.0,13.361,1,1
kmfa156i9qo40qse8rcrhgkk,5,0,a43,4,4.0,1.0,13.17,1,1
kmfa156i9qo40qse8rcrhgkk,6,0,a48,5,7.0,0.0,18.913,1,1
kmfa156i9qo40qse8rcrhgkk,7,0,a49,6,6.0,1.0,7.613,1,1
kmfa156i9qo40qse8rcrhgkk,8,0,a53,0,0.0,1.0,9.717,1,1
kmfa156i9qo40qse8rcrhgkk,9,0,a55,1,2.0,0.0,16.557,1,1
ksspisvnatfmnun416jrlj2p,1,0,a11,4,3.0,0.0,19.175,1,1
ksspisvnatfmnun416jrlj2p,2,0,a24,4,4.0,1.0,12.849,1,1
ksspisvnatfmnun416jrlj2p,3,0,a28,7,7.0,1.0,17.35,1,1
ksspisvnatfmnun416jrlj2p,4,0,a36,1,2.0,0.0,15.279,1,1
ksspisvnatfmnun416jrlj2p,5,0,a43,4,4.0,1.0,12.158,1,1
ksspisvnatfmnun416jrlj2p,6,0,a48,5,6.0,0.0,20.732,1,1
ksspisvnatfmnun416jrlj2p,7,0,a49,6,6.0,1.0,11.742,1,1
ksspisvnatfmnun416jrlj2p,8,0,a53,0,0.0,1.0,7.266,1,1
ksspisvnatfmnun416jrlj2p,9,0,a55,1,,,,1,1
kxdrfnay92e38xpevxg2tc4s,1,0,a11,4,4.0,1.0,9.722,1,1
kxdrfnay92e38xpevxg2tc4s,2,0,a24,4,5.0,0.0,12.751,1,1
kxdrfnay92e38xpevxg2tc4s,3,0,a28,7,7.0,1.0,14.651,1,1
kxdrfnay92e38xpevxg2tc4s,4,0,a36,1,1.0,1.0,23.628,1,1
kxdrfnay92e38xpevxg2tc4s,5,0,a43,4,4.0,1.0,26.402,1,1
kxdrfnay92e38xpevxg2tc4s,6,0,a48,5,6.0,0.0,18.888,1,1
kxdrfnay92e38xpevxg2tc4s,7,0,a49,6,5.0,0.0,24.266,1,1
kxdrfnay92e38xpevxg2tc4s,8,0,a53,0,6.0,0.0,26.261,1,1
kxdrfnay92e38xpevxg2tc4s,9,0,a55,1,6.0,0.0,12.475,1,1
l373pms07j5hnk2cai0dglnl,1,0,a11,4,4.0,1.0,12.432,1,1
