subject,trial,test_form,stimulus,correct,choice,accuracy,rt,all_loaded,minimum_resolution
004bcqb25d6m8s2j3snn7exa,1,0,a11,4,4.0,1.0,20.437,1,1
004bcqb25d6m8s2j3snn7exa,2,0,a24,4,3.0,0.0,21.476,1,1
004bcqb25d6m8s2j3snn7exa,3,0,a28,7,7.0,1.0,18.065,1,1
004bcqb25d6m8s2j3snn7exa,4,0,a36,1,2.0,0.0,12.738,1,1
004bcqb25d6m8s2j3snn7exa,5,0,a43,4,4.0,1.0,14.931,1,1
004bcqb25d6m8s2j3snn7exa,6,0,a48,5,,,,1,1
004bcqb25d6m8s2j3snn7exa,7,0,a49,6,6.0,1.0,10.405,1,1
004bcqb25d6m8s2j3snn7exa,8,0,a53,0,0.0,1.0,8.836,1,1
004bcqb25d6m8s2j3snn7exa,9,0,a55,1,6.0,0.0,18.446,1,1
02afxz4fercedkpoucq0nwv2,1,0,a11,4,4.0,1.0,15.063,1,1
02afxz4fercedkpoucq0nwv2,2,0,a24,4,4.0,1.0,18.478,1,1
02afxz4fercedkpoucq0nwv2,3,0,a28,7,7.0,1.0,6.002,1,1
02afxz4fercedkpoucq0nwv2,4,0,a36,1,2.0,0.0,12.178,1,1
02afxz4fercedkpoucq0nwv2,5,0,a43,4,1.0,0.0,13.473,1,1
02afxz4fercedkpoucq0nwv2,6,0,a48,5,3.0,0.0,18.282,1,1
02afxz4fercedkpoucq0nwv2,7,0,a49,6,6.0,1.0,15.456,1,1
02afxz4fercedkpoucq0nwv2,8,0,a53,0,0.0,1.0,4.096,1,1
02afxz4fercedkpoucq0nwv2,9,0,a55,1,2.0,0.0,4.73,1,1
067hzn5he4dqtrtiulmlf2eu,1,0,a11,4,0.0,0.0,6.974,1,1
067hzn5he4dqtrtiulmlf2eu,2,0,a24,4,4.0,1.0,8.963,1,1
067hzn5he4dqtrtiulmlf2eu,3,0,a28,7,2.0,0.0,11.094,1,1
067hzn5he4dqtrtiulmlf2eu,4,0,a36,1,4.0,0.0,26.026,1,1
067hzn5he4dqtrtiulmlf2eu,5,0,a43,4,4.0,1.0,15.045,1,1
067hzn5he4dqtrtiulmlf2eu,6,0,a48,5,4.0,0.0,16.41,1,1
067hzn5he4dqtrtiulmlf2eu,7,0,a49,6,2.0,0.0,24.408,1,1
067hzn5he4dqtrtiulmlf2eu,8,0,a53,0,4.0,0.0,13.226,1,1
067hzn5he4dqtrtiulmlf2eu,9,0,a55,1,0.0,0.0,27.158,1,1
06z78t8e7s50q0bufotmy2sh,1,0,a11,4,4.0,1.0,12.199,1,1
06z78t8e7s50q0bufotmy2sh,2,0,a24,4,4.0,1.0,12.573,1,1
06z78t8e7s50q0bufotmy2sh,3,0,a28,7,7.0,1.0,29.656,1,1
06z78t8e7s50q0bufotmy2sh,4,0,a36,1,,,,1,1
06z78t8e7s50q0bufotmy2sh,5,0,a43,4,4.0,1.0,24.361,1,1
06z78t8e7s50q0bufotmy2sh,6,0,a48,5,2.0,0.0,29.943,1,1
06z78t8e7s50q0bufotmy2sh,7,0,a49,6,6.0,1.0,24.802,1,1
06z78t8e7s50q0bufotmy2sh,8,0,a53,0,0.0,1.0,28.914,1,1
06z78t8e7s50q0bufotmy2sh,9,0,a55,1,3.0,0.0,29.927,1,1
0d2k1d6l575zu9b9qntyusym,1,0,a11,4,4.0,1.0,22.344,1,1
0d2k1d6l575zu9b9qntyusym,2,0,a24,4,4.0,1.0,17.778,1,1
0d2k1d6l575zu9b9qntyusym,3,0,a28,7,7.0,1.0,14.577,1,1
0d2k1d6l575zu9b9qntyusym,4,0,a36,1,7.0,0.0,28.771,1,1
0d2k1d6l575zu9b9qntyusym,5,0,a43,4,4.0,1.0,15.676,1,1
0d2k1d6l575zu9b9qntyusym,6,0,a48,5,3.0,0.0,21.097,1,1
0d2k1d6l575zu9b9qntyusym,7,0,a49,6,6.0,1.0,14.734,1,1
0d2k1d6l575zu9b9qntyusym,8,0,a53,0,0.0,1.0,10.2,1,1
0d2k1d6l575zu9b9qntyusym,9,0,a55,1,1.0,1.0,26.399,1,1
0hq9i9kgzqo0g7tid31bnu3i,1,0,a11,4,4.0,1.0,13.528,1,1
0hq9i9kgzqo0g7tid31bnu3i,2,0,a24,4,4.0,1.0,10.334,1,1
0hq9i9kgzqo0g7tid31bnu3i,3,0,a28,7,7.0,1.0,5.458,1,1
0hq9i9kgzqo0g7tid31bnu3i,4,0,a36,1,1.0,1.0,19.085,1,1
0hq9i9kgzqo0g7tid31bnu3i,5,0,a43,4,4.0,1.0,14.648,1,1
0hq9i9kgzqo0g7tid31bnu3i,6,0,a48,5,5.0,1.0,13.334,1,1
0hq9i9kgzqo0g7tid31bnu3i,7,0,a49,6,6.0,1.0,4.598,1,1
0hq9i9kgzqo0g7tid31bnu3i,8,0,a53,0,0.0,1.0,22.383,1,1
0hq9i9kgzqo0g7tid31bnu3i,9,0,a55,1,6.0,0.0,13.009,1,1
0hyzm81by1o1277t5zyxb36x,1,0,a11,4,4.0,1.0,17.531,1,1
0hyzm81by1o1277t5zyxb36x,2,0,a24,4,4.0,1.0,12.348,1,1
0hyzm81by1o1277t5zyxb36x,3,0,a28,7,7.0,1.0,12.699,1,1
0hyzm81by1o1277t5zyxb36x,4,0,a36,1,1.0,1.0,21.643,1,1
0hyzm81by1o1277t5zyxb36x,5,0,a43,4,4.0,1.0,17.732,1,1
0hyzm81by1o1277t5zyxb36x,6,0,a48,5,6.0,0.0,23.117,1,1
0hyzm81by1o1277t5zyxb36x,7,0,a49,6,6.0,1.0,12.932,1,1
0hyzm81by1o1277t5zyxb36x,8,0,a53,0,6.0,0.0,16.996,1,1
0hyzm81by1o1277t5zyxb36x,9,0,a55,1,0.0,0.0,29.988,1,1
0kq7fvgpezd7c2ugltf9v8il,1,0,a11,4,0.0,0.0,6.295,1,1
0kq7fvgpezd7c2ugltf9v8il,2,0,a24,4,4.0,1.0,10.294,1,1
0kq7fvgpezd7c2ugltf9v8il,3,0,a28,7,7.0,1.0,11.474,1,1
0kq7fvgpezd7c2ugltf9v8il,4,0,a36,1,7.0,0.0,8.722,1,1
0kq7fvgpezd7c2ugltf9v8il,5,0,a43,4,4.0,1.0,15.562,1,1
0kq7fvgpezd7c2ugltf9v8il,6,0,a48,5,0.0,0.0,11.114,1,1
0kq7fvgpezd7c2ugltf9v8il,7,0,a49,6,4.0,0.0,27.118,1,1
0kq7fvgpezd7c2ugltf9v8il,8,0,a53,0,0.0,1.0,5.482,1,1
0kq7fvgpezd7c2ugltf9v8il,9,0,a55,1,2.0,0.0,25.977,1,1
0pvidhiwas7imdnhdygdgoud,1,0,a11,4,4.0,1.0,12.857,1,1
0pvidhiwas7imdnhdygdgoud,2,0,a24,4,4.0,1.0,9.613,1,1
0pvidhiwas7imdnhdygdgoud,3,0,a28,7,7.0,1.0,14.59,1,1
0pvidhiwas7imdnhdygdgoud,4,0,a36,1,3.0,0.0,8.709,1,1
0pvidhiwas7imdnhdygdgoud,5,0,a43,4,2.0,0.0,19.936,1,1
0pvidhiwas7imdnhdygdgoud,6,0,a48,5,6.0,0.0,14.568,1,1
0pvidhiwas7imdnhdygdgoud,7,0,a49,6,6.0,1.0,17.574,1,1
0pvidhiwas7imdnhdygdgoud,8,0,a53,0,6.0,0.0,9.872,1,1
0pvidhiwas7imdnhdygdgoud,9,0,a55,1,0.0,0.0,10.008,1,1
0q78z464n12q3nvlhv5zem5f,1,0,a11,4,4.0,1.0,6.776,1,1
0q78z464n12q3nvlhv5zem5f,2,0,a24,4,5.0,0.0,13.035,1,1
0q78z464n12q3nvlhv5zem5f,3,0,a28,7,7.0,1.0,4.928,1,1
0q78z464n12q3nvlhv5zem5f,4,0,a36,1,1.0,1.0,11.147,1,1
0q78z464n12q3nvlhv5zem5f,5,0,a43,4,4.0,1.0,16.104,1,1
0q78z464n12q3nvlhv5zem5f,6,0,a48,5,4.0,0.0,12.783,1,1
0q78z464n12q3nvlhv5zem5f,7,0,a49,6,6.0,1.0,5.637,1,1
0q78z464n12q3nvlhv5zem5f,8,0,a53,0,0.0,1.0,6.633,1,1
0q78z464n12q3nvlhv5zem5f,9,0,a55,1,7.0,0.0,19.747,1,1
0rx1t0vxqcf0xgvkncpwbw6r,1,0,a11,4,4.0,1.0,10.373,1,1
0rx1t0vxqcf0xgvkncpwbw6r,2,0,a24,4,4.0,1.0,14.104,1,1
0rx1t0vxqcf0xgvkncpwbw6r,3,0,a28,7,7.0,1.0,20.236,1,1
0rx1t0vxqcf0xgvkncpwbw6r,4,0,a36,1,1.0,1.0,16.546,1,1
0rx1t0vxqcf0xgvkncpwbw6r,5,0,a43,4,4.0,1.0,7.757,1,1
0rx1t0vxqcf0xgvkncpwbw6r,6,0,a48,5,6.0,0.0,5.264,1,1
0rx1t0vxqcf0xgvkncpwbw6r,7,0,a49,6,6.0,1.0,5.14,1,1
0rx1t0vxqcf0xgvkncpwbw6r,8,0,a53,0,0.0,1.0,5.343,1,1
0rx1t0vxqcf0xgvkncpwbw6r,9,0,a55,1,2.0,0.0,5.849,1,1
0tqxbx2dj2avuvxd908pcbu2,1,0,a11,4,5.0,0.0,5.863,1,1
0tqxbx2dj2avuvxd908pcbu2,2,0,a24,4,2.0,0.0,8.67,1,1
0tqxbx2dj2avuvxd908pcbu2,3,0,a28,7,7.0,1.0,22.096,1,1
0tqxbx2dj2avuvxd908pcbu2,4,0,a36,1,2.0,0.0,18.428,1,1
0tqxbx2dj2avuvxd908pcbu2,5,0,a43,4,4.0,1.0,13.443,1,1
0tqxbx2dj2avuvxd908pcbu2,6,0,a48,5,1.0,0.0,15.203,1,1
0tqxbx2dj2avuvxd908pcbu2,7,0,a49,6,0.0,0.0,28.575,1,1
0tqxbx2dj2avuvxd908pcbu2,8,0,a53,0,0.0,1.0,10.422,1,1
0tqxbx2dj2avuvxd908pcbu2,9,0,a55,1,3.0,0.0,17.871,1,1
0xw4hsydjiw8n5x9emapoyfs,1,0,a11,4,5.0,0.0,7.738,1,1
0xw4hsydjiw8n5x9emapoyfs,2,0,a24,4,0.0,0.0,14.167,1,1
0xw4hsydjiw8n5x9emapoyfs,3,0,a28,7,3.0,0.0,8.036,1,1
0xw4hsydjiw8n5x9emapoyfs,4,0,a36,1,3.0,0.0,14.542,1,1
0xw4hsydjiw8n5x9emapoyfs,5,0,a43,4,4.0,1.0,24.571,1,1
0xw4hsydjiw8n5x9emapoyfs,6,0,a48,5,0.0,0.0,27.392,1,1
0xw4hsydjiw8n5x9emapoyfs,7,0,a49,6,6.0,1.0,13.394,1,1
0xw4hsydjiw8n5x9emapoyfs,8,0,a53,0,0.0,1.0,13.362,1,1
0xw4hsydjiw8n5x9emapoyfs,9,0,a55,1,6.0,0.0,20.497,1,1
0xzatwpgdlc9c9yh507r49d9,1,0,a11,4,4.0,1.0,11.467,1,1
0xzatwpgdlc9c9yh507r49d9,2,0,a24,4,4.0,1.0,10.468,1,1
0xzatwpgdlc9c9yh507r49d9,3,0,a28,7,7.0,1.0,13.256,1,1
0xzatwpgdlc9c9yh507r49d9,4,0,a36,1,0.0,0.0,28.185,1,1
0xzatwpgdlc9c9yh507r49d9,5,0,a43,4,4.0,1.0,18.418,1,1
0xzatwpgdlc9c9yh507r49d9,6,0,a48,5,,,,1,1
0xzatwpgdlc9c9yh507r49d9,7,0,a49,6,6.0,1.0,13.185,1,1
0xzatwpgdlc9c9yh507r49d9,8,0,a53,0,0.0,1.0,12.259,1,1
0xzatwpgdlc9c9yh507r49d9,9,0,a55,1,7.0,0.0,10.447,1,1
0y65ye74hdib59v4cgafca9a,1,0,a11,4,4.0,1.0,7.089,1,1
0y65ye74hdib59v4cgafca9a,2,0,a24,4,3.0,0.0,4.594,1,1
0y65ye74hdib59v4cgafca9a,3,0,a28,7,3.0,0.0,10.154,1,1
0y65ye74hdib59v4cgafca9a,4,0,a36,1,2.0,0.0,11.586,1,1
0y65ye74hdib59v4cgafca9a,5,0,a43,4,4.0,1.0,2.227,1,1
0y65ye74hdib59v4cgafca9a,6,0,a48,5,1.0,0.0,7.251,1,1
0y65ye74hdib59v4cgafca9a,7,0,a49,6,0.0,0.0,4.076,1,1
0y65ye74hdib59v4cgafca9a,8,0,a53,0,6.0,0.0,3.146,1,1
0y65ye74hdib59v4cgafca9a,9,0,a55,1,3.0,0.0,4.835,1,1
136f4agymoto6l4ciu1h10yt,1,0,a11,4,4.0,1.0,21.358,1,1
136f4agymoto6l4ciu1h10yt,2,0,a24,4,4.0,1.0,15.366,1,1
136f4agymoto6l4ciu1h10yt,3,0,a28,7,7.0,1.0,19.06,1,1
136f4agymoto6l4ciu1h10yt,4,0,a36,1,5.0,0.0,27.282,1,1
136f4agymoto6l4ciu1h10yt,5,0,a43,4,4.0,1.0,13.114,1,1
136f4agymoto6l4ciu1h10yt,6,0,a48,5,5.0,1.0,18.418,1,1
136f4agymoto6l4ciu1h10yt,7,0,a49,6,,,,1,1
136f4agymoto6l4ciu1h10yt,8,0,a53,0,0.0,1.0,11.994,1,1
136f4agymoto6l4ciu1h10yt,9,0,a55,1,5.0,0.0,28.435,1,1
139lbgvav4jcfzknxfmlub08,1,0,a11,4,5.0,0.0,15.296,1,1
139lbgvav4jcfzknxfmlub08,2,0,a24,4,2.0,0.0,7.898,1,1
139lbgvav4jcfzknxfmlub08,3,0,a28,7,5.0,0.0,13.471,1,1
139lbgvav4jcfzknxfmlub08,4,0,a36,1,2.0,0.0,16.112,1,1
139lbgvav4jcfzknxfmlub08,5,0,a43,4,0.0,0.0,23.809,1,1
139lbgvav4jcfzknxfmlub08,6,0,a48,5,4.0,0.0,23.5,1,1
139lbgvav4jcfzknxfmlub08,7,0,a49,6,0.0,0.0,7.991,1,1
139lbgvav4jcfzknxfmlub08,8,0,a53,0,1.0,0.0,14.97,1,1
139lbgvav4jcfzknxfmlub08,9,0,a55,1,2.0,0.0,6.308,1,1
13gajqrkpjsrb8clh6e4in64,1,0,a11,4,4.0,1.0,11.232,1,1
13gajqrkpjsrb8clh6e4in64,2,0,a24,4,4.0,1.0,14.785,1,1
13gajqrkpjsrb8clh6e4in64,3,0,a28,7,7.0,1.0,19.568,1,1
13gajqrkpjsrb8clh6e4in64,4,0,a36,1,2.0,0.0,18.946,1,1
13gajqrkpjsrb8clh6e4in64,5,0,a43,4,6.0,0.0,19.811,1,1
13gajqrkpjsrb8clh6e4in64,6,0,a48,5,5.0,1.0,7.929,1,1
13gajqrkpjsrb8clh6e4in64,7,0,a49,6,2.0,0.0,5.119,1,1
13gajqrkpjsrb8clh6e4in64,8,0,a53,0,6.0,0.0,7.45,1,1
13gajqrkpjsrb8clh6e4in64,9,0,a55,1,0.0,0.0,7.748,1,1
13kmwisbf7pviwwyqawica1b,1,0,a11,4,4.0,1.0,9.758,1,1
13kmwisbf7pviwwyqawica1b,2,0,a24,4,1.0,0.0,9.078,1,1
13kmwisbf7pviwwyqawica1b,3,0,a28,7,7.0,1.0,8.799,1,1
13kmwisbf7pviwwyqawica1b,4,0,a36,1,1.0,1.0,15.9,1,1
13kmwisbf7pviwwyqawica1b,5,0,a43,4,3.0,0.0,15.933,1,1
13kmwisbf7pviwwyqawica1b,6,0,a48,5,6.0,0.0,11.196,1,1
13kmwisbf7pviwwyqawica1b,7,0,a49,6,6.0,1.0,6.233,1,1
13kmwisbf7pviwwyqawica1b,8,0,a53,0,0.0,1.0,22.577,1,1
13kmwisbf7pviwwyqawica1b,9,0,a55,1,6.0,0.0,12.586,1,1
14w4fc6l0k2wuwp8vom5jymw,1,0,a11,4,4.0,1.0,12.717,1,1
14w4fc6l0k2wuwp8vom5jymw,2,0,a24,4,4.0,1.0,11.025,1,1
14w4fc6l0k2wuwp8vom5jymw,3,0,a28,7,7.0,1.0,9.246,1,1
14w4fc6l0k2wuwp8vom5jymw,4,0,a36,1,1.0,1.0,25.709,1,1
14w4fc6l0k2wuwp8vom5jymw,5,0,a43,4,4.0,1.0,12.407,1,1
14w4fc6l0k2wuwp8vom5jymw,6,0,a48,5,5.0,1.0,22.405,1,1
14w4fc6l0k2wuwp8vom5jymw,7,0,a49,6,6.0,1.0,8.63,1,1
14w4fc6l0k2wuwp8vom5jymw,8,0,a53,0,0.0,1.0,6.713,1,1
14w4fc6l0k2wuwp8vom5jymw,9,0,a55,1,5.0,0.0,29.625,1,1
16r587c254747psrx93n4r9k,1,0,a11,4,2.0,0.0,10.477,1,1
16r587c254747psrx93n4r9k,2,0,a24,4,4.0,1.0,13.849,1,1
16r587c254747psrx93n4r9k,3,0,a28,7,7.0,1.0,17.523,1,1
16r587c254747psrx93n4r9k,4,0,a36,1,2.0,0.0,14.776,1,1
16r587c254747psrx93n4r9k,5,0,a43,4,4.0,1.0,18.185,1,1
16r587c254747psrx93n4r9k,6,0,a48,5,1.0,0.0,22.523,1,1
16r587c254747psrx93n4r9k,7,0,a49,6,6.0,1.0,12.32,1,1
16r587c254747psrx93n4r9k,8,0,a53,0,3.0,0.0,15.311,1,1
16r587c254747psrx93n4r9k,9,0,a55,1,6.0,0.0,20.997,1,1
1be65lu7yhotwchl8gvst0jl,1,0,a11,4,4.0,1.0,13.116,1,1
1be65lu7yhotwchl8gvst0jl,2,0,a24,4,4.0,1.0,16.293,1,1
1be65lu7yhotwchl8gvst0jl,3,0,a28,7,7.0,1.0,10.987,1,1
1be65lu7yhotwchl8gvst0jl,4,0,a36,1,2.0,0.0,16.448,1,1
1be65lu7yhotwchl8gvst0jl,5,0,a43,4,4.0,1.0,25.768,1,1
1be65lu7yhotwchl8gvst0jl,6,0,a48,5,1.0,0.0,14.384,1,1
1be65lu7yhotwchl8gvst0jl,7,0,a49,6,2.0,0.0,7.558,1,1
1be65lu7yhotwchl8gvst0jl,8,0,a53,0,0.0,1.0,5.368,1,1
1be65lu7yhotwchl8gvst0jl,9,0,a55,1,2.0,0.0,24.631,1,1
1cmg7lirmlytme6rm23kfrkx,1,0,a11,4,4.0,1.0,6.899,1,1
1cmg7lirmlytme6rm23kfrkx,2,0,a24,4,0.0,0.0,8.558,1,1
1cmg7lirmlytme6rm23kfrkx,3,0,a28,7,7.0,1.0,6.366,1,1
1cmg7lirmlytme6rm23kfrkx,4,0,a36,1,1.0,1.0,6.862,1,1
1cmg7lirmlytme6rm23kfrkx,5,0,a43,4,7.0,0.0,15.772,1,1
1cmg7lirmlytme6rm23kfrkx,6,0,a48,5,1.0,0.0,12.668,1,1
1cmg7lirmlytme6rm23kfrkx,7,0,a49,6,6.0,1.0,9.55,1,1
1cmg7lirmlytme6rm23kfrkx,8,0,a53,0,6.0,0.0,6.085,1,1
1cmg7lirmlytme6rm23kfrkx,9,0,a55,1,6.0,0.0,9.27,1,1
1du2rpx4zm9oyr4l38kx9gda,1,0,a11,4,5.0,0.0,8.792,1,1
1du2rpx4zm9oyr4l38kx9gda,2,0,a24,4,4.0,1.0,16.278,1,1
1du2rpx4zm9oyr4l38kx9gda,3,0,a28,7,7.0,1.0,12.056,1,1
1du2rpx4zm9oyr4l38kx9gda,4,0,a36,1,0.0,0.0,9.285,1,1
1du2rpx4zm9oyr4l38kx9gda,5,0,a43,4,4.0,1.0,7.265,1,1
1du2rpx4zm9oyr4l38kx9gda,6,0,a48,5,7.0,0.0,4.512,1,1
1du2rpx4zm9oyr4l38kx9gda,7,0,a49,6,6.0,1.0,7.339,1,1
1du2rpx4zm9oyr4l38kx9gda,8,0,a53,0,3.0,0.0,4.428,1,1
1du2rpx4zm9oyr4l38kx9gda,9,0,a55,1,3.0,0.0,7.068,1,1
1fb39af23lxd5zvebkgzvjtq,1,0,a11,4,5.0,0.0,15.783,1,1
1fb39af23lxd5zvebkgzvjtq,2,0,a24,4,4.0,1.0,16.563,1,1
1fb39af23lxd5zvebkgzvjtq,3,0,a28,7,7.0,1.0,9.433,1,1
1fb39af23lxd5zvebkgzvjtq,4,0,a36,1,3.0,0.0,17.442,1,1
1fb39af23lxd5zvebkgzvjtq,5,0,a43,4,4.0,1.0,15.168,1,1
1fb39af23lxd5zvebkgzvjtq,6,0,a48,5,6.0,0.0,22.837,1,1
1fb39af23lxd5zvebkgzvjtq,7,0,a49,6,6.0,1.0,7.179,1,1
1fb39af23lxd5zvebkgzvjtq,8,0,a53,0,0.0,1.0,14.757,1,1
1fb39af23lxd5zvebkgzvjtq,9,0,a55,1,3.0,0.0,8.586,1,1
1oumhgderehwi04x4afr4t3f,1,0,a11,4,0.0,0.0,12.567,1,1
1oumhgderehwi04x4afr4t3f,2,0,a24,4,4.0,1.0,12.89,1,1
1oumhgderehwi04x4afr4t3f,3,0,a28,7,3.0,0.0,12.701,1,1
1oumhgderehwi04x4afr4t3f,4,0,a36,1,2.0,0.0,28.195,1,1
1oumhgderehwi04x4afr4t3f,5,0,a43,4,7.0,0.0,4.29,1,1
1oumhgderehwi04x4afr4t3f,6,0,a48,5,4.0,0.0,13.345,1,1
1oumhgderehwi04x4afr4t3f,7,0,a49,6,2.0,0.0,9.434,1,1
1oumhgderehwi04x4afr4t3f,8,0,a53,0,6.0,0.0,11.292,1,1
1oumhgderehwi04x4afr4t3f,9,0,a55,1,2.0,0.0,15.208,1,1
1rkzphe3y3v1tllwtrrmws3g,1,0,a11,4,4.0,1.0,21.194,1,1
1rkzphe3y3v1tllwtrrmws3g,2,0,a24,4,4.0,1.0,25.796,1,1
1rkzphe3y3v1tllwtrrmws3g,3,0,a28,7,7.0,1.0,17.514,1,1
1rkzphe3y3v1tllwtrrmws3g,4,0,a36,1,4.0,0.0,28.934,1,1
1rkzphe3y3v1tllwtrrmws3g,5,0,a43,4,4.0,1.0,16.613,1,1
1rkzphe3y3v1tllwtrrmws3g,6,0,a48,5,7.0,0.0,29.898,1,1
1rkzphe3y3v1tllwtrrmws3g,7,0,a49,6,6.0,1.0,11.323,1,1
1rkzphe3y3v1tllwtrrmws3g,8,0,a53,0,0.0,1.0,22.468,1,1
1rkzphe3y3v1tllwtrrmws3g,9,0,a55,1,6.0,0.0,22.061,1,1
1rtooz9lw59r3sgm2l6iax13,1,0,a11,4,4.0,1.0,14.364,1,1
1rtooz9lw59r3sgm2l6iax13,2,0,a24,4,5.0,0.0,26.727,1,1
1rtooz9lw59r3sgm2l6iax13,3,0,a28,7,7.0,1.0,24.325,1,1
1rtooz9lw59r3sgm2l6iax13,4,0,a36,1,7.0,0.0,29.963,1,1
1rtooz9lw59r3sgm2l6iax13,5,0,a43,4,4.0,1.0,17.57,1,1
1rtooz9lw59r3sgm2l6iax13,6,0,a48,5,4.0,0.0,18.1,1,1
1rtooz9lw59r3sgm2l6iax13,7,0,a49,6,6.0,1.0,7.955,1,1
1rtooz9lw59r3sgm2l6iax13,8,0,a53,0,0.0,1.0,13.223,1,1
1rtooz9lw59r3sgm2l6iax13,9,0,a55,1,0.0,0.0,18.079,1,1
21s8bcxjtrmpr5531dcl1nks,1,0,a11,4,4.0,1.0,8.917,1,1
21s8bcxjtrmpr5531dcl1nks,2,0,a24,4,4.0,1.0,10.745,1,1
21s8bcxjtrmpr5531dcl1nks,3,0,a28,7,2.0,0.0,9.258,1,1
21s8bcxjtrmpr5531dcl1nks,4,0,a36,1,5.0,0.0,16.803,1,1
21s8bcxjtrmpr5531dcl1nks,5,0,a43,4,6.0,0.0,10.024,1,1
21s8bcxjtrmpr5531dcl1nks,6,0,a48,5,1.0,0.0,8.0,1,1
21s8bcxjtrmpr5531dcl1nks,7,0,a49,6,4.0,0.0,6.719,1,1
21s8bcxjtrmpr5531dcl1nks,8,0,a53,0,3.0,0.0,5.36,1,1
21s8bcxjtrmpr5531dcl1nks,9,0,a55,1,6.0,0.0,3.577,1,1
25ag8leq4xte4p6bd5mc76en,1,0,a11,4,4.0,1.0,7.727,1,1
25ag8leq4xte4p6bd5mc76en,2,0,a24,4,3.0,0.0,7.645,1,1
25ag8leq4xte4p6bd5mc76en,3,0,a28,7,7.0,1.0,3.454,1,1
25ag8leq4xte4p6bd5mc76en,4,0,a36,1,5.0,0.0,6.612,1,1
25ag8leq4xte4p6bd5mc76en,5,0,a43,4,4.0,1.0,13.53,1,1
25ag8leq4xte4p6bd5mc76en,6,0,a48,5,0.0,0.0,4.362,1,1
25ag8leq4xte4p6bd5mc76en,7,0,a49,6,6.0,1.0,4.717,1,1
25ag8leq4xte4p6bd5mc76en,8,0,a53,0,3.0,0.0,5.469,1,1
25ag8leq4xte4p6bd5mc76en,9,0,a55,1,6.0,0.0,2.599,1,1
2a49tpjstnyonnrf4g8koc0m,1,0,a11,4,0.0,0.0,6.962,1,1
2a49tpjstnyonnrf4g8koc0m,2,0,a24,4,4.0,1.0,6.45,1,1
2a49tpjstnyonnrf4g8koc0m,3,0,a28,7,3.0,0.0,10.993,1,1
2a49tpjstnyonnrf4g8koc0m,4,0,a36,1,0.0,0.0,9.988,1,1
2a49tpjstnyonnrf4g8koc0m,5,0,a43,4,4.0,1.0,13.742,1,1
2a49tpjstnyonnrf4g8koc0m,6,0,a48,5,6.0,0.0,11.477,1,1
2a49tpjstnyonnrf4g8koc0m,7,0,a49,6,6.0,1.0,10.292,1,1
2a49tpjstnyonnrf4g8koc0m,8,0,a53,0,6.0,0.0,8.256,1,1
2a49tpjstnyonnrf4g8koc0m,9,0,a55,1,7.0,0.0,11.086,1,1
2ajy8k3cd8e5h9puf8o17lyo,1,0,a11,4,4.0,1.0,14.027,1,1
2ajy8k3cd8e5h9puf8o17lyo,2,0,a24,4,4.0,1.0,9.303,1,1
2ajy8k3cd8e5h9puf8o17lyo,3,0,a28,7,7.0,1.0,5.37,1,1
2ajy8k3cd8e5h9puf8o17lyo,4,0,a36,1,1.0,1.0,8.013,1,1
2ajy8k3cd8e5h9puf8o17lyo,5,0,a43,4,4.0,1.0,27.01,1,1
2ajy8k3cd8e5h9puf8o17lyo,6,0,a48,5,5.0,1.0,27.902,1,1
2ajy8k3cd8e5h9puf8o17lyo,7,0,a49,6,6.0,1.0,3.751,1,1
2ajy8k3cd8e5h9puf8o17lyo,8,0,a53,0,0.0,1.0,4.764,1,1
2ajy8k3cd8e5h9puf8o17lyo,9,0,a55,1,,,,1,1
2doyyzx80ym5y1nn9cuc5dgg,1,0,a11,4,4.0,1.0,18.192,1,1
2doyyzx80ym5y1nn9cuc5dgg,2,0,a24,4,4.0,1.0,13.448,1,1
2doyyzx80ym5y1nn9cuc5dgg,3,0,a28,7,7.0,1.0,8.562,1,1
2doyyzx80ym5y1nn9cuc5dgg,4,0,a36,1,2.0,0.0,13.306,1,1
2doyyzx80ym5y1nn9cuc5dgg,5,0,a43,4,4.0,1.0,10.57,1,1
2doyyzx80ym5y1nn9cuc5dgg,6,0,a48,5,3.0,0.0,20.682,1,1
2doyyzx80ym5y1nn9cuc5dgg,7,0,a49,6,6.0,1.0,5.284,1,1
2doyyzx80ym5y1nn9cuc5dgg,8,0,a53,0,0.0,1.0,16.69,1,1
2doyyzx80ym5y1nn9cuc5dgg,9,0,a55,1,2.0,0.0,12.953,1,1
2fdg3adknlqvzqcaveryv2f4,1,0,a11,4,4.0,1.0,14.791,1,1
2fdg3adknlqvzqcaveryv2f4,2,0,a24,4,4.0,1.0,7.682,1,1
2fdg3adknlqvzqcaveryv2f4,3,0,a28,7,7.0,1.0,10.057,1,1
2fdg3adknlqvzqcaveryv2f4,4,0,a36,1,5.0,0.0,15.203,1,1
2fdg3adknlqvzqcaveryv2f4,5,0,a43,4,4.0,1.0,16.489,1,1
2fdg3adknlqvzqcaveryv2f4,6,0,a48,5,5.0,1.0,23.847,1,1
2fdg3adknlqvzqcaveryv2f4,7,0,a49,6,0.0,0.0,22.732,1,1
2fdg3adknlqvzqcaveryv2f4,8,0,a53,0,2.0,0.0,21.715,1,1
2fdg3adknlqvzqcaveryv2f4,9,0,a55,1,6.0,0.0,13.706,1,1
2hpq13v4pj9yflupdr03my7p,1,0,a11,4,5.0,0.0,5.889,1,1
2hpq13v4pj9yflupdr03my7p,2,0,a24,4,5.0,0.0,4.021,1,1
2hpq13v4pj9yflupdr03my7p,3,0,a28,7,7.0,1.0,4.818,1,1
2hpq13v4pj9yflupdr03my7p,4,0,a36,1,2.0,0.0,6.451,1,1
2hpq13v4pj9yflupdr03my7p,5,0,a43,4,4.0,1.0,7.769,1,1
2hpq13v4pj9yflupdr03my7p,6,0,a48,5,0.0,0.0,5.079,1,1
2hpq13v4pj9yflupdr03my7p,7,0,a49,6,6.0,1.0,5.644,1,1
2hpq13v4pj9yflupdr03my7p,8,0,a53,0,6.0,0.0,5.511,1,1
2hpq13v4pj9yflupdr03my7p,9,0,a55,1,6.0,0.0,3.157,1,1
2imrcuofmk3r36n5luaqtkof,1,0,a11,4,0.0,0.0,5.382,1,1
2imrcuofmk3r36n5luaqtkof,2,0,a24,4,4.0,1.0,4.476,1,1
2imrcuofmk3r36n5luaqtkof,3,0,a28,7,7.0,1.0,7.674,1,1
2imrcuofmk3r36n5luaqtkof,4,0,a36,1,2.0,0.0,5.982,1,1
2imrcuofmk3r36n5luaqtkof,5,0,a43,4,4.0,1.0,23.421,1,1
2imrcuofmk3r36n5luaqtkof,6,0,a48,5,5.0,1.0,23.109,1,1
2imrcuofmk3r36n5luaqtkof,7,0,a49,6,6.0,1.0,12.861,1,1
2imrcuofmk3r36n5luaqtkof,8,0,a53,0,0.0,1.0,7.38,1,1
2imrcuofmk3r36n5luaqtkof,9,0,a55,1,5.0,0.0,29.108,1,1
2jlme8pijrvlpefy54ynuym2,1,0,a11,4,4.0,1.0,13.97,1,1
2jlme8pijrvlpefy54ynuym2,2,0,a24,4,4.0,1.0,16.558,1,1
2jlme8pijrvlpefy54ynuym2,3,0,a28,7,2.0,0.0,9.47,1,1
2jlme8pijrvlpefy54ynuym2,4,0,a36,1,2.0,0.0,16.305,1,1
2jlme8pijrvlpefy54ynuym2,5,0,a43,4,4.0,1.0,17.15,1,1
2jlme8pijrvlpefy54ynuym2,6,0,a48,5,6.0,0.0,28.195,1,1
2jlme8pijrvlpefy54ynuym2,7,0,a49,6,6.0,1.0,8.661,1,1
2jlme8pijrvlpefy54ynuym2,8,0,a53,0,0.0,1.0,13.135,1,1
2jlme8pijrvlpefy54ynuym2,9,0,a55,1,3.0,0.0,24.732,1,1
2lv7bshw3ztkhd2hpg8vy7ls,1,0,a11,4,0.0,0.0,9.094,1,1
2lv7bshw3ztkhd2hpg8vy7ls,2,0,a24,4,5.0,0.0,13.809,1,1
2lv7bshw3ztkhd2hpg8vy7ls,3,0,a28,7,3.0,0.0,21.187,1,1
2lv7bshw3ztkhd2hpg8vy7ls,4,0,a36,1,3.0,0.0,15.777,1,1
2lv7bshw3ztkhd2hpg8vy7ls,5,0,a43,4,4.0,1.0,16.861,1,1
2lv7bshw3ztkhd2hpg8vy7ls,6,0,a48,5,4.0,0.0,14.243,1,1
2lv7bshw3ztkhd2hpg8vy7ls,7,0,a49,6,6.0,1.0,8.21,1,1
2lv7bshw3ztkhd2hpg8vy7ls,8,0,a53,0,0.0,1.0,19.474,1,1
2lv7bshw3ztkhd2hpg8vy7ls,9,0,a55,1,1.0,1.0,8.853,1,1
2p6npsmiutpl2uy7hh6cmuqp,1,0,a11,4,1.0,0.0,7.791,1,1
2p6npsmiutpl2uy7hh6cmuqp,2,0,a24,4,4.0,1.0,6.31,1,1
2p6npsmiutpl2uy7hh6cmuqp,3,0,a28,7,3.0,0.0,6.396,1,1
2p6npsmiutpl2uy7hh6cmuqp,4,0,a36,1,4.0,0.0,10.901,1,1
2p6npsmiutpl2uy7hh6cmuqp,5,0,a43,4,4.0,1.0,8.005,1,1
2p6npsmiutpl2uy7hh6cmuqp,6,0,a48,5,5.0,1.0,15.008,1,1
2p6npsmiutpl2uy7hh6cmuqp,7,0,a49,6,6.0,1.0,9.742,1,1
2p6npsmiutpl2uy7hh6cmuqp,8,0,a53,0,0.0,1.0,6.928,1,1
2p6npsmiutpl2uy7hh6cmuqp,9,0,a55,1,4.0,0.0,19.507,1,1
2u17wfoovfto4iks011dibw7,1,0,a11,4,4.0,1.0,15.526,1,1
2u17wfoovfto4iks011dibw7,2,0,a24,4,0.0,0.0,12.689,1,1
2u17wfoovfto4iks011dibw7,3,0,a28,7,7.0,1.0,7.305,1,1
2u17wfoovfto4iks011dibw7,4,0,a36,1,2.0,0.0,9.69,1,1
2u17wfoovfto4iks011dibw7,5,0,a43,4,4.0,1.0,9.226,1,1
2u17wfoovfto4iks011dibw7,6,0,a48,5,5.0,1.0,18.614,1,1
2u17wfoovfto4iks011dibw7,7,0,a49,6,6.0,1.0,2.938,1,1
2u17wfoovfto4iks011dibw7,8,0,a53,0,0.0,1.0,7.642,1,1
2u17wfoovfto4iks011dibw7,9,0,a55,1,0.0,0.0,16.578,1,1
2ydcu5breoenaqer3phmkei3,1,0,a11,4,4.0,1.0,6.482,1,1
2ydcu5breoenaqer3phmkei3,2,0,a24,4,4.0,1.0,5.365,1,1
2ydcu5breoenaqer3phmkei3,3,0,a28,7,7.0,1.0,13.216,1,1
2ydcu5breoenaqer3phmkei3,4,0,a36,1,3.0,0.0,8.555,1,1
2ydcu5breoenaqer3phmkei3,5,0,a43,4,4.0,1.0,10.33,1,1
2ydcu5breoenaqer3phmkei3,6,0,a48,5,1.0,0.0,11.809,1,1
2ydcu5breoenaqer3phmkei3,7,0,a49,6,6.0,1.0,5.975,1,1
2ydcu5breoenaqer3phmkei3,8,0,a53,0,0.0,1.0,7.339,1,1
2ydcu5breoenaqer3phmkei3,9,0,a55,1,1.0,1.0,12.409,1,1
34q529ick0oof6247bs0lo4f,1,0,a11,4,0.0,0.0,7.581,1,1
34q529ick0oof6247bs0lo4f,2,0,a24,4,4.0,1.0,16.71,1,1
34q529ick0oof6247bs0lo4f,3,0,a28,7,7.0,1.0,15.478,1,1
34q529ick0oof6247bs0lo4f,4,0,a36,1,0.0,0.0,10.527,1,1
34q529ick0oof6247bs0lo4f,5,0,a43,4,2.0,0.0,16.574,1,1
34q529ick0oof6247bs0lo4f,6,0,a48,5,0.0,0.0,0.835,1,1
34q529ick0oof6247bs0lo4f,7,0,a49,6,7.0,0.0,0.631,1,1
34q529ick0oof6247bs0lo4f,8,0,a53,0,5.0,0.0,0.666,1,1
34q529ick0oof6247bs0lo4f,9,0,a55,1,3.0,0.0,1.207,1,1
36t8q1lrjomfk5vzpk6n47vp,1,0,a11,4,3.0,0.0,9.744,1,1
36t8q1lrjomfk5vzpk6n47vp,2,0,a24,4,5.0,0.0,6.766,1,1
36t8q1lrjomfk5vzpk6n47vp,3,0,a28,7,7.0,1.0,8.477,1,1
36t8q1lrjomfk5vzpk6n47vp,4,0,a36,1,2.0,0.0,17.442,1,1
36t8q1lrjomfk5vzpk6n47vp,5,0,a43,4,4.0,1.0,21.576,1,1
36t8q1lrjomfk5vzpk6n47vp,6,0,a48,5,3.0,0.0,10.127,1,1
36t8q1lrjomfk5vzpk6n47vp,7,0,a49,6,6.0,1.0,10.271,1,1
36t8q1lrjomfk5vzpk6n47vp,8,0,a53,0,2.0,0.0,5.682,1,1
36t8q1lrjomfk5vzpk6n47vp,9,0,a55,1,3.0,0.0,3.61,1,1
39scl9qfis739lutin4aqgmb,1,0,a11,4,4.0,1.0,14.129,1,1
39scl9qfis739lutin4aqgmb,2,0,a24,4,4.0,1.0,26.779,1,1
39scl9qfis739lutin4aqgmb,3,0,a28,7,7.0,1.0,8.424,1,1
39scl9qfis739lutin4aqgmb,4,0,a36,1,0.0,0.0,28.49,1,1
39scl9qfis739lutin4aqgmb,5,0,a43,4,4.0,1.0,18.477,1,1
39scl9qfis739lutin4aqgmb,6,0,a48,5,5.0,1.0,27.669,1,1
39scl9qfis739lutin4aqgmb,7,0,a49,6,2.0,0.0,8.211,1,1
39scl9qfis739lutin4aqgmb,8,0,a53,0,0.0,1.0,11.925,1,1
39scl9qfis739lutin4aqgmb,9,0,a55,1,2.0,0.0,21.457,1,1
3e7cz5hxxfnf3x2mbqolf9yf,1,0,a11,4,5.0,0.0,4.974,1,1
3e7cz5hxxfnf3x2mbqolf9yf,2,0,a24,4,1.0,0.0,3.092,1,1
3e7cz5hxxfnf3x2mbqolf9yf,3,0,a28,7,3.0,0.0,7.472,1,1
3e7cz5hxxfnf3x2mbqolf9yf,4,0,a36,1,4.0,0.0,1.663,1,1
3e7cz5hxxfnf3x2mbqolf9yf,5,0,a43,4,7.0,0.0,5.944,1,1
3e7cz5hxxfnf3x2mbqolf9yf,6,0,a48,5,0.0,0.0,2.044,1,1
3e7cz5hxxfnf3x2mbqolf9yf,7,0,a49,6,5.0,0.0,2.327,1,1
3e7cz5hxxfnf3x2mbqolf9yf,8,0,a53,0,3.0,0.0,3.14,1,1
3e7cz5hxxfnf3x2mbqolf9yf,9,0,a55,1,4.0,0.0,1.577,1,1
3qirq7yvv6nh65dyk74q5v8u,1,0,a11,4,4.0,1.0,7.248,1,1
3qirq7yvv6nh65dyk74q5v8u,2,0,a24,4,5.0,0.0,10.694,1,1
3qirq7yvv6nh65dyk74q5v8u,3,0,a28,7,7.0,1.0,5.753,1,1
3qirq7yvv6nh65dyk74q5v8u,4,0,a36,1,1.0,1.0,4.721,1,1
3qirq7yvv6nh65dyk74q5v8u,5,0,a43,4,4.0,1.0,5.274,1,1
3qirq7yvv6nh65dyk74q5v8u,6,0,a48,5,7.0,0.0,8.401,1,1
3qirq7yvv6nh65dyk74q5v8u,7,0,a49,6,0.0,0.0,8.027,1,1
3qirq7yvv6nh65dyk74q5v8u,8,0,a53,0,6.0,0.0,4.896,1,1
3qirq7yvv6nh65dyk74q5v8u,9,0,a55,1,0.0,0.0,6.114,1,1
3qxb0t140zisc43q0a2n502q,1,0,a11,4,4.0,1.0,15.436,1,1
3qxb0t140zisc43q0a2n502q,2,0,a24,4,4.0,1.0,13.656,1,1
3qxb0t140zisc43q0a2n502q,3,0,a28,7,2.0,0.0,16.114,1,1
3qxb0t140zisc43q0a2n502q,4,0,a36,1,2.0,0.0,14.376,1,1
3qxb0t140zisc43q0a2n502q,5,0,a43,4,3.0,0.0,25.683,1,1
3qxb0t140zisc43q0a2n502q,6,0,a48,5,4.0,0.0,26.356,1,1
3qxb0t140zisc43q0a2n502q,7,0,a49,6,6.0,1.0,9.027,1,1
3qxb0t140zisc43q0a2n502q,8,0,a53,0,0.0,1.0,10.386,1,1
3qxb0t140zisc43q0a2n502q,9,0,a55,1,1.0,1.0,21.058,1,1
3z65j3k5x0e6gfdasssf2ddo,1,0,a11,4,4.0,1.0,9.392,1,1
3z65j3k5x0e6gfdasssf2ddo,2,0,a24,4,4.0,1.0,18.582,1,1
3z65j3k5x0e6gfdasssf2ddo,3,0,a28,7,7.0,1.0,12.031,1,1
3z65j3k5x0e6gfdasssf2ddo,4,0,a36,1,2.0,0.0,28.992,1,1
3z65j3k5x0e6gfdasssf2ddo,5,0,a43,4,4.0,1.0,7.448,1,1
3z65j3k5x0e6gfdasssf2ddo,6,0,a48,5,7.0,0.0,16.781,1,1
3z65j3k5x0e6gfdasssf2ddo,7,0,a49,6,6.0,1.0,7.594,1,1
3z65j3k5x0e6gfdasssf2ddo,8,0,a53,0,0.0,1.0,15.9,1,1
3z65j3k5x0e6gfdasssf2ddo,9,0,a55,1,6.0,0.0,26.931,1,1
40z56ogm58dywectjlxx7dnk,1,0,a11,4,4.0,1.0,19.769,1,1
40z56ogm58dywectjlxx7dnk,2,0,a24,4,4.0,1.0,22.431,1,1
40z56ogm58dywectjlxx7dnk,3,0,a28,7,7.0,1.0,8.878,1,1
40z56ogm58dywectjlxx7dnk,4,0,a36,1,,,,1,1
40z56ogm58dywectjlxx7dnk,5,0,a43,4,4.0,1.0,8.56,1,1
40z56ogm58dywectjlxx7dnk,6,0,a48,5,1.0,0.0,12.427,1,1
40z56ogm58dywectjlxx7dnk,7,0,a49,6,6.0,1.0,20.618,1,1
40z56ogm58dywectjlxx7dnk,8,0,a53,0,3.0,0.0,23.202,1,1
40z56ogm58dywectjlxx7dnk,9,0,a55,1,6.0,0.0,20.389,1,1
44r9pt4w07ebq31vmvf8qk26,1,0,a11,4,4.0,1.0,18.525,1,1
44r9pt4w07ebq31vmvf8qk26,2,0,a24,4,4.0,1.0,11.814,1,1
44r9pt4w07ebq31vmvf8qk26,3,0,a28,7,2.0,0.0,11.072,1,1
44r9pt4w07ebq31vmvf8qk26,4,0,a36,1,0.0,0.0,15.696,1,1
44r9pt4w07ebq31vmvf8qk26,5,0,a43,4,4.0,1.0,10.511,1,1
44r9pt4w07ebq31vmvf8qk26,6,0,a48,5,5.0,1.0,16.377,1,1
44r9pt4w07ebq31vmvf8qk26,7,0,a49,6,6.0,1.0,11.907,1,1
44r9pt4w07ebq31vmvf8qk26,8,0,a53,0,0.0,1.0,8.974,1,1
44r9pt4w07ebq31vmvf8qk26,9,0,a55,1,2.0,0.0,9.021,1,1
49ymqsd9j5092q04edq7w6gm,1,0,a11,4,0.0,0.0,12.633,1,1
49ymqsd9j5092q04edq7w6gm,2,0,a24,4,0.0,0.0,5.743,1,1
49ymqsd9j5092q04edq7w6gm,3,0,a28,7,7.0,1.0,11.154,1,1
49ymqsd9j5092q04edq7w6gm,4,0,a36,1,0.0,0.0,18.933,1,1
49ymqsd9j5092q04edq7w6gm,5,0,a43,4,0.0,0.0,6.858,1,1
49ymqsd9j5092q04edq7w6gm,6,0,a48,5,3.0,0.0,26.265,1,1
49ymqsd9j5092q04edq7w6gm,7,0,a49,6,0.0,0.0,6.864,1,1
49ymqsd9j5092q04edq7w6gm,8,0,a53,0,2.0,0.0,12.804,1,1
49ymqsd9j5092q04edq7w6gm,9,0,a55,1,3.0,0.0,9.126,1,1
4befqnrylgwx3gxshaax7hwa,1,0,a11,4,4.0,1.0,10.542,1,1
4befqnrylgwx3gxshaax7hwa,2,0,a24,4,4.0,1.0,13.442,1,1
4befqnrylgwx3gxshaax7hwa,3,0,a28,7,2.0,0.0,5.938,1,1
4befqnrylgwx3gxshaax7hwa,4,0,a36,1,1.0,1.0,14.453,1,1
4befqnrylgwx3gxshaax7hwa,5,0,a43,4,4.0,1.0,9.687,1,1
4befqnrylgwx3gxshaax7hwa,6,0,a48,5,3.0,0.0,16.735,1,1
4befqnrylgwx3gxshaax7hwa,7,0,a49,6,6.0,1.0,6.954,1,1
4befqnrylgwx3gxshaax7hwa,8,0,a53,0,0.0,1.0,5.92,1,1
4befqnrylgwx3gxshaax7hwa,9,0,a55,1,4.0,0.0,16.984,1,1
4lo2jkap3pxbifsbagvf3h7j,1,0,a11,4,4.0,1.0,9.731,1,1
4lo2jkap3pxbifsbagvf3h7j,2,0,a24,4,4.0,1.0,8.325,1,1
4lo2jkap3pxbifsbagvf3h7j,3,0,a28,7,7.0,1.0,8.692,1,1
4lo2jkap3pxbifsbagvf3h7j,4,0,a36,1,2.0,0.0,19.355,1,1
4lo2jkap3pxbifsbagvf3h7j,5,0,a43,4,4.0,1.0,17.603,1,1
4lo2jkap3pxbifsbagvf3h7j,6,0,a48,5,7.0,0.0,24.893,1,1
4lo2jkap3pxbifsbagvf3h7j,7,0,a49,6,6.0,1.0,4.557,1,1
4lo2jkap3pxbifsbagvf3h7j,8,0,a53,0,5.0,0.0,16.66,1,1
4lo2jkap3pxbifsbagvf3h7j,9,0,a55,1,6.0,0.0,21.292,1,1
53974j7lxyjuowqguefl7z1a,1,0,a11,4,4.0,1.0,11.977,1,1
53974j7lxyjuowqguefl7z1a,2,0,a24,4,3.0,0.0,9.757,1,1
53974j7lxyjuowqguefl7z1a,3,0,a28,7,7.0,1.0,9.58,1,1
53974j7lxyjuowqguefl7z1a,4,0,a36,1,5.0,0.0,19.523,1,1
53974j7lxyjuowqguefl7z1a,5,0,a43,4,4.0,1.0,11.06,1,1
53974j7lxyjuowqguefl7z1a,6,0,a48,5,4.0,0.0,28.591,1,1
53974j7lxyjuowqguefl7z1a,7,0,a49,6,6.0,1.0,9.829,1,1
53974j7lxyjuowqguefl7z1a,8,0,a53,0,6.0,0.0,22.423,1,1
53974j7lxyjuowqguefl7z1a,9,0,a55,1,2.0,0.0,23.556,1,1
592yrejax6ir1gz4weqck88p,1,0,a11,4,3.0,0.0,19.109,1,1
592yrejax6ir1gz4weqck88p,2,0,a24,4,4.0,1.0,10.487,1,1
592yrejax6ir1gz4weqck88p,3,0,a28,7,7.0,1.0,13.495,1,1
592yrejax6ir1gz4weqck88p,4,0,a36,1,0.0,0.0,20.522,1,1
592yrejax6ir1gz4weqck88p,5,0,a43,4,4.0,1.0,11.869,1,1
592yrejax6ir1gz4weqck88p,6,0,a48,5,7.0,0.0,11.603,1,1
592yrejax6ir1gz4weqck88p,7,0,a49,6,6.0,1.0,7.769,1,1
592yrejax6ir1gz4weqck88p,8,0,a53,0,0.0,1.0,7.75,1,1
592yrejax6ir1gz4weqck88p,9,0,a55,1,3.0,0.0,10.134,1,1
5dj0z4d9nqg0ibe4b8kmckej,1,0,a11,4,4.0,1.0,20.655,1,1
5dj0z4d9nqg0ibe4b8kmckej,2,0,a24,4,4.0,1.0,11.539,1,1
5dj0z4d9nqg0ibe4b8kmckej,3,0,a28,7,7.0,1.0,14.678,1,1
5dj0z4d9nqg0ibe4b8kmckej,4,0,a36,1,1.0,1.0,18.45,1,1
5dj0z4d9nqg0ibe4b8kmckej,5,0,a43,4,4.0,1.0,11.067,1,1
5dj0z4d9nqg0ibe4b8kmckej,6,0,a48,5,,,,1,1
5dj0z4d9nqg0ibe4b8kmckej,7,0,a49,6,6.0,1.0,16.125,1,1
5dj0z4d9nqg0ibe4b8kmckej,8,0,a53,0,0.0,1.0,13.245,1,1
5dj0z4d9nqg0ibe4b8kmckej,9,0,a55,1,7.0,0.0,29.492,1,1
5dx4h0naks6kja60m6uaz1tb,1,0,a11,4,3.0,0.0,17.684,1,1
5dx4h0naks6kja60m6uaz1tb,2,0,a24,4,4.0,1.0,15.432,1,1
5dx4h0naks6kja60m6uaz1tb,3,0,a28,7,7.0,1.0,25.353,1,1
5dx4h0naks6kja60m6uaz1tb,4,0,a36,1,2.0,0.0,28.406,1,1
5dx4h0naks6kja60m6uaz1tb,5,0,a43,4,4.0,1.0,19.366,1,1
5dx4h0naks6kja60m6uaz1tb,6,0,a48,5,5.0,1.0,28.36,1,1
5dx4h0naks6kja60m6uaz1tb,7,0,a49,6,2.0,0.0,12.118,1,1
5dx4h0naks6kja60m6uaz1tb,8,0,a53,0,4.0,0.0,26.581,1,1
5dx4h0naks6kja60m6uaz1tb,9,0,a55,1,4.0,0.0,27.615,1,1
5hkcy0mklyxzr30zle6x8z6x,1,0,a11,4,0.0,0.0,7.696,1,1
5hkcy0mklyxzr30zle6x8z6x,2,0,a24,4,3.0,0.0,10.351,1,1
5hkcy0mklyxzr30zle6x8z6x,3,0,a28,7,2.0,0.0,13.551,1,1
5hkcy0mklyxzr30zle6x8z6x,4,0,a36,1,1.0,1.0,16.768,1,1
5hkcy0mklyxzr30zle6x8z6x,5,0,a43,4,4.0,1.0,9.101,1,1
5hkcy0mklyxzr30zle6x8z6x,6,0,a48,5,2.0,0.0,10.074,1,1
5hkcy0mklyxzr30zle6x8z6x,7,0,a49,6,6.0,1.0,6.643,1,1
5hkcy0mklyxzr30zle6x8z6x,8,0,a53,0,3.0,0.0,5.33,1,1
5hkcy0mklyxzr30zle6x8z6x,9,0,a55,1,5.0,0.0,8.486,1,1
5jyqnu1ltb66722yzsldztcv,1,0,a11,4,4.0,1.0,17.521,1,1
5jyqnu1ltb66722yzsldztcv,2,0,a24,4,4.0,1.0,13.464,1,1
5jyqnu1ltb66722yzsldztcv,3,0,a28,7,7.0,1.0,16.087,1,1
5jyqnu1ltb66722yzsldztcv,4,0,a36,1,2.0,0.0,21.127,1,1
5jyqnu1ltb66722yzsldztcv,5,0,a43,4,4.0,1.0,13.136,1,1
5jyqnu1ltb66722yzsldztcv,6,0,a48,5,6.0,0.0,19.199,1,1
5jyqnu1ltb66722yzsldztcv,7,0,a49,6,2.0,0.0,9.121,1,1
5jyqnu1ltb66722yzsldztcv,8,0,a53,0,0.0,1.0,5.671,1,1
5jyqnu1ltb66722yzsldztcv,9,0,a55,1,6.0,0.0,24.281,1,1
5kb0irmr7ooel5ao0qydjbc2,1,0,a11,4,5.0,0.0,9.567,1,1
5kb0irmr7ooel5ao0qydjbc2,2,0,a24,4,5.0,0.0,12.635,1,1
5kb0irmr7ooel5ao0qydjbc2,3,0,a28,7,7.0,1.0,15.522,1,1
5kb0irmr7ooel5ao0qydjbc2,4,0,a36,1,0.0,0.0,13.507,1,1
5kb0irmr7ooel5ao0qydjbc2,5,0,a43,4,2.0,0.0,17.082,1,1
5kb0irmr7ooel5ao0qydjbc2,6,0,a48,5,4.0,0.0,14.836,1,1
5kb0irmr7ooel5ao0qydjbc2,7,0,a49,6,6.0,1.0,12.025,1,1
5kb0irmr7ooel5ao0qydjbc2,8,0,a53,0,2.0,0.0,6.347,1,1
5kb0irmr7ooel5ao0qydjbc2,9,0,a55,1,3.0,0.0,10.573,1,1
5lhsgo4nsy5chl7poenx8glj,1,0,a11,4,4.0,1.0,9.554,0,1
5lhsgo4nsy5chl7poenx8glj,2,0,a24,4,5.0,0.0,15.402,0,1
5lhsgo4nsy5chl7poenx8glj,3,0,a28,7,7.0,1.0,2.846,0,1
5lhsgo4nsy5chl7poenx8glj,4,0,a36,1,5.0,0.0,11.268,0,1
5lhsgo4nsy5chl7poenx8glj,5,0,a43,4,4.0,1.0,8.805,0,1
5lhsgo4nsy5chl7poenx8glj,6,0,a48,5,4.0,0.0,12.335,0,1
5lhsgo4nsy5chl7poenx8glj,7,0,a49,6,0.0,0.0,25.717,0,1
5lhsgo4nsy5chl7poenx8glj,8,0,a53,0,3.0,0.0,7.268,0,1
5lhsgo4nsy5chl7poenx8glj,9,0,a55,1,0.0,0.0,1.199,0,1
5nrm5hqpgawjakat3lrpqddc,1,0,a11,4,4.0,1.0,19.0,1,1
5nrm5hqpgawjakat3lrpqddc,2,0,a24,4,4.0,1.0,11.743,1,1
5nrm5hqpgawjakat3lrpqddc,3,0,a28,7,7.0,1.0,8.394,1,1
5nrm5hqpgawjakat3lrpqddc,4,0,a36,1,3.0,0.0,14.041,1,1
5nrm5hqpgawjakat3lrpqddc,5,0,a43,4,,,,1,1
5nrm5hqpgawjakat3lrpqddc,6,0,a48,5,7.0,0.0,13.836,1,1
5nrm5hqpgawjakat3lrpqddc,7,0,a49,6,6.0,1.0,16.218,1,1
5nrm5hqpgawjakat3lrpqddc,8,0,a53,0,0.0,1.0,9.621,1,1
5nrm5hqpgawjakat3lrpqddc,9,0,a55,1,2.0,0.0,11.582,1,1
5z17417xklar8vlhao0hmh81,1,0,a11,4,0.0,0.0,7.144,1,1
5z17417xklar8vlhao0hmh81,2,0,a24,4,4.0,1.0,20.608,1,1
5z17417xklar8vlhao0hmh81,3,0,a28,7,2.0,0.0,9.817,1,1
5z17417xklar8vlhao0hmh81,4,0,a36,1,0.0,0.0,21.176,1,1
5z17417xklar8vlhao0hmh81,5,0,a43,4,4.0,1.0,11.608,1,1
5z17417xklar8vlhao0hmh81,6,0,a48,5,3.0,0.0,15.642,1,1
5z17417xklar8vlhao0hmh81,7,0,a49,6,6.0,1.0,7.139,1,1
5z17417xklar8vlhao0hmh81,8,0,a53,0,0.0,1.0,25.506,1,1
5z17417xklar8vlhao0hmh81,9,0,a55,1,2.0,0.0,10.372,1,1
62z9cnxo71p0docgan22lux0,1,0,a11,4,4.0,1.0,15.424,1,1
62z9cnxo71p0docgan22lux0,2,0,a24,4,4.0,1.0,16.905,1,1
62z9cnxo71p0docgan22lux0,3,0,a28,7,7.0,1.0,7.51,1,1
62z9cnxo71p0docgan22lux0,4,0,a36,1,2.0,0.0,22.637,1,1
62z9cnxo71p0docgan22lux0,5,0,a43,4,7.0,0.0,26.604,1,1
62z9cnxo71p0docgan22lux0,6,0,a48,5,6.0,0.0,16.891,1,1
62z9cnxo71p0docgan22lux0,7,0,a49,6,5.0,0.0,17.186,1,1
62z9cnxo71p0docgan22lux0,8,0,a53,0,0.0,1.0,22.057,1,1
62z9cnxo71p0docgan22lux0,9,0,a55,1,3.0,0.0,25.919,1,1
6315q3o2tcntkglzku9j0t6i,1,0,a11,4,4.0,1.0,27.115,1,1
6315q3o2tcntkglzku9j0t6i,2,0,a24,4,4.0,1.0,10.441,1,1
6315q3o2tcntkglzku9j0t6i,3,0,a28,7,7.0,1.0,7.233,1,1
6315q3o2tcntkglzku9j0t6i,4,0,a36,1,1.0,1.0,15.488,1,1
6315q3o2tcntkglzku9j0t6i,5,0,a43,4,4.0,1.0,10.643,1,1
6315q3o2tcntkglzku9j0t6i,6,0,a48,5,6.0,0.0,27.537,1,1
6315q3o2tcntkglzku9j0t6i,7,0,a49,6,6.0,1.0,8.419,1,1
6315q3o2tcntkglzku9j0t6i,8,0,a53,0,0.0,1.0,15.788,1,1
6315q3o2tcntkglzku9j0t6i,9,0,a55,1,7.0,0.0,22.891,1,1
63cb08yaktqmqkixxkihvnm1,1,0,a11,4,0.0,0.0,4.263,1,1
63cb08yaktqmqkixxkihvnm1,2,0,a24,4,1.0,0.0,7.434,1,1
63cb08yaktqmqkixxkihvnm1,3,0,a28,7,7.0,1.0,4.741,1,1
63cb08yaktqmqkixxkihvnm1,4,0,a36,1,2.0,0.0,12.434,1,1
63cb08yaktqmqkixxkihvnm1,5,0,a43,4,4.0,1.0,5.945,1,1
63cb08yaktqmqkixxkihvnm1,6,0,a48,5,1.0,0.0,4.467,1,1
63cb08yaktqmqkixxkihvnm1,7,0,a49,6,6.0,1.0,4.177,1,1
63cb08yaktqmqkixxkihvnm1,8,0,a53,0,0.0,1.0,4.547,1,1
63cb08yaktqmqkixxkihvnm1,9,0,a55,1,6.0,0.0,16.551,1,1
63wltpnt09pspfun4z637ooz,1,0,a11,4,4.0,1.0,4.46,1,1
63wltpnt09pspfun4z637ooz,2,0,a24,4,2.0,0.0,3.475,1,1
63wltpnt09pspfun4z637ooz,3,0,a28,7,7.0,1.0,2.427,1,1
63wltpnt09pspfun4z637ooz,4,0,a36,1,4.0,0.0,1.344,1,1
63wltpnt09pspfun4z637ooz,5,0,a43,4,1.0,0.0,1.62,1,1
63wltpnt09pspfun4z637ooz,6,0,a48,5,3.0,0.0,1.315,1,1
63wltpnt09pspfun4z637ooz,7,0,a49,6,2.0,0.0,1.243,1,1
63wltpnt09pspfun4z637ooz,8,0,a53,0,4.0,0.0,1.342,1,1
63wltpnt09pspfun4z637ooz,9,0,a55,1,4.0,0.0,1.423,1,1
64l3mcrhtvft9ihly8wv8qil,1,0,a11,4,4.0,1.0,13.008,1,1
64l3mcrhtvft9ihly8wv8qil,2,0,a24,4,4.0,1.0,12.977,1,1
64l3mcrhtvft9ihly8wv8qil,3,0,a28,7,3.0,0.0,10.652,1,1
64l3mcrhtvft9ihly8wv8qil,4,0,a36,1,2.0,0.0,18.969,1,1
64l3mcrhtvft9ihly8wv8qil,5,0,a43,4,,,,1,1
64l3mcrhtvft9ihly8wv8qil,6,0,a48,5,6.0,0.0,27.566,1,1
64l3mcrhtvft9ihly8wv8qil,7,0,a49,6,6.0,1.0,6.969,1,1
64l3mcrhtvft9ihly8wv8qil,8,0,a53,0,6.0,0.0,11.459,1,1
64l3mcrhtvft9ihly8wv8qil,9,0,a55,1,6.0,0.0,10.38,1,1
68eazpfslvdavzm8evtmszpr,1,0,a11,4,2.0,0.0,4.968,1,1
68eazpfslvdavzm8evtmszpr,2,0,a24,4,5.0,0.0,5.322,1,1
68eazpfslvdavzm8evtmszpr,3,0,a28,7,2.0,0.0,11.135,1,1
68eazpfslvdavzm8evtmszpr,4,0,a36,1,2.0,0.0,9.388,1,1
68eazpfslvdavzm8evtmszpr,5,0,a43,4,6.0,0.0,9.154,1,1
68eazpfslvdavzm8evtmszpr,6,0,a48,5,4.0,0.0,4.344,1,1
68eazpfslvdavzm8evtmszpr,7,0,a49,6,6.0,1.0,8.943,1,1
68eazpfslvdavzm8evtmszpr,8,0,a53,0,6.0,0.0,6.119,1,1
68eazpfslvdavzm8evtmszpr,9,0,a55,1,6.0,0.0,7.04,1,1
6aa7cq97dyyx549e15dk59zg,1,0,a11,4,4.0,1.0,7.671,1,1
6aa7cq97dyyx549e15dk59zg,2,0,a24,4,5.0,0.0,3.308,1,1
6aa7cq97dyyx549e15dk59zg,3,0,a28,7,7.0,1.0,2.844,1,1
6aa7cq97dyyx549e15dk59zg,4,0,a36,1,5.0,0.0,3.602,1,1
6aa7cq97dyyx549e15dk59zg,5,0,a43,4,6.0,0.0,12.14,1,1
6aa7cq97dyyx549e15dk59zg,6,0,a48,5,4.0,0.0,8.111,1,1
6aa7cq97dyyx549e15dk59zg,7,0,a49,6,6.0,1.0,11.2,1,1
6aa7cq97dyyx549e15dk59zg,8,0,a53,0,0.0,1.0,9.394,1,1
6aa7cq97dyyx549e15dk59zg,9,0,a55,1,0.0,0.0,7.478,1,1
6dtl8yki6vzq5d9uc5nfytx5,1,0,a11,4,4.0,1.0,12.328,1,1
6dtl8yki6vzq5d9uc5nfytx5,2,0,a24,4,0.0,0.0,13.695,1,1
6dtl8yki6vzq5d9uc5nfytx5,3,0,a28,7,7.0,1.0,14.421,1,1
6dtl8yki6vzq5d9uc5nfytx5,4,0,a36,1,3.0,0.0,26.809,1,1
6dtl8yki6vzq5d9uc5nfytx5,5,0,a43,4,0.0,0.0,15.508,1,1
6dtl8yki6vzq5d9uc5nfytx5,6,0,a48,5,3.0,0.0,16.464,1,1
6dtl8yki6vzq5d9uc5nfytx5,7,0,a49,6,5.0,0.0,14.542,1,1
6dtl8yki6vzq5d9uc5nfytx5,8,0,a53,0,1.0,0.0,5.421,1,1
6dtl8yki6vzq5d9uc5nfytx5,9,0,a55,1,6.0,0.0,8.259,1,1
6f3aa5rt3iprarsp7i9ms0ny,1,0,a11,4,1.0,0.0,11.024,1,1
6f3aa5rt3iprarsp7i9ms0ny,2,0,a24,4,5.0,0.0,6.429,1,1
6f3aa5rt3iprarsp7i9ms0ny,3,0,a28,7,7.0,1.0,20.73,1,1
6f3aa5rt3iprarsp7i9ms0ny,4,0,a36,1,3.0,0.0,13.263,1,1
6f3aa5rt3iprarsp7i9ms0ny,5,0,a43,4,,,,1,1
6f3aa5rt3iprarsp7i9ms0ny,6,0,a48,5,2.0,0.0,5.929,1,1
6f3aa5rt3iprarsp7i9ms0ny,7,0,a49,6,6.0,1.0,2.984,1,1
6f3aa5rt3iprarsp7i9ms0ny,8,0,a53,0,1.0,0.0,5.358,1,1
6f3aa5rt3iprarsp7i9ms0ny,9,0,a55,1,6.0,0.0,1.846,1,1
6m8k1rargwqblxixzy1zwlhn,1,0,a11,4,4.0,1.0,19.492,1,1
6m8k1rargwqblxixzy1zwlhn,2,0,a24,4,4.0,1.0,15.859,1,1
6m8k1rargwqblxixzy1zwlhn,3,0,a28,7,7.0,1.0,10.953,1,1
6m8k1rargwqblxixzy1zwlhn,4,0,a36,1,4.0,0.0,28.044,1,1
6m8k1rargwqblxixzy1zwlhn,5,0,a43,4,1.0,0.0,21.158,1,1
6m8k1rargwqblxixzy1zwlhn,6,0,a48,5,1.0,0.0,20.468,1,1
6m8k1rargwqblxixzy1zwlhn,7,0,a49,6,6.0,1.0,14.508,1,1
6m8k1rargwqblxixzy1zwlhn,8,0,a53,0,0.0,1.0,25.514,1,1
6m8k1rargwqblxixzy1zwlhn,9,0,a55,1,6.0,0.0,22.36,1,1
6tewn839cnn36ucxdaweazal,1,0,a11,4,4.0,1.0,11.596,1,1
6tewn839cnn36ucxdaweazal,2,0,a24,4,4.0,1.0,13.717,1,1
6tewn839cnn36ucxdaweazal,3,0,a28,7,7.0,1.0,17.509,1,1
6tewn839cnn36ucxdaweazal,4,0,a36,1,1.0,1.0,14.677,1,1
6tewn839cnn36ucxdaweazal,5,0,a43,4,4.0,1.0,12.894,1,1
6tewn839cnn36ucxdaweazal,6,0,a48,5,7.0,0.0,28.005,1,1
6tewn839cnn36ucxdaweazal,7,0,a49,6,6.0,1.0,20.597,1,1
6tewn839cnn36ucxdaweazal,8,0,a53,0,0.0,1.0,14.116,1,1
6tewn839cnn36ucxdaweazal,9,0,a55,1,5.0,0.0,25.429,1,1
6um6se1civnig5az9f8ldvdo,1,0,a11,4,4.0,1.0,9.105,0,1
6um6se1civnig5az9f8ldvdo,2,0,a24,4,5.0,0.0,9.788,0,1
6um6se1civnig5az9f8ldvdo,3,0,a28,7,3.0,0.0,17.194,0,1
6um6se1civnig5az9f8ldvdo,4,0,a36,1,2.0,0.0,18.806,0,1
6um6se1civnig5az9f8ldvdo,5,0,a43,4,0.0,0.0,18.27,0,1
6um6se1civnig5az9f8ldvdo,6,0,a48,5,6.0,0.0,13.51,0,1
6um6se1civnig5az9f8ldvdo,7,0,a49,6,6.0,1.0,11.786,0,1
6um6se1civnig5az9f8ldvdo,8,0,a53,0,0.0,1.0,12.522,0,1
6um6se1civnig5az9f8ldvdo,9,0,a55,1,4.0,0.0,22.072,0,1
6uyu2xtlxt3nlox1cex7kuig,1,0,a11,4,0.0,0.0,12.589,1,1
6uyu2xtlxt3nlox1cex7kuig,2,0,a24,4,0.0,0.0,10.465,1,1
6uyu2xtlxt3nlox1cex7kuig,3,0,a28,7,7.0,1.0,11.595,1,1
6uyu2xtlxt3nlox1cex7kuig,4,0,a36,1,2.0,0.0,11.707,1,1
6uyu2xtlxt3nlox1cex7kuig,5,0,a43,4,4.0,1.0,22.132,1,1
6uyu2xtlxt3nlox1cex7kuig,6,0,a48,5,3.0,0.0,27.736,1,1
6uyu2xtlxt3nlox1cex7kuig,7,0,a49,6,6.0,1.0,8.786,1,1
6uyu2xtlxt3nlox1cex7kuig,8,0,a53,0,6.0,0.0,29.223,1,1
6uyu2xtlxt3nlox1cex7kuig,9,0,a55,1,6.0,0.0,7.55,1,1
73j4wrxjp2jnxa5uxvvxi33j,1,0,a11,4,4.0,1.0,6.961,1,1
73j4wrxjp2jnxa5uxvvxi33j,2,0,a24,4,0.0,0.0,5.1,1,1
73j4wrxjp2jnxa5uxvvxi33j,3,0,a28,7,7.0,1.0,8.855,1,1
73j4wrxjp2jnxa5uxvvxi33j,4,0,a36,1,1.0,1.0,14.503,1,1
73j4wrxjp2jnxa5uxvvxi33j,5,0,a43,4,3.0,0.0,13.625,1,1
73j4wrxjp2jnxa5uxvvxi33j,6,0,a48,5,7.0,0.0,12.89,1,1
73j4wrxjp2jnxa5uxvvxi33j,7,0,a49,6,6.0,1.0,5.161,1,1
73j4wrxjp2jnxa5uxvvxi33j,8,0,a53,0,5.0,0.0,25.915,1,1
73j4wrxjp2jnxa5uxvvxi33j,9,0,a55,1,6.0,0.0,8.298,1,1
7d5byancsl8zb92cjxcrj7ol,1,0,a11,4,4.0,1.0,6.389,1,1
7d5byancsl8zb92cjxcrj7ol,2,0,a24,4,4.0,1.0,12.621,1,1
7d5byancsl8zb92cjxcrj7ol,3,0,a28,7,7.0,1.0,7.674,1,1
7d5byancsl8zb92cjxcrj7ol,4,0,a36,1,2.0,0.0,8.888,1,1
7d5byancsl8zb92cjxcrj7ol,5,0,a43,4,0.0,0.0,11.634,1,1
7d5byancsl8zb92cjxcrj7ol,6,0,a48,5,7.0,0.0,13.798,1,1
7d5byancsl8zb92cjxcrj7ol,7,0,a49,6,2.0,0.0,7.97,1,1
7d5byancsl8zb92cjxcrj7ol,8,0,a53,0,0.0,1.0,4.149,1,1
7d5byancsl8zb92cjxcrj7ol,9,0,a55,1,6.0,0.0,9.708,1,1
7hx2rsgv0o3slq9s0g8nm0c9,1,0,a11,4,3.0,0.0,10.172,1,1
7hx2rsgv0o3slq9s0g8nm0c9,2,0,a24,4,5.0,0.0,13.372,1,1
7hx2rsgv0o3slq9s0g8nm0c9,3,0,a28,7,7.0,1.0,9.143,1,1
7hx2rsgv0o3slq9s0g8nm0c9,4,0,a36,1,4.0,0.0,21.42,1,1
7hx2rsgv0o3slq9s0g8nm0c9,5,0,a43,4,4.0,1.0,16.62,1,1
7hx2rsgv0o3slq9s0g8nm0c9,6,0,a48,5,6.0,0.0,23.852,1,1
7hx2rsgv0o3slq9s0g8nm0c9,7,0,a49,6,6.0,1.0,7.022,1,1
7hx2rsgv0o3slq9s0g8nm0c9,8,0,a53,0,1.0,0.0,13.457,1,1
7hx2rsgv0o3slq9s0g8nm0c9,9,0,a55,1,6.0,0.0,18.202,1,1
7iletsx2bi9hpppitgum2ffi,1,0,a11,4,4.0,1.0,9.627,1,1
7iletsx2bi9hpppitgum2ffi,2,0,a24,4,5.0,0.0,9.312,1,1
7iletsx2bi9hpppitgum2ffi,3,0,a28,7,6.0,0.0,4.053,1,1
7iletsx2bi9hpppitgum2ffi,4,0,a36,1,5.0,0.0,5.702,1,1
7iletsx2bi9hpppitgum2ffi,5,0,a43,4,4.0,1.0,5.828,1,1
7iletsx2bi9hpppitgum2ffi,6,0,a48,5,6.0,0.0,5.536,1,1
7iletsx2bi9hpppitgum2ffi,7,0,a49,6,3.0,0.0,4.918,1,1
7iletsx2bi9hpppitgum2ffi,8,0,a53,0,2.0,0.0,3.329,1,1
7iletsx2bi9hpppitgum2ffi,9,0,a55,1,4.0,0.0,6.698,1,1
7qsxlzcgr0xwm8hzr2ksrpnj,1,0,a11,4,4.0,1.0,11.392,1,1
7qsxlzcgr0xwm8hzr2ksrpnj,2,0,a24,4,4.0,1.0,10.101,1,1
7qsxlzcgr0xwm8hzr2ksrpnj,3,0,a28,7,7.0,1.0,13.501,1,1
7qsxlzcgr0xwm8hzr2ksrpnj,4,0,a36,1,2.0,0.0,15.892,1,1
7qsxlzcgr0xwm8hzr2ksrpnj,5,0,a43,4,4.0,1.0,14.225,1,1
7qsxlzcgr0xwm8hzr2ksrpnj,6,0,a48,5,3.0,0.0,24.434,1,1
7qsxlzcgr0xwm8hzr2ksrpnj,7,0,a49,6,6.0,1.0,6.021,1,1
7qsxlzcgr0xwm8hzr2ksrpnj,8,0,a53,0,0.0,1.0,10.623,1,1
7qsxlzcgr0xwm8hzr2ksrpnj,9,0,a55,1,5.0,0.0,17.864,1,1
7rkp1gli11u8ntnanhi2269l,1,0,a11,4,4.0,1.0,15.627,1,1
7rkp1gli11u8ntnanhi2269l,2,0,a24,4,5.0,0.0,8.366,1,1
7rkp1gli11u8ntnanhi2269l,3,0,a28,7,3.0,0.0,25.492,1,1
7rkp1gli11u8ntnanhi2269l,4,0,a36,1,3.0,0.0,15.304,1,1
7rkp1gli11u8ntnanhi2269l,5,0,a43,4,4.0,1.0,11.571,1,1
7rkp1gli11u8ntnanhi2269l,6,0,a48,5,6.0,0.0,14.2,1,1
7rkp1gli11u8ntnanhi2269l,7,0,a49,6,6.0,1.0,9.519,1,1
7rkp1gli11u8ntnanhi2269l,8,0,a53,0,2.0,0.0,17.934,1,1
7rkp1gli11u8ntnanhi2269l,9,0,a55,1,6.0,0.0,17.881,1,1
7trdhsw3igijxuyivqeuo9xm,1,0,a11,4,3.0,0.0,8.63,1,1
7trdhsw3igijxuyivqeuo9xm,2,0,a24,4,5.0,0.0,28.31,1,1
7trdhsw3igijxuyivqeuo9xm,3,0,a28,7,7.0,1.0,19.014,1,1
7trdhsw3igijxuyivqeuo9xm,4,0,a36,1,3.0,0.0,27.589,1,1
7trdhsw3igijxuyivqeuo9xm,5,0,a43,4,4.0,1.0,18.094,1,1
7trdhsw3igijxuyivqeuo9xm,6,0,a48,5,5.0,1.0,28.763,1,1
7trdhsw3igijxuyivqeuo9xm,7,0,a49,6,2.0,0.0,9.584,1,1
7trdhsw3igijxuyivqeuo9xm,8,0,a53,0,0.0,1.0,20.518,1,1
7trdhsw3igijxuyivqeuo9xm,9,0,a55,1,6.0,0.0,8.389,1,1
7z8csc7zfih5pfeor0kfyt2v,1,0,a11,4,4.0,1.0,22.292,1,1
7z8csc7zfih5pfeor0kfyt2v,2,0,a24,4,,,,1,1
7z8csc7zfih5pfeor0kfyt2v,3,0,a28,7,7.0,1.0,8.339,1,1
7z8csc7zfih5pfeor0kfyt2v,4,0,a36,1,5.0,0.0,20.286,1,1
7z8csc7zfih5pfeor0kfyt2v,5,0,a43,4,4.0,1.0,9.518,1,1
7z8csc7zfih5pfeor0kfyt2v,6,0,a48,5,6.0,0.0,24.606,1,1
7z8csc7zfih5pfeor0kfyt2v,7,0,a49,6,6.0,1.0,4.59,1,1
7z8csc7zfih5pfeor0kfyt2v,8,0,a53,0,0.0,1.0,23.142,1,1
7z8csc7zfih5pfeor0kfyt2v,9,0,a55,1,,,,1,1
83d65pn4d2raivkvi6hb8fhc,1,0,a11,4,4.0,1.0,14.345,1,1
83d65pn4d2raivkvi6hb8fhc,2,0,a24,4,5.0,0.0,25.945,1,1
83d65pn4d2raivkvi6hb8fhc,3,0,a28,7,7.0,1.0,14.205,1,1
83d65pn4d2raivkvi6hb8fhc,4,0,a36,1,1.0,1.0,22.629,1,1
83d65pn4d2raivkvi6hb8fhc,5,0,a43,4,4.0,1.0,10.645,1,1
83d65pn4d2raivkvi6hb8fhc,6,0,a48,5,7.0,0.0,24.759,1,1
83d65pn4d2raivkvi6hb8fhc,7,0,a49,6,6.0,1.0,22.946,1,1
83d65pn4d2raivkvi6hb8fhc,8,0,a53,0,0.0,1.0,14.515,1,1
83d65pn4d2raivkvi6hb8fhc,9,0,a55,1,2.0,0.0,26.241,1,1
83vud0zmzqus4ax3dezz2irm,1,0,a11,4,4.0,1.0,12.66,1,1
83vud0zmzqus4ax3dezz2irm,2,0,a24,4,4.0,1.0,5.14,1,1
83vud0zmzqus4ax3dezz2irm,3,0,a28,7,7.0,1.0,6.42,1,1
83vud0zmzqus4ax3dezz2irm,4,0,a36,1,1.0,1.0,9.819,1,1
83vud0zmzqus4ax3dezz2irm,5,0,a43,4,4.0,1.0,13.197,1,1
83vud0zmzqus4ax3dezz2irm,6,0,a48,5,7.0,0.0,27.693,1,1
83vud0zmzqus4ax3dezz2irm,7,0,a49,6,6.0,1.0,7.608,1,1
83vud0zmzqus4ax3dezz2irm,8,0,a53,0,0.0,1.0,17.508,1,1
83vud0zmzqus4ax3dezz2irm,9,0,a55,1,1.0,1.0,23.17,1,1
8b9dem5np6py2o3izbn0xbt7,1,0,a11,4,4.0,1.0,24.188,1,1
8b9dem5np6py2o3izbn0xbt7,2,0,a24,4,4.0,1.0,12.061,1,1
8b9dem5np6py2o3izbn0xbt7,3,0,a28,7,3.0,0.0,28.463,1,1
8b9dem5np6py2o3izbn0xbt7,4,0,a36,1,2.0,0.0,13.29,1,1
8b9dem5np6py2o3izbn0xbt7,5,0,a43,4,1.0,0.0,19.612,1,1
8b9dem5np6py2o3izbn0xbt7,6,0,a48,5,4.0,0.0,22.859,1,1
8b9dem5np6py2o3izbn0xbt7,7,0,a49,6,6.0,1.0,11.531,1,1
8b9dem5np6py2o3izbn0xbt7,8,0,a53,0,0.0,1.0,9.418,1,1
8b9dem5np6py2o3izbn0xbt7,9,0,a55,1,3.0,0.0,28.912,1,1
8mmsqelicsqzbhj5che2kjjd,1,0,a11,4,1.0,0.0,5.925,1,1
8mmsqelicsqzbhj5che2kjjd,2,0,a24,4,2.0,0.0,3.572,1,1
8mmsqelicsqzbhj5che2kjjd,3,0,a28,7,7.0,1.0,3.516,1,1
8mmsqelicsqzbhj5che2kjjd,4,0,a36,1,5.0,0.0,4.314,1,1
8mmsqelicsqzbhj5che2kjjd,5,0,a43,4,4.0,1.0,3.968,1,1
8mmsqelicsqzbhj5che2kjjd,6,0,a48,5,7.0,0.0,6.386,1,1
8mmsqelicsqzbhj5che2kjjd,7,0,a49,6,0.0,0.0,5.248,1,1
8mmsqelicsqzbhj5che2kjjd,8,0,a53,0,3.0,0.0,7.151,1,1
8mmsqelicsqzbhj5che2kjjd,9,0,a55,1,1.0,1.0,9.035,1,1
8oryv8j673gzz5uwrfkxfyf9,1,0,a11,4,4.0,1.0,23.264,1,1
8oryv8j673gzz5uwrfkxfyf9,2,0,a24,4,4.0,1.0,21.902,1,1
8oryv8j673gzz5uwrfkxfyf9,3,0,a28,7,7.0,1.0,10.557,1,1
8oryv8j673gzz5uwrfkxfyf9,4,0,a36,1,1.0,1.0,12.236,1,1
8oryv8j673gzz5uwrfkxfyf9,5,0,a43,4,4.0,1.0,17.752,1,1
8oryv8j673gzz5uwrfkxfyf9,6,0,a48,5,5.0,1.0,25.959,1,1
8oryv8j673gzz5uwrfkxfyf9,7,0,a49,6,6.0,1.0,25.73,1,1
8oryv8j673gzz5uwrfkxfyf9,8,0,a53,0,0.0,1.0,8.494,1,1
8oryv8j673gzz5uwrfkxfyf9,9,0,a55,1,1.0,1.0,14.678,1,1
8pd3whbr8twsf1j1y2hdn84q,1,0,a11,4,4.0,1.0,7.499,1,1
8pd3whbr8twsf1j1y2hdn84q,2,0,a24,4,0.0,0.0,27.825,1,1
8pd3whbr8twsf1j1y2hdn84q,3,0,a28,7,7.0,1.0,8.96,1,1
8pd3whbr8twsf1j1y2hdn84q,4,0,a36,1,2.0,0.0,19.566,1,1
8pd3whbr8twsf1j1y2hdn84q,5,0,a43,4,4.0,1.0,18.451,1,1
8pd3whbr8twsf1j1y2hdn84q,6,0,a48,5,7.0,0.0,21.467,1,1
8pd3whbr8twsf1j1y2hdn84q,7,0,a49,6,6.0,1.0,12.664,1,1
8pd3whbr8twsf1j1y2hdn84q,8,0,a53,0,,,,1,1
8pd3whbr8twsf1j1y2hdn84q,9,0,a55,1,3.0,0.0,10.456,1,1
8spwa7djvf31u2w5c739di0i,1,0,a11,4,0.0,0.0,6.004,1,1
8spwa7djvf31u2w5c739di0i,2,0,a24,4,5.0,0.0,8.288,1,1
8spwa7djvf31u2w5c739di0i,3,0,a28,7,3.0,0.0,6.484,1,1
8spwa7djvf31u2w5c739di0i,4,0,a36,1,4.0,0.0,13.634,1,1
8spwa7djvf31u2w5c739di0i,5,0,a43,4,7.0,0.0,10.317,1,1
8spwa7djvf31u2w5c739di0i,6,0,a48,5,6.0,0.0,12.447,1,1
8spwa7djvf31u2w5c739di0i,7,0,a49,6,6.0,1.0,7.666,1,1
8spwa7djvf31u2w5c739di0i,8,0,a53,0,6.0,0.0,12.203,1,1
8spwa7djvf31u2w5c739di0i,9,0,a55,1,6.0,0.0,12.127,1,1
904us1xo4en5ejund7wj7xcz,1,0,a11,4,5.0,0.0,14.8,1,1
904us1xo4en5ejund7wj7xcz,2,0,a24,4,5.0,0.0,16.093,1,1
904us1xo4en5ejund7wj7xcz,3,0,a28,7,7.0,1.0,19.618,1,1
904us1xo4en5ejund7wj7xcz,4,0,a36,1,2.0,0.0,22.262,1,1
904us1xo4en5ejund7wj7xcz,5,0,a43,4,4.0,1.0,21.685,1,1
904us1xo4en5ejund7wj7xcz,6,0,a48,5,3.0,0.0,17.744,1,1
904us1xo4en5ejund7wj7xcz,7,0,a49,6,6.0,1.0,8.646,1,1
904us1xo4en5ejund7wj7xcz,8,0,a53,0,0.0,1.0,9.143,1,1
904us1xo4en5ejund7wj7xcz,9,0,a55,1,5.0,0.0,27.713,1,1
90fvgdmx76qgnfqbxam1twsf,1,0,a11,4,4.0,1.0,28.223,1,1
90fvgdmx76qgnfqbxam1twsf,2,0,a24,4,4.0,1.0,21.274,1,1
90fvgdmx76qgnfqbxam1twsf,3,0,a28,7,7.0,1.0,13.163,1,1
90fvgdmx76qgnfqbxam1twsf,4,0,a36,1,1.0,1.0,22.028,1,1
90fvgdmx76qgnfqbxam1twsf,5,0,a43,4,4.0,1.0,22.88,1,1
90fvgdmx76qgnfqbxam1twsf,6,0,a48,5,,,,1,1
90fvgdmx76qgnfqbxam1twsf,7,0,a49,6,6.0,1.0,12.16,1,1
90fvgdmx76qgnfqbxam1twsf,8,0,a53,0,0.0,1.0,25.536,1,1
90fvgdmx76qgnfqbxam1twsf,9,0,a55,1,,,,1,1
93e3pf3yo2ioqcj418q5e4oz,1,0,a11,4,4.0,1.0,11.108,1,1
93e3pf3yo2ioqcj418q5e4oz,2,0,a24,4,0.0,0.0,16.508,1,1
93e3pf3yo2ioqcj418q5e4oz,3,0,a28,7,7.0,1.0,21.59,1,1
93e3pf3yo2ioqcj418q5e4oz,4,0,a36,1,2.0,0.0,7.028,1,1
93e3pf3yo2ioqcj418q5e4oz,5,0,a43,4,4.0,1.0,19.29,1,1
93e3pf3yo2ioqcj418q5e4oz,6,0,a48,5,7.0,0.0,26.527,1,1
93e3pf3yo2ioqcj418q5e4oz,7,0,a49,6,6.0,1.0,22.09,1,1
93e3pf3yo2ioqcj418q5e4oz,8,0,a53,0,0.0,1.0,11.36,1,1
93e3pf3yo2ioqcj418q5e4oz,9,0,a55,1,5.0,0.0,22.99,1,1
9aw9gl5jqv46t2q1flf417d0,1,0,a11,4,0.0,0.0,4.548,1,1
9aw9gl5jqv46t2q1flf417d0,2,0,a24,4,4.0,1.0,18.524,1,1
9aw9gl5jqv46t2q1flf417d0,3,0,a28,7,7.0,1.0,6.882,1,1
9aw9gl5jqv46t2q1flf417d0,4,0,a36,1,1.0,1.0,8.49,1,1
9aw9gl5jqv46t2q1flf417d0,5,0,a43,4,4.0,1.0,12.655,1,1
9aw9gl5jqv46t2q1flf417d0,6,0,a48,5,7.0,0.0,29.32,1,1
9aw9gl5jqv46t2q1flf417d0,7,0,a49,6,6.0,1.0,9.656,1,1
9aw9gl5jqv46t2q1flf417d0,8,0,a53,0,0.0,1.0,7.11,1,1
9aw9gl5jqv46t2q1flf417d0,9,0,a55,1,1.0,1.0,16.422,1,1
9b2kdcnpqeq9h5ys3005pqjt,1,0,a11,4,4.0,1.0,17.615,1,1
9b2kdcnpqeq9h5ys3005pqjt,2,0,a24,4,4.0,1.0,20.882,1,1
9b2kdcnpqeq9h5ys3005pqjt,3,0,a28,7,2.0,0.0,3.792,1,1
9b2kdcnpqeq9h5ys3005pqjt,4,0,a36,1,6.0,0.0,5.626,1,1
9b2kdcnpqeq9h5ys3005pqjt,5,0,a43,4,7.0,0.0,11.048,1,1
9b2kdcnpqeq9h5ys3005pqjt,6,0,a48,5,3.0,0.0,9.361,1,1
9b2kdcnpqeq9h5ys3005pqjt,7,0,a49,6,6.0,1.0,8.079,1,1
9b2kdcnpqeq9h5ys3005pqjt,8,0,a53,0,0.0,1.0,21.266,1,1
9b2kdcnpqeq9h5ys3005pqjt,9,0,a55,1,3.0,0.0,4.41,1,1
9h3oeocks7ljv6oz2kisnk7j,1,0,a11,4,4.0,1.0,7.787,1,1
9h3oeocks7ljv6oz2kisnk7j,2,0,a24,4,4.0,1.0,10.284,1,1
9h3oeocks7ljv6oz2kisnk7j,3,0,a28,7,3.0,0.0,11.437,1,1
9h3oeocks7ljv6oz2kisnk7j,4,0,a36,1,2.0,0.0,7.767,1,1
9h3oeocks7ljv6oz2kisnk7j,5,0,a43,4,4.0,1.0,7.882,1,1
9h3oeocks7ljv6oz2kisnk7j,6,0,a48,5,6.0,0.0,10.567,1,1
9h3oeocks7ljv6oz2kisnk7j,7,0,a49,6,6.0,1.0,13.166,1,1
9h3oeocks7ljv6oz2kisnk7j,8,0,a53,0,0.0,1.0,8.168,1,1
9h3oeocks7ljv6oz2kisnk7j,9,0,a55,1,6.0,0.0,10.159,1,1
9hropjx6bwxp4uxt1ljoqfbn,1,0,a11,4,3.0,0.0,1.66,1,1
9hropjx6bwxp4uxt1ljoqfbn,2,0,a24,4,5.0,0.0,5.83,1,1
9hropjx6bwxp4uxt1ljoqfbn,3,0,a28,7,2.0,0.0,13.901,1,1
9hropjx6bwxp4uxt1ljoqfbn,4,0,a36,1,5.0,0.0,3.173,1,1
9hropjx6bwxp4uxt1ljoqfbn,5,0,a43,4,7.0,0.0,15.379,1,1
9hropjx6bwxp4uxt1ljoqfbn,6,0,a48,5,2.0,0.0,9.587,1,1
9hropjx6bwxp4uxt1ljoqfbn,7,0,a49,6,6.0,1.0,15.732,1,1
9hropjx6bwxp4uxt1ljoqfbn,8,0,a53,0,5.0,0.0,10.205,1,1
9hropjx6bwxp4uxt1ljoqfbn,9,0,a55,1,5.0,0.0,11.272,1,1
9k2p6i0szt5h345an6xswxxj,1,0,a11,4,4.0,1.0,14.358,1,1
9k2p6i0szt5h345an6xswxxj,2,0,a24,4,4.0,1.0,17.868,1,1
9k2p6i0szt5h345an6xswxxj,3,0,a28,7,7.0,1.0,21.496,1,1
9k2p6i0szt5h345an6xswxxj,4,0,a36,1,1.0,1.0,25.9,1,1
9k2p6i0szt5h345an6xswxxj,5,0,a43,4,4.0,1.0,20.511,1,1
9k2p6i0szt5h345an6xswxxj,6,0,a48,5,4.0,0.0,25.022,1,1
9k2p6i0szt5h345an6xswxxj,7,0,a49,6,6.0,1.0,9.858,1,1
9k2p6i0szt5h345an6xswxxj,8,0,a53,0,0.0,1.0,10.847,1,1
9k2p6i0szt5h345an6xswxxj,9,0,a55,1,5.0,0.0,28.62,1,1
9ka9kjq1qxm93f9d8d3m9htr,1,0,a11,4,3.0,0.0,10.392,1,1
9ka9kjq1qxm93f9d8d3m9htr,2,0,a24,4,3.0,0.0,9.032,1,1
9ka9kjq1qxm93f9d8d3m9htr,3,0,a28,7,7.0,1.0,10.742,1,1
9ka9kjq1qxm93f9d8d3m9htr,4,0,a36,1,7.0,0.0,13.669,1,1
9ka9kjq1qxm93f9d8d3m9htr,5,0,a43,4,4.0,1.0,19.741,1,1
9ka9kjq1qxm93f9d8d3m9htr,6,0,a48,5,6.0,0.0,7.188,1,1
9ka9kjq1qxm93f9d8d3m9htr,7,0,a49,6,2.0,0.0,9.561,1,1
9ka9kjq1qxm93f9d8d3m9htr,8,0,a53,0,6.0,0.0,7.335,1,1
9ka9kjq1qxm93f9d8d3m9htr,9,0,a55,1,0.0,0.0,9.786,1,1
9s2gz3eg2b6wprneya5bcu29,1,0,a11,4,4.0,1.0,9.79,1,1
9s2gz3eg2b6wprneya5bcu29,2,0,a24,4,4.0,1.0,7.826,1,1
9s2gz3eg2b6wprneya5bcu29,3,0,a28,7,7.0,1.0,20.531,1,1
9s2gz3eg2b6wprneya5bcu29,4,0,a36,1,7.0,0.0,7.168,1,1
9s2gz3eg2b6wprneya5bcu29,5,0,a43,4,5.0,0.0,18.41,1,1
9s2gz3eg2b6wprneya5bcu29,6,0,a48,5,6.0,0.0,9.003,1,1
9s2gz3eg2b6wprneya5bcu29,7,0,a49,6,6.0,1.0,6.14,1,1
9s2gz3eg2b6wprneya5bcu29,8,0,a53,0,6.0,0.0,18.019,1,1
9s2gz3eg2b6wprneya5bcu29,9,0,a55,1,6.0,0.0,5.325,1,1
9tz3b7sj8khwmyl6fj7nucqi,1,0,a11,4,0.0,0.0,9.595,1,1
9tz3b7sj8khwmyl6fj7nucqi,2,0,a24,4,3.0,0.0,17.795,1,1
9tz3b7sj8khwmyl6fj7nucqi,3,0,a28,7,2.0,0.0,22.071,1,1
9tz3b7sj8khwmyl6fj7nucqi,4,0,a36,1,6.0,0.0,22.101,1,1
9tz3b7sj8khwmyl6fj7nucqi,5,0,a43,4,4.0,1.0,24.416,1,1
9tz3b7sj8khwmyl6fj7nucqi,6,0,a48,5,7.0,0.0,19.704,1,1
9tz3b7sj8khwmyl6fj7nucqi,7,0,a49,6,0.0,0.0,0.522,1,1
9tz3b7sj8khwmyl6fj7nucqi,8,0,a53,0,6.0,0.0,14.75,1,1
9tz3b7sj8khwmyl6fj7nucqi,9,0,a55,1,5.0,0.0,11.925,1,1
a0dnodmhv7r282d7hl8ircso,1,0,a11,4,4.0,1.0,12.223,1,1
a0dnodmhv7r282d7hl8ircso,2,0,a24,4,4.0,1.0,13.908,1,1
a0dnodmhv7r282d7hl8ircso,3,0,a28,7,7.0,1.0,19.239,1,1
a0dnodmhv7r282d7hl8ircso,4,0,a36,1,3.0,0.0,14.101,1,1
a0dnodmhv7r282d7hl8ircso,5,0,a43,4,7.0,0.0,12.665,1,1
a0dnodmhv7r282d7hl8ircso,6,0,a48,5,6.0,0.0,14.894,1,1
a0dnodmhv7r282d7hl8ircso,7,0,a49,6,6.0,1.0,9.721,1,1
a0dnodmhv7r282d7hl8ircso,8,0,a53,0,1.0,0.0,13.336,1,1
a0dnodmhv7r282d7hl8ircso,9,0,a55,1,7.0,0.0,22.854,1,1
a6lvb19al183cjphbm5tvm5r,1,0,a11,4,5.0,0.0,2.087,1,1
a6lvb19al183cjphbm5tvm5r,2,0,a24,4,5.0,0.0,5.372,1,1
a6lvb19al183cjphbm5tvm5r,3,0,a28,7,2.0,0.0,4.221,1,1
a6lvb19al183cjphbm5tvm5r,4,0,a36,1,4.0,0.0,5.443,1,1
a6lvb19al183cjphbm5tvm5r,5,0,a43,4,3.0,0.0,12.232,1,1
a6lvb19al183cjphbm5tvm5r,6,0,a48,5,6.0,0.0,1.757,1,1
a6lvb19al183cjphbm5tvm5r,7,0,a49,6,6.0,1.0,1.045,1,1
a6lvb19al183cjphbm5tvm5r,8,0,a53,0,5.0,0.0,1.117,1,1
a6lvb19al183cjphbm5tvm5r,9,0,a55,1,5.0,0.0,1.355,1,1
ab156hhj39pbdfdmqex7354t,1,0,a11,4,4.0,1.0,11.616,1,1
ab156hhj39pbdfdmqex7354t,2,0,a24,4,4.0,1.0,10.828,1,1
ab156hhj39pbdfdmqex7354t,3,0,a28,7,7.0,1.0,6.965,1,1
ab156hhj39pbdfdmqex7354t,4,0,a36,1,1.0,1.0,12.196,1,1
ab156hhj39pbdfdmqex7354t,5,0,a43,4,4.0,1.0,11.493,1,1
ab156hhj39pbdfdmqex7354t,6,0,a48,5,7.0,0.0,16.945,1,1
ab156hhj39pbdfdmqex7354t,7,0,a49,6,6.0,1.0,9.954,1,1
ab156hhj39pbdfdmqex7354t,8,0,a53,0,0.0,1.0,6.549,1,1
ab156hhj39pbdfdmqex7354t,9,0,a55,1,1.0,1.0,15.355,1,1
acxs3cqciegrxqn3j2d0r5xj,1,0,a11,4,4.0,1.0,13.414,1,1
acxs3cqciegrxqn3j2d0r5xj,2,0,a24,4,5.0,0.0,12.38,1,1
acxs3cqciegrxqn3j2d0r5xj,3,0,a28,7,7.0,1.0,10.056,1,1
acxs3cqciegrxqn3j2d0r5xj,4,0,a36,1,1.0,1.0,16.765,1,1
acxs3cqciegrxqn3j2d0r5xj,5,0,a43,4,7.0,0.0,28.515,1,1
acxs3cqciegrxqn3j2d0r5xj,6,0,a48,5,7.0,0.0,21.827,1,1
acxs3cqciegrxqn3j2d0r5xj,7,0,a49,6,6.0,1.0,22.921,1,1
acxs3cqciegrxqn3j2d0r5xj,8,0,a53,0,0.0,1.0,8.871,1,1
acxs3cqciegrxqn3j2d0r5xj,9,0,a55,1,6.0,0.0,23.204,1,1
ae9x8jlpq2by67vm77fdw21b,1,0,a11,4,4.0,1.0,11.469,1,1
ae9x8jlpq2by67vm77fdw21b,2,0,a24,4,4.0,1.0,12.361,1,1
ae9x8jlpq2by67vm77fdw21b,3,0,a28,7,7.0,1.0,16.733,1,1
ae9x8jlpq2by67vm77fdw21b,4,0,a36,1,4.0,0.0,25.383,1,1
ae9x8jlpq2by67vm77fdw21b,5,0,a43,4,4.0,1.0,19.53,1,1
ae9x8jlpq2by67vm77fdw21b,6,0,a48,5,3.0,0.0,11.675,1,1
ae9x8jlpq2by67vm77fdw21b,7,0,a49,6,6.0,1.0,11.993,1,1
ae9x8jlpq2by67vm77fdw21b,8,0,a53,0,0.0,1.0,9.518,1,1
ae9x8jlpq2by67vm77fdw21b,9,0,a55,1,6.0,0.0,7.071,1,1
aek1qwmstue08jfqva0nuctd,1,0,a11,4,4.0,1.0,9.247,1,1
aek1qwmstue08jfqva0nuctd,2,0,a24,4,4.0,1.0,6.892,1,1
aek1qwmstue08jfqva0nuctd,3,0,a28,7,7.0,1.0,11.377,1,1
aek1qwmstue08jfqva0nuctd,4,0,a36,1,1.0,1.0,19.245,1,1
aek1qwmstue08jfqva0nuctd,5,0,a43,4,4.0,1.0,16.958,1,1
aek1qwmstue08jfqva0nuctd,6,0,a48,5,7.0,0.0,20.284,1,1
aek1qwmstue08jfqva0nuctd,7,0,a49,6,6.0,1.0,10.905,1,1
aek1qwmstue08jfqva0nuctd,8,0,a53,0,0.0,1.0,13.424,1,1
aek1qwmstue08jfqva0nuctd,9,0,a55,1,5.0,0.0,27.593,1,1
agrzjv5i5moh79wxztsebzww,1,0,a11,4,4.0,1.0,17.971,1,1
agrzjv5i5moh79wxztsebzww,2,0,a24,4,4.0,1.0,10.274,1,1
agrzjv5i5moh79wxztsebzww,3,0,a28,7,3.0,0.0,11.42,1,1
agrzjv5i5moh79wxztsebzww,4,0,a36,1,2.0,0.0,14.519,1,1
agrzjv5i5moh79wxztsebzww,5,0,a43,4,4.0,1.0,15.019,1,1
agrzjv5i5moh79wxztsebzww,6,0,a48,5,6.0,0.0,25.161,1,1
agrzjv5i5moh79wxztsebzww,7,0,a49,6,6.0,1.0,9.368,1,1
agrzjv5i5moh79wxztsebzww,8,0,a53,0,0.0,1.0,14.395,1,1
agrzjv5i5moh79wxztsebzww,9,0,a55,1,2.0,0.0,23.682,1,1
ahu64kinfjnyyollp82777wn,1,0,a11,4,4.0,1.0,26.94,1,1
ahu64kinfjnyyollp82777wn,2,0,a24,4,4.0,1.0,12.264,1,1
ahu64kinfjnyyollp82777wn,3,0,a28,7,7.0,1.0,17.649,1,1
ahu64kinfjnyyollp82777wn,4,0,a36,1,1.0,1.0,23.141,1,1
ahu64kinfjnyyollp82777wn,5,0,a43,4,4.0,1.0,22.7,1,1
ahu64kinfjnyyollp82777wn,6,0,a48,5,7.0,0.0,27.216,1,1
ahu64kinfjnyyollp82777wn,7,0,a49,6,6.0,1.0,18.661,1,1
ahu64kinfjnyyollp82777wn,8,0,a53,0,0.0,1.0,17.953,1,1
ahu64kinfjnyyollp82777wn,9,0,a55,1,1.0,1.0,28.688,1,1
aj7e9j320ju26mkz3sc7btj1,1,0,a11,4,0.0,0.0,19.137,1,1
aj7e9j320ju26mkz3sc7btj1,2,0,a24,4,4.0,1.0,12.229,1,1
aj7e9j320ju26mkz3sc7btj1,3,0,a28,7,2.0,0.0,16.22,1,1
aj7e9j320ju26mkz3sc7btj1,4,0,a36,1,2.0,0.0,12.637,1,1
aj7e9j320ju26mkz3sc7btj1,5,0,a43,4,4.0,1.0,15.248,1,1
aj7e9j320ju26mkz3sc7btj1,6,0,a48,5,3.0,0.0,20.126,1,1
aj7e9j320ju26mkz3sc7btj1,7,0,a49,6,6.0,1.0,9.373,1,1
aj7e9j320ju26mkz3sc7btj1,8,0,a53,0,5.0,0.0,21.93,1,1
aj7e9j320ju26mkz3sc7btj1,9,0,a55,1,6.0,0.0,14.764,1,1
am6zb9w2t76m3yi7p28hley8,1,0,a11,4,4.0,1.0,12.889,1,1
am6zb9w2t76m3yi7p28hley8,2,0,a24,4,3.0,0.0,9.131,1,1
am6zb9w2t76m3yi7p28hley8,3,0,a28,7,7.0,1.0,7.488,1,1
am6zb9w2t76m3yi7p28hley8,4,0,a36,1,2.0,0.0,11.565,1,1
am6zb9w2t76m3yi7p28hley8,5,0,a43,4,7.0,0.0,5.787,1,1
am6zb9w2t76m3yi7p28hley8,6,0,a48,5,3.0,0.0,8.377,1,1
am6zb9w2t76m3yi7p28hley8,7,0,a49,6,6.0,1.0,7.572,1,1
am6zb9w2t76m3yi7p28hley8,8,0,a53,0,0.0,1.0,13.45,1,1
am6zb9w2t76m3yi7p28hley8,9,0,a55,1,3.0,0.0,9.844,1,1
aox5tz1fjp09ccnxtj5ld1sf,1,0,a11,4,4.0,1.0,12.96,1,1
aox5tz1fjp09ccnxtj5ld1sf,2,0,a24,4,4.0,1.0,19.224,1,1
aox5tz1fjp09ccnxtj5ld1sf,3,0,a28,7,7.0,1.0,25.302,1,1
aox5tz1fjp09ccnxtj5ld1sf,4,0,a36,1,1.0,1.0,24.771,1,1
aox5tz1fjp09ccnxtj5ld1sf,5,0,a43,4,7.0,0.0,25.955,1,1
aox5tz1fjp09ccnxtj5ld1sf,6,0,a48,5,4.0,0.0,24.031,1,1
aox5tz1fjp09ccnxtj5ld1sf,7,0,a49,6,6.0,1.0,12.514,1,1
aox5tz1fjp09ccnxtj5ld1sf,8,0,a53,0,5.0,0.0,27.872,1,1
aox5tz1fjp09ccnxtj5ld1sf,9,0,a55,1,2.0,0.0,18.133,1,1
ars3wnj5g3gb3vq2am7uab70,1,0,a11,4,4.0,1.0,8.051,1,1
ars3wnj5g3gb3vq2am7uab70,2,0,a24,4,4.0,1.0,19.872,1,1
ars3wnj5g3gb3vq2am7uab70,3,0,a28,7,7.0,1.0,2.851,1,1
ars3wnj5g3gb3vq2am7uab70,4,0,a36,1,1.0,1.0,16.151,1,1
ars3wnj5g3gb3vq2am7uab70,5,0,a43,4,4.0,1.0,12.401,1,1
ars3wnj5g3gb3vq2am7uab70,6,0,a48,5,1.0,0.0,18.11,1,1
ars3wnj5g3gb3vq2am7uab70,7,0,a49,6,6.0,1.0,5.115,1,1
ars3wnj5g3gb3vq2am7uab70,8,0,a53,0,6.0,0.0,25.983,1,1
ars3wnj5g3gb3vq2am7uab70,9,0,a55,1,0.0,0.0,11.574,1,1
atx8sqtf5tpw6p9mwiqw1rkh,1,0,a11,4,4.0,1.0,20.422,1,1
atx8sqtf5tpw6p9mwiqw1rkh,2,0,a24,4,0.0,0.0,23.065,1,1
atx8sqtf5tpw6p9mwiqw1rkh,3,0,a28,7,7.0,1.0,25.456,1,1
atx8sqtf5tpw6p9mwiqw1rkh,4,0,a36,1,3.0,0.0,0.154,1,1
atx8sqtf5tpw6p9mwiqw1rkh,5,0,a43,4,4.0,1.0,15.308,1,1
atx8sqtf5tpw6p9mwiqw1rkh,6,0,a48,5,5.0,1.0,27.426,1,1
atx8sqtf5tpw6p9mwiqw1rkh,7,0,a49,6,6.0,1.0,9.607,1,1
atx8sqtf5tpw6p9mwiqw1rkh,8,0,a53,0,0.0,1.0,13.257,1,1
atx8sqtf5tpw6p9mwiqw1rkh,9,0,a55,1,6.0,0.0,27.432,1,1
aw5ty2rivqrj6l4fcekm8bzp,1,0,a11,4,4.0,1.0,7.021,1,1
aw5ty2rivqrj6l4fcekm8bzp,2,0,a24,4,4.0,1.0,14.98,1,1
aw5ty2rivqrj6l4fcekm8bzp,3,0,a28,7,7.0,1.0,12.587,1,1
aw5ty2rivqrj6l4fcekm8bzp,4,0,a36,1,1.0,1.0,15.973,1,1
aw5ty2rivqrj6l4fcekm8bzp,5,0,a43,4,1.0,0.0,14.018,1,1
aw5ty2rivqrj6l4fcekm8bzp,6,0,a48,5,5.0,1.0,12.051,1,1
aw5ty2rivqrj6l4fcekm8bzp,7,0,a49,6,6.0,1.0,6.94,1,1
aw5ty2rivqrj6l4fcekm8bzp,8,0,a53,0,0.0,1.0,5.118,1,1
aw5ty2rivqrj6l4fcekm8bzp,9,0,a55,1,6.0,0.0,10.412,1,1
ayxd5z2qb6pe6lf9eo42agk6,1,0,a11,4,3.0,0.0,2.072,1,1
ayxd5z2qb6pe6lf9eo42agk6,2,0,a24,4,2.0,0.0,6.653,1,1
ayxd5z2qb6pe6lf9eo42agk6,3,0,a28,7,2.0,0.0,8.351,1,1
ayxd5z2qb6pe6lf9eo42agk6,4,0,a36,1,1.0,1.0,2.655,1,1
ayxd5z2qb6pe6lf9eo42agk6,5,0,a43,4,7.0,0.0,5.213,1,1
ayxd5z2qb6pe6lf9eo42agk6,6,0,a48,5,6.0,0.0,3.798,1,1
ayxd5z2qb6pe6lf9eo42agk6,7,0,a49,6,0.0,0.0,6.124,1,1
ayxd5z2qb6pe6lf9eo42agk6,8,0,a53,0,1.0,0.0,4.668,1,1
ayxd5z2qb6pe6lf9eo42agk6,9,0,a55,1,6.0,0.0,2.253,1,1
b5frji5hv5d7xietvx944qzz,1,0,a11,4,4.0,1.0,10.175,1,1
b5frji5hv5d7xietvx944qzz,2,0,a24,4,3.0,0.0,18.432,1,1
b5frji5hv5d7xietvx944qzz,3,0,a28,7,7.0,1.0,11.641,1,1
b5frji5hv5d7xietvx944qzz,4,0,a36,1,1.0,1.0,22.789,1,1
b5frji5hv5d7xietvx944qzz,5,0,a43,4,6.0,0.0,21.076,1,1
b5frji5hv5d7xietvx944qzz,6,0,a48,5,1.0,0.0,19.132,1,1
b5frji5hv5d7xietvx944qzz,7,0,a49,6,6.0,1.0,9.389,1,1
b5frji5hv5d7xietvx944qzz,8,0,a53,0,3.0,0.0,25.545,1,1
b5frji5hv5d7xietvx944qzz,9,0,a55,1,7.0,0.0,10.83,1,1
b9w0hqvlnhfdd6fqenf1aibq,1,0,a11,4,5.0,0.0,28.634,1,1
b9w0hqvlnhfdd6fqenf1aibq,2,0,a24,4,0.0,0.0,29.406,1,1
b9w0hqvlnhfdd6fqenf1aibq,3,0,a28,7,3.0,0.0,27.513,1,1
b9w0hqvlnhfdd6fqenf1aibq,4,0,a36,1,2.0,0.0,28.864,1,1
b9w0hqvlnhfdd6fqenf1aibq,5,0,a43,4,0.0,0.0,29.776,1,1
b9w0hqvlnhfdd6fqenf1aibq,6,0,a48,5,6.0,0.0,28.19,1,1
b9w0hqvlnhfdd6fqenf1aibq,7,0,a49,6,6.0,1.0,25.772,1,1
b9w0hqvlnhfdd6fqenf1aibq,8,0,a53,0,6.0,0.0,15.607,1,1
b9w0hqvlnhfdd6fqenf1aibq,9,0,a55,1,6.0,0.0,29.382,1,1
bck2fz6vznfqthbjg701yoir,1,0,a11,4,4.0,1.0,18.486,1,1
bck2fz6vznfqthbjg701yoir,2,0,a24,4,4.0,1.0,7.938,1,1
bck2fz6vznfqthbjg701yoir,3,0,a28,7,7.0,1.0,21.918,1,1
bck2fz6vznfqthbjg701yoir,4,0,a36,1,1.0,1.0,25.631,1,1
bck2fz6vznfqthbjg701yoir,5,0,a43,4,4.0,1.0,17.152,1,1
bck2fz6vznfqthbjg701yoir,6,0,a48,5,7.0,0.0,17.095,1,1
bck2fz6vznfqthbjg701yoir,7,0,a49,6,6.0,1.0,15.603,1,1
bck2fz6vznfqthbjg701yoir,8,0,a53,0,0.0,1.0,9.005,1,1
bck2fz6vznfqthbjg701yoir,9,0,a55,1,,,,1,1
bet3v8jup1a9hzxfgo41uivh,1,0,a11,4,2.0,0.0,7.133,1,1
bet3v8jup1a9hzxfgo41uivh,2,0,a24,4,4.0,1.0,9.203,1,1
bet3v8jup1a9hzxfgo41uivh,3,0,a28,7,7.0,1.0,10.945,1,1
bet3v8jup1a9hzxfgo41uivh,4,0,a36,1,2.0,0.0,11.222,1,1
bet3v8jup1a9hzxfgo41uivh,5,0,a43,4,4.0,1.0,19.775,1,1
bet3v8jup1a9hzxfgo41uivh,6,0,a48,5,7.0,0.0,26.918,1,1
bet3v8jup1a9hzxfgo41uivh,7,0,a49,6,6.0,1.0,7.145,1,1
bet3v8jup1a9hzxfgo41uivh,8,0,a53,0,0.0,1.0,9.384,1,1
bet3v8jup1a9hzxfgo41uivh,9,0,a55,1,2.0,0.0,17.209,1,1
bl14rdmw7m65wh8n7bxmwjbg,1,0,a11,4,4.0,1.0,7.905,1,1
bl14rdmw7m65wh8n7bxmwjbg,2,0,a24,4,4.0,1.0,10.597,1,1
bl14rdmw7m65wh8n7bxmwjbg,3,0,a28,7,7.0,1.0,4.631,1,1
bl14rdmw7m65wh8n7bxmwjbg,4,0,a36,1,1.0,1.0,15.87,1,1
bl14rdmw7m65wh8n7bxmwjbg,5,0,a43,4,4.0,1.0,10.765,1,1
bl14rdmw7m65wh8n7bxmwjbg,6,0,a48,5,6.0,0.0,9.943,1,1
bl14rdmw7m65wh8n7bxmwjbg,7,0,a49,6,6.0,1.0,7.409,1,1
bl14rdmw7m65wh8n7bxmwjbg,8,0,a53,0,6.0,0.0,19.08,1,1
bl14rdmw7m65wh8n7bxmwjbg,9,0,a55,1,6.0,0.0,23.595,1,1
bm25wtb8h4y0rcrunpse40us,1,0,a11,4,4.0,1.0,9.666,1,1
bm25wtb8h4y0rcrunpse40us,2,0,a24,4,4.0,1.0,9.936,1,1
bm25wtb8h4y0rcrunpse40us,3,0,a28,7,7.0,1.0,12.143,1,1
bm25wtb8h4y0rcrunpse40us,4,0,a36,1,5.0,0.0,26.146,1,1
bm25wtb8h4y0rcrunpse40us,5,0,a43,4,1.0,0.0,5.998,1,1
bm25wtb8h4y0rcrunpse40us,6,0,a48,5,4.0,0.0,4.59,1,1
bm25wtb8h4y0rcrunpse40us,7,0,a49,6,5.0,0.0,3.948,1,1
bm25wtb8h4y0rcrunpse40us,8,0,a53,0,0.0,1.0,8.935,1,1
bm25wtb8h4y0rcrunpse40us,9,0,a55,1,6.0,0.0,4.129,1,1
bsfky5izk36x46djd023jeph,1,0,a11,4,4.0,1.0,22.92,1,1
bsfky5izk36x46djd023jeph,2,0,a24,4,4.0,1.0,10.475,1,1
bsfky5izk36x46djd023jeph,3,0,a28,7,7.0,1.0,9.694,1,1
bsfky5izk36x46djd023jeph,4,0,a36,1,2.0,0.0,13.169,1,1
bsfky5izk36x46djd023jeph,5,0,a43,4,4.0,1.0,15.389,1,1
bsfky5izk36x46djd023jeph,6,0,a48,5,7.0,0.0,27.925,1,1
bsfky5izk36x46djd023jeph,7,0,a49,6,6.0,1.0,8.007,1,1
bsfky5izk36x46djd023jeph,8,0,a53,0,4.0,0.0,27.934,1,1
bsfky5izk36x46djd023jeph,9,0,a55,1,0.0,0.0,25.754,1,1
bu4s3z49jmgzr5do2tt8oyrn,1,0,a11,4,5.0,0.0,8.991,1,1
bu4s3z49jmgzr5do2tt8oyrn,2,0,a24,4,4.0,1.0,6.836,1,1
bu4s3z49jmgzr5do2tt8oyrn,3,0,a28,7,7.0,1.0,17.335,1,1
bu4s3z49jmgzr5do2tt8oyrn,4,0,a36,1,2.0,0.0,11.583,1,1
bu4s3z49jmgzr5do2tt8oyrn,5,0,a43,4,7.0,0.0,12.093,1,1
bu4s3z49jmgzr5do2tt8oyrn,6,0,a48,5,1.0,0.0,14.715,1,1
bu4s3z49jmgzr5do2tt8oyrn,7,0,a49,6,6.0,1.0,10.774,1,1
bu4s3z49jmgzr5do2tt8oyrn,8,0,a53,0,2.0,0.0,23.305,1,1
bu4s3z49jmgzr5do2tt8oyrn,9,0,a55,1,0.0,0.0,4.422,1,1
c0tws9gfdtfu6u9i5qrcddsz,1,0,a11,4,4.0,1.0,13.189,1,1
c0tws9gfdtfu6u9i5qrcddsz,2,0,a24,4,4.0,1.0,14.22,1,1
c0tws9gfdtfu6u9i5qrcddsz,3,0,a28,7,7.0,1.0,11.644,1,1
c0tws9gfdtfu6u9i5qrcddsz,4,0,a36,1,1.0,1.0,16.22,1,1
c0tws9gfdtfu6u9i5qrcddsz,5,0,a43,4,1.0,0.0,17.366,1,1
c0tws9gfdtfu6u9i5qrcddsz,6,0,a48,5,5.0,1.0,26.47,1,1
c0tws9gfdtfu6u9i5qrcddsz,7,0,a49,6,6.0,1.0,9.08,1,1
c0tws9gfdtfu6u9i5qrcddsz,8,0,a53,0,6.0,0.0,19.036,1,1
c0tws9gfdtfu6u9i5qrcddsz,9,0,a55,1,6.0,0.0,29.092,1,1
c1cr7swm8cp768y8j7e97gl3,1,0,a11,4,5.0,0.0,16.674,1,1
c1cr7swm8cp768y8j7e97gl3,2,0,a24,4,5.0,0.0,6.68,1,1
c1cr7swm8cp768y8j7e97gl3,3,0,a28,7,2.0,0.0,11.413,1,1
c1cr7swm8cp768y8j7e97gl3,4,0,a36,1,3.0,0.0,8.268,1,1
c1cr7swm8cp768y8j7e97gl3,5,0,a43,4,4.0,1.0,17.225,1,1
c1cr7swm8cp768y8j7e97gl3,6,0,a48,5,5.0,1.0,24.674,1,1
c1cr7swm8cp768y8j7e97gl3,7,0,a49,6,2.0,0.0,8.254,1,1
c1cr7swm8cp768y8j7e97gl3,8,0,a53,0,6.0,0.0,9.849,1,1
c1cr7swm8cp768y8j7e97gl3,9,0,a55,1,6.0,0.0,11.793,1,1
ck4zb9uvfwb2zd9tvm2nnppc,1,0,a11,4,4.0,1.0,5.704,1,1
ck4zb9uvfwb2zd9tvm2nnppc,2,0,a24,4,3.0,0.0,10.794,1,1
ck4zb9uvfwb2zd9tvm2nnppc,3,0,a28,7,7.0,1.0,5.888,1,1
ck4zb9uvfwb2zd9tvm2nnppc,4,0,a36,1,2.0,0.0,7.959,1,1
ck4zb9uvfwb2zd9tvm2nnppc,5,0,a43,4,3.0,0.0,10.892,1,1
ck4zb9uvfwb2zd9tvm2nnppc,6,0,a48,5,4.0,0.0,9.835,1,1
ck4zb9uvfwb2zd9tvm2nnppc,7,0,a49,6,6.0,1.0,5.19,1,1
ck4zb9uvfwb2zd9tvm2nnppc,8,0,a53,0,6.0,0.0,5.198,1,1
ck4zb9uvfwb2zd9tvm2nnppc,9,0,a55,1,0.0,0.0,12.323,1,1
cms7kf4brehgpcri2lg3rgxg,1,0,a11,4,5.0,0.0,9.245,1,1
cms7kf4brehgpcri2lg3rgxg,2,0,a24,4,4.0,1.0,8.483,1,1
cms7kf4brehgpcri2lg3rgxg,3,0,a28,7,7.0,1.0,21.32,1,1
cms7kf4brehgpcri2lg3rgxg,4,0,a36,1,2.0,0.0,7.642,1,1
cms7kf4brehgpcri2lg3rgxg,5,0,a43,4,3.0,0.0,9.491,1,1
cms7kf4brehgpcri2lg3rgxg,6,0,a48,5,3.0,0.0,15.123,1,1
cms7kf4brehgpcri2lg3rgxg,7,0,a49,6,6.0,1.0,7.619,1,1
cms7kf4brehgpcri2lg3rgxg,8,0,a53,0,0.0,1.0,5.451,1,1
cms7kf4brehgpcri2lg3rgxg,9,0,a55,1,6.0,0.0,7.156,1,1
cpi0rc606txwbnzng8csbehh,1,0,a11,4,4.0,1.0,18.91,1,1
cpi0rc606txwbnzng8csbehh,2,0,a24,4,4.0,1.0,9.667,1,1
cpi0rc606txwbnzng8csbehh,3,0,a28,7,7.0,1.0,7.912,1,1
cpi0rc606txwbnzng8csbehh,4,0,a36,1,1.0,1.0,10.804,1,1
cpi0rc606txwbnzng8csbehh,5,0,a43,4,7.0,0.0,20.365,1,1
cpi0rc606txwbnzng8csbehh,6,0,a48,5,5.0,1.0,24.167,1,1
cpi0rc606txwbnzng8csbehh,7,0,a49,6,6.0,1.0,5.646,1,1
cpi0rc606txwbnzng8csbehh,8,0,a53,0,0.0,1.0,25.097,1,1
cpi0rc606txwbnzng8csbehh,9,0,a55,1,,,,1,1
cqvci3ad1gu7wfbhvolbec6j,1,0,a11,4,0.0,0.0,10.084,1,1
cqvci3ad1gu7wfbhvolbec6j,2,0,a24,4,5.0,0.0,13.085,1,1
cqvci3ad1gu7wfbhvolbec6j,3,0,a28,7,7.0,1.0,15.4,1,1
cqvci3ad1gu7wfbhvolbec6j,4,0,a36,1,3.0,0.0,15.044,1,1
cqvci3ad1gu7wfbhvolbec6j,5,0,a43,4,0.0,0.0,12.118,1,1
cqvci3ad1gu7wfbhvolbec6j,6,0,a48,5,1.0,0.0,11.57,1,1
cqvci3ad1gu7wfbhvolbec6j,7,0,a49,6,2.0,0.0,14.263,1,1
cqvci3ad1gu7wfbhvolbec6j,8,0,a53,0,3.0,0.0,15.962,1,1
cqvci3ad1gu7wfbhvolbec6j,9,0,a55,1,6.0,0.0,9.866,1,1
cwumi80ylidp948x4zrkpvmh,1,0,a11,4,4.0,1.0,9.581,1,1
cwumi80ylidp948x4zrkpvmh,2,0,a24,4,4.0,1.0,7.459,1,1
cwumi80ylidp948x4zrkpvmh,3,0,a28,7,7.0,1.0,6.807,1,1
cwumi80ylidp948x4zrkpvmh,4,0,a36,1,3.0,0.0,15.75,1,1
cwumi80ylidp948x4zrkpvmh,5,0,a43,4,4.0,1.0,18.421,1,1
cwumi80ylidp948x4zrkpvmh,6,0,a48,5,4.0,0.0,24.802,1,1
cwumi80ylidp948x4zrkpvmh,7,0,a49,6,6.0,1.0,7.776,1,1
cwumi80ylidp948x4zrkpvmh,8,0,a53,0,0.0,1.0,17.742,1,1
cwumi80ylidp948x4zrkpvmh,9,0,a55,1,1.0,1.0,20.052,1,1
dcy9104gdsr10ykzyoulptbd,1,0,a11,4,3.0,0.0,17.405,1,1
dcy9104gdsr10ykzyoulptbd,2,0,a24,4,0.0,0.0,8.669,1,1
dcy9104gdsr10ykzyoulptbd,3,0,a28,7,7.0,1.0,15.051,1,1
dcy9104gdsr10ykzyoulptbd,4,0,a36,1,3.0,0.0,24.361,1,1
dcy9104gdsr10ykzyoulptbd,5,0,a43,4,1.0,0.0,19.339,1,1
dcy9104gdsr10ykzyoulptbd,6,0,a48,5,7.0,0.0,24.002,1,1
dcy9104gdsr10ykzyoulptbd,7,0,a49,6,6.0,1.0,18.115,1,1
dcy9104gdsr10ykzyoulptbd,8,0,a53,0,5.0,0.0,11.238,1,1
dcy9104gdsr10ykzyoulptbd,9,0,a55,1,3.0,0.0,18.062,1,1
djol2j7uiqgmvp9714pg30d8,1,0,a11,4,4.0,1.0,4.574,1,1
djol2j7uiqgmvp9714pg30d8,2,0,a24,4,5.0,0.0,4.718,1,1
djol2j7uiqgmvp9714pg30d8,3,0,a28,7,2.0,0.0,4.48,1,1
djol2j7uiqgmvp9714pg30d8,4,0,a36,1,3.0,0.0,9.376,1,1
djol2j7uiqgmvp9714pg30d8,5,0,a43,4,0.0,0.0,11.208,1,1
djol2j7uiqgmvp9714pg30d8,6,0,a48,5,3.0,0.0,7.719,1,1
djol2j7uiqgmvp9714pg30d8,7,0,a49,6,6.0,1.0,7.912,1,1
djol2j7uiqgmvp9714pg30d8,8,0,a53,0,5.0,0.0,12.008,1,1
djol2j7uiqgmvp9714pg30d8,9,0,a55,1,6.0,0.0,7.079,1,1
dlj50w7jk456t27r2dk796nj,1,0,a11,4,4.0,1.0,7.139,1,1
dlj50w7jk456t27r2dk796nj,2,0,a24,4,4.0,1.0,7.61,1,1
dlj50w7jk456t27r2dk796nj,3,0,a28,7,7.0,1.0,3.827,1,1
dlj50w7jk456t27r2dk796nj,4,0,a36,1,2.0,0.0,8.642,1,1
dlj50w7jk456t27r2dk796nj,5,0,a43,4,7.0,0.0,4.777,1,1
dlj50w7jk456t27r2dk796nj,6,0,a48,5,6.0,0.0,5.33,1,1
dlj50w7jk456t27r2dk796nj,7,0,a49,6,0.0,0.0,5.473,1,1
dlj50w7jk456t27r2dk796nj,8,0,a53,0,6.0,0.0,2.758,1,1
dlj50w7jk456t27r2dk796nj,9,0,a55,1,4.0,0.0,3.261,1,1
dlk8tfmgohkx5r9vjy4nqu4y,1,0,a11,4,4.0,1.0,8.055,1,1
dlk8tfmgohkx5r9vjy4nqu4y,2,0,a24,4,0.0,0.0,7.221,1,1
dlk8tfmgohkx5r9vjy4nqu4y,3,0,a28,7,7.0,1.0,10.36,1,1
dlk8tfmgohkx5r9vjy4nqu4y,4,0,a36,1,0.0,0.0,14.784,1,1
dlk8tfmgohkx5r9vjy4nqu4y,5,0,a43,4,6.0,0.0,18.944,1,1
dlk8tfmgohkx5r9vjy4nqu4y,6,0,a48,5,2.0,0.0,17.204,1,1
dlk8tfmgohkx5r9vjy4nqu4y,7,0,a49,6,6.0,1.0,7.121,1,1
dlk8tfmgohkx5r9vjy4nqu4y,8,0,a53,0,0.0,1.0,7.992,1,1
dlk8tfmgohkx5r9vjy4nqu4y,9,0,a55,1,1.0,1.0,27.459,1,1
dpi2tbj86n1ir92x0tvwys4s,1,0,a11,4,4.0,1.0,17.593,1,1
dpi2tbj86n1ir92x0tvwys4s,2,0,a24,4,5.0,0.0,21.225,1,1
dpi2tbj86n1ir92x0tvwys4s,3,0,a28,7,7.0,1.0,27.969,1,1
dpi2tbj86n1ir92x0tvwys4s,4,0,a36,1,3.0,0.0,22.733,1,1
dpi2tbj86n1ir92x0tvwys4s,5,0,a43,4,4.0,1.0,17.75,1,1
dpi2tbj86n1ir92x0tvwys4s,6,0,a48,5,0.0,0.0,21.966,1,1
dpi2tbj86n1ir92x0tvwys4s,7,0,a49,6,6.0,1.0,24.57,1,1
dpi2tbj86n1ir92x0tvwys4s,8,0,a53,0,0.0,1.0,18.11,1,1
dpi2tbj86n1ir92x0tvwys4s,9,0,a55,1,5.0,0.0,22.249,1,1
dqc8kf548l4tra17tjdor5im,1,0,a11,4,4.0,1.0,18.097,1,1
dqc8kf548l4tra17tjdor5im,2,0,a24,4,4.0,1.0,13.399,1,1
dqc8kf548l4tra17tjdor5im,3,0,a28,7,7.0,1.0,13.151,1,1
dqc8kf548l4tra17tjdor5im,4,0,a36,1,2.0,0.0,15.879,1,1
dqc8kf548l4tra17tjdor5im,5,0,a43,4,7.0,0.0,26.489,1,1
dqc8kf548l4tra17tjdor5im,6,0,a48,5,7.0,0.0,14.464,1,1
dqc8kf548l4tra17tjdor5im,7,0,a49,6,6.0,1.0,11.096,1,1
dqc8kf548l4tra17tjdor5im,8,0,a53,0,1.0,0.0,28.488,1,1
dqc8kf548l4tra17tjdor5im,9,0,a55,1,2.0,0.0,21.728,1,1
dt5mvy4s5ooheslxv4zb4b09,1,0,a11,4,2.0,0.0,9.413,1,1
dt5mvy4s5ooheslxv4zb4b09,2,0,a24,4,4.0,1.0,21.372,1,1
dt5mvy4s5ooheslxv4zb4b09,3,0,a28,7,7.0,1.0,4.205,1,1
dt5mvy4s5ooheslxv4zb4b09,4,0,a36,1,5.0,0.0,9.286,1,1
dt5mvy4s5ooheslxv4zb4b09,5,0,a43,4,4.0,1.0,22.923,1,1
dt5mvy4s5ooheslxv4zb4b09,6,0,a48,5,5.0,1.0,19.688,1,1
dt5mvy4s5ooheslxv4zb4b09,7,0,a49,6,2.0,0.0,8.098,1,1
dt5mvy4s5ooheslxv4zb4b09,8,0,a53,0,6.0,0.0,9.61,1,1
dt5mvy4s5ooheslxv4zb4b09,9,0,a55,1,6.0,0.0,6.584,1,1
e4m1oih7yz88rmgt5goj92z1,1,0,a11,4,4.0,1.0,12.663,1,1
e4m1oih7yz88rmgt5goj92z1,2,0,a24,4,4.0,1.0,10.13,1,1
e4m1oih7yz88rmgt5goj92z1,3,0,a28,7,7.0,1.0,7.877,1,1
e4m1oih7yz88rmgt5goj92z1,4,0,a36,1,5.0,0.0,12.134,1,1
e4m1oih7yz88rmgt5goj92z1,5,0,a43,4,4.0,1.0,9.896,1,1
e4m1oih7yz88rmgt5goj92z1,6,0,a48,5,7.0,0.0,16.191,1,1
e4m1oih7yz88rmgt5goj92z1,7,0,a49,6,6.0,1.0,4.772,1,1
e4m1oih7yz88rmgt5goj92z1,8,0,a53,0,0.0,1.0,4.258,1,1
e4m1oih7yz88rmgt5goj92z1,9,0,a55,1,1.0,1.0,28.119,1,1
e6kykc6w0nk75jrwgipzq7p5,1,0,a11,4,4.0,1.0,15.798,1,1
e6kykc6w0nk75jrwgipzq7p5,2,0,a24,4,5.0,0.0,28.254,1,1
e6kykc6w0nk75jrwgipzq7p5,3,0,a28,7,7.0,1.0,10.354,1,1
e6kykc6w0nk75jrwgipzq7p5,4,0,a36,1,2.0,0.0,9.108,1,1
e6kykc6w0nk75jrwgipzq7p5,5,0,a43,4,4.0,1.0,15.137,1,1
e6kykc6w0nk75jrwgipzq7p5,6,0,a48,5,4.0,0.0,21.589,1,1
e6kykc6w0nk75jrwgipzq7p5,7,0,a49,6,6.0,1.0,6.625,1,1
e6kykc6w0nk75jrwgipzq7p5,8,0,a53,0,0.0,1.0,18.795,1,1
e6kykc6w0nk75jrwgipzq7p5,9,0,a55,1,2.0,0.0,28.373,1,1
e7r78rvx68h889z5s8bw2oje,1,0,a11,4,0.0,0.0,15.776,1,1
e7r78rvx68h889z5s8bw2oje,2,0,a24,4,3.0,0.0,8.612,1,1
e7r78rvx68h889z5s8bw2oje,3,0,a28,7,7.0,1.0,22.569,1,1
e7r78rvx68h889z5s8bw2oje,4,0,a36,1,3.0,0.0,21.013,1,1
e7r78rvx68h889z5s8bw2oje,5,0,a43,4,4.0,1.0,9.582,1,1
e7r78rvx68h889z5s8bw2oje,6,0,a48,5,6.0,0.0,12.215,1,1
e7r78rvx68h889z5s8bw2oje,7,0,a49,6,6.0,1.0,7.756,1,1
e7r78rvx68h889z5s8bw2oje,8,0,a53,0,0.0,1.0,6.349,1,1
e7r78rvx68h889z5s8bw2oje,9,0,a55,1,3.0,0.0,8.965,1,1
ekutekespgrtnq0xcv8pp589,1,0,a11,4,4.0,1.0,8.727,1,1
ekutekespgrtnq0xcv8pp589,2,0,a24,4,5.0,0.0,20.479,1,1
ekutekespgrtnq0xcv8pp589,3,0,a28,7,7.0,1.0,12.773,1,1
ekutekespgrtnq0xcv8pp589,4,0,a36,1,4.0,0.0,28.628,1,1
ekutekespgrtnq0xcv8pp589,5,0,a43,4,4.0,1.0,17.205,1,1
ekutekespgrtnq0xcv8pp589,6,0,a48,5,,,,1,1
ekutekespgrtnq0xcv8pp589,7,0,a49,6,6.0,1.0,9.935,1,1
ekutekespgrtnq0xcv8pp589,8,0,a53,0,0.0,1.0,13.495,1,1
ekutekespgrtnq0xcv8pp589,9,0,a55,1,7.0,0.0,25.191,1,1
eol7onsaj3kk3rj2qephzji5,1,0,a11,4,4.0,1.0,7.104,1,1
eol7onsaj3kk3rj2qephzji5,2,0,a24,4,4.0,1.0,13.167,1,1
eol7onsaj3kk3rj2qephzji5,3,0,a28,7,7.0,1.0,7.072,1,1
eol7onsaj3kk3rj2qephzji5,4,0,a36,1,1.0,1.0,11.673,1,1
eol7onsaj3kk3rj2qephzji5,5,0,a43,4,4.0,1.0,14.621,1,1
eol7onsaj3kk3rj2qephzji5,6,0,a48,5,6.0,0.0,23.452,1,1
eol7onsaj3kk3rj2qephzji5,7,0,a49,6,6.0,1.0,5.038,1,1
eol7onsaj3kk3rj2qephzji5,8,0,a53,0,0.0,1.0,9.869,1,1
eol7onsaj3kk3rj2qephzji5,9,0,a55,1,3.0,0.0,29.47,1,1
epi2hlcb520rrrqp8u34558b,1,0,a11,4,0.0,0.0,6.47,1,1
epi2hlcb520rrrqp8u34558b,2,0,a24,4,4.0,1.0,18.895,1,1
epi2hlcb520rrrqp8u34558b,3,0,a28,7,7.0,1.0,19.999,1,1
epi2hlcb520rrrqp8u34558b,4,0,a36,1,2.0,0.0,29.372,1,1
epi2hlcb520rrrqp8u34558b,5,0,a43,4,4.0,1.0,23.643,1,1
epi2hlcb520rrrqp8u34558b,6,0,a48,5,6.0,0.0,28.555,1,1
epi2hlcb520rrrqp8u34558b,7,0,a49,6,6.0,1.0,14.184,1,1
epi2hlcb520rrrqp8u34558b,8,0,a53,0,0.0,1.0,15.27,1,1
epi2hlcb520rrrqp8u34558b,9,0,a55,1,,,,1,1
f6rvmd6lclf67mrz1c8bydgo,1,0,a11,4,4.0,1.0,10.587,1,1
f6rvmd6lclf67mrz1c8bydgo,2,0,a24,4,4.0,1.0,10.784,1,1
f6rvmd6lclf67mrz1c8bydgo,3,0,a28,7,7.0,1.0,25.123,1,1
f6rvmd6lclf67mrz1c8bydgo,4,0,a36,1,4.0,0.0,29.248,1,1
f6rvmd6lclf67mrz1c8bydgo,5,0,a43,4,4.0,1.0,23.134,1,1
f6rvmd6lclf67mrz1c8bydgo,6,0,a48,5,7.0,0.0,28.287,1,1
f6rvmd6lclf67mrz1c8bydgo,7,0,a49,6,6.0,1.0,14.066,1,1
f6rvmd6lclf67mrz1c8bydgo,8,0,a53,0,0.0,1.0,20.757,1,1
f6rvmd6lclf67mrz1c8bydgo,9,0,a55,1,1.0,1.0,18.664,1,1
fc4n9bak7f6v4vs1hnfzis64,1,0,a11,4,5.0,0.0,6.256,1,1
fc4n9bak7f6v4vs1hnfzis64,2,0,a24,4,2.0,0.0,9.675,1,1
fc4n9bak7f6v4vs1hnfzis64,3,0,a28,7,7.0,1.0,9.629,1,1
fc4n9bak7f6v4vs1hnfzis64,4,0,a36,1,3.0,0.0,13.198,1,1
fc4n9bak7f6v4vs1hnfzis64,5,0,a43,4,4.0,1.0,9.127,1,1
fc4n9bak7f6v4vs1hnfzis64,6,0,a48,5,6.0,0.0,6.228,1,1
fc4n9bak7f6v4vs1hnfzis64,7,0,a49,6,6.0,1.0,8.655,1,1
fc4n9bak7f6v4vs1hnfzis64,8,0,a53,0,0.0,1.0,6.587,1,1
fc4n9bak7f6v4vs1hnfzis64,9,0,a55,1,7.0,0.0,9.929,1,1
ffhzxkf8kag2l4t65ktaeuim,1,0,a11,4,5.0,0.0,4.764,1,1
ffhzxkf8kag2l4t65ktaeuim,2,0,a24,4,4.0,1.0,8.988,1,1
ffhzxkf8kag2l4t65ktaeuim,3,0,a28,7,3.0,0.0,16.456,1,1
ffhzxkf8kag2l4t65ktaeuim,4,0,a36,1,3.0,0.0,18.293,1,1
ffhzxkf8kag2l4t65ktaeuim,5,0,a43,4,4.0,1.0,18.127,1,1
ffhzxkf8kag2l4t65ktaeuim,6,0,a48,5,4.0,0.0,24.751,1,1
ffhzxkf8kag2l4t65ktaeuim,7,0,a49,6,6.0,1.0,9.714,1,1
ffhzxkf8kag2l4t65ktaeuim,8,0,a53,0,0.0,1.0,10.505,1,1
ffhzxkf8kag2l4t65ktaeuim,9,0,a55,1,3.0,0.0,23.854,1,1
fh25hhuw95dfsfjolfay7wwm,1,0,a11,4,4.0,1.0,15.548,1,1
fh25hhuw95dfsfjolfay7wwm,2,0,a24,4,0.0,0.0,17.423,1,1
fh25hhuw95dfsfjolfay7wwm,3,0,a28,7,7.0,1.0,11.63,1,1
fh25hhuw95dfsfjolfay7wwm,4,0,a36,1,2.0,0.0,26.691,1,1
fh25hhuw95dfsfjolfay7wwm,5,0,a43,4,4.0,1.0,28.617,1,1
fh25hhuw95dfsfjolfay7wwm,6,0,a48,5,7.0,0.0,21.049,1,1
fh25hhuw95dfsfjolfay7wwm,7,0,a49,6,6.0,1.0,14.385,1,1
fh25hhuw95dfsfjolfay7wwm,8,0,a53,0,0.0,1.0,15.06,1,1
fh25hhuw95dfsfjolfay7wwm,9,0,a55,1,2.0,0.0,25.041,1,1
fh8fuwctemnety664boysq6l,1,0,a11,4,0.0,0.0,11.848,1,1
fh8fuwctemnety664boysq6l,2,0,a24,4,3.0,0.0,10.359,1,1
fh8fuwctemnety664boysq6l,3,0,a28,7,7.0,1.0,3.559,1,1
fh8fuwctemnety664boysq6l,4,0,a36,1,6.0,0.0,1.791,1,1
fh8fuwctemnety664boysq6l,5,0,a43,4,7.0,0.0,13.456,1,1
fh8fuwctemnety664boysq6l,6,0,a48,5,1.0,0.0,2.769,1,1
fh8fuwctemnety664boysq6l,7,0,a49,6,3.0,0.0,5.099,1,1
fh8fuwctemnety664boysq6l,8,0,a53,0,0.0,1.0,9.185,1,1
fh8fuwctemnety664boysq6l,9,0,a55,1,2.0,0.0,1.697,1,1
fl8dw8pb32m795ndh1n4ftew,1,0,a11,4,5.0,0.0,7.795,1,1
fl8dw8pb32m795ndh1n4ftew,2,0,a24,4,1.0,0.0,14.323,1,1
fl8dw8pb32m795ndh1n4ftew,3,0,a28,7,7.0,1.0,11.058,1,1
fl8dw8pb32m795ndh1n4ftew,4,0,a36,1,2.0,0.0,11.154,1,1
fl8dw8pb32m795ndh1n4ftew,5,0,a43,4,1.0,0.0,15.947,1,1
fl8dw8pb32m795ndh1n4ftew,6,0,a48,5,7.0,0.0,13.09,1,1
fl8dw8pb32m795ndh1n4ftew,7,0,a49,6,0.0,0.0,5.643,1,1
fl8dw8pb32m795ndh1n4ftew,8,0,a53,0,0.0,1.0,9.098,1,1
fl8dw8pb32m795ndh1n4ftew,9,0,a55,1,4.0,0.0,8.81,1,1
fo0npe4gmaatcrv2emeddmi8,1,0,a11,4,4.0,1.0,11.815,1,1
fo0npe4gmaatcrv2emeddmi8,2,0,a24,4,1.0,0.0,12.452,1,1
fo0npe4gmaatcrv2emeddmi8,3,0,a28,7,7.0,1.0,5.432,1,1
fo0npe4gmaatcrv2emeddmi8,4,0,a36,1,1.0,1.0,14.269,1,1
fo0npe4gmaatcrv2emeddmi8,5,0,a43,4,4.0,1.0,10.973,1,1
fo0npe4gmaatcrv2emeddmi8,6,0,a48,5,6.0,0.0,14.78,1,1
fo0npe4gmaatcrv2emeddmi8,7,0,a49,6,6.0,1.0,4.944,1,1
fo0npe4gmaatcrv2emeddmi8,8,0,a53,0,6.0,0.0,16.506,1,1
fo0npe4gmaatcrv2emeddmi8,9,0,a55,1,6.0,0.0,24.364,1,1
fp80a7dmu67cidx6sb7ongc1,1,0,a11,4,3.0,0.0,17.624,1,1
fp80a7dmu67cidx6sb7ongc1,2,0,a24,4,5.0,0.0,10.529,1,1
fp80a7dmu67cidx6sb7ongc1,3,0,a28,7,7.0,1.0,10.272,1,1
fp80a7dmu67cidx6sb7ongc1,4,0,a36,1,5.0,0.0,14.58,1,1
fp80a7dmu67cidx6sb7ongc1,5,0,a43,4,4.0,1.0,9.689,1,1
fp80a7dmu67cidx6sb7ongc1,6,0,a48,5,6.0,0.0,22.666,1,1
fp80a7dmu67cidx6sb7ongc1,7,0,a49,6,6.0,1.0,9.876,1,1
fp80a7dmu67cidx6sb7ongc1,8,0,a53,0,6.0,0.0,14.702,1,1
fp80a7dmu67cidx6sb7ongc1,9,0,a55,1,7.0,0.0,6.043,1,1
ftd8u650hppcazo0tvhmvzir,1,0,a11,4,4.0,1.0,13.353,1,1
ftd8u650hppcazo0tvhmvzir,2,0,a24,4,4.0,1.0,8.81,1,1
ftd8u650hppcazo0tvhmvzir,3,0,a28,7,7.0,1.0,13.582,1,1
ftd8u650hppcazo0tvhmvzir,4,0,a36,1,2.0,0.0,16.669,1,1
ftd8u650hppcazo0tvhmvzir,5,0,a43,4,4.0,1.0,11.509,1,1
ftd8u650hppcazo0tvhmvzir,6,0,a48,5,3.0,0.0,17.431,1,1
ftd8u650hppcazo0tvhmvzir,7,0,a49,6,6.0,1.0,11.918,1,1
ftd8u650hppcazo0tvhmvzir,8,0,a53,0,0.0,1.0,10.989,1,1
ftd8u650hppcazo0tvhmvzir,9,0,a55,1,6.0,0.0,20.125,1,1
g6g75cb0bp0j9046vqitfzd3,1,0,a11,4,5.0,0.0,9.079,1,1
g6g75cb0bp0j9046vqitfzd3,2,0,a24,4,4.0,1.0,11.733,1,1
g6g75cb0bp0j9046vqitfzd3,3,0,a28,7,7.0,1.0,8.405,1,1
g6g75cb0bp0j9046vqitfzd3,4,0,a36,1,1.0,1.0,13.212,1,1
g6g75cb0bp0j9046vqitfzd3,5,0,a43,4,4.0,1.0,17.885,1,1
g6g75cb0bp0j9046vqitfzd3,6,0,a48,5,7.0,0.0,19.161,1,1
g6g75cb0bp0j9046vqitfzd3,7,0,a49,6,6.0,1.0,8.295,1,1
g6g75cb0bp0j9046vqitfzd3,8,0,a53,0,0.0,1.0,8.121,1,1
g6g75cb0bp0j9046vqitfzd3,9,0,a55,1,6.0,0.0,12.963,1,1
gmyxexjsg4bsurgjr93e1oj3,1,0,a11,4,4.0,1.0,9.381,1,1
gmyxexjsg4bsurgjr93e1oj3,2,0,a24,4,3.0,0.0,27.174,1,1
gmyxexjsg4bsurgjr93e1oj3,3,0,a28,7,7.0,1.0,9.293,1,1
gmyxexjsg4bsurgjr93e1oj3,4,0,a36,1,2.0,0.0,8.78,1,1
gmyxexjsg4bsurgjr93e1oj3,5,0,a43,4,4.0,1.0,14.126,1,1
gmyxexjsg4bsurgjr93e1oj3,6,0,a48,5,6.0,0.0,13.843,1,1
gmyxexjsg4bsurgjr93e1oj3,7,0,a49,6,6.0,1.0,7.473,1,1
gmyxexjsg4bsurgjr93e1oj3,8,0,a53,0,0.0,1.0,8.525,1,1
gmyxexjsg4bsurgjr93e1oj3,9,0,a55,1,6.0,0.0,1.727,1,1
gn3uaq66vq372s8mfzsqr395,1,0,a11,4,4.0,1.0,7.438,1,1
gn3uaq66vq372s8mfzsqr395,2,0,a24,4,4.0,1.0,15.656,1,1
gn3uaq66vq372s8mfzsqr395,3,0,a28,7,3.0,0.0,14.254,1,1
gn3uaq66vq372s8mfzsqr395,4,0,a36,1,1.0,1.0,19.602,1,1
gn3uaq66vq372s8mfzsqr395,5,0,a43,4,4.0,1.0,13.244,1,1
gn3uaq66vq372s8mfzsqr395,6,0,a48,5,3.0,0.0,11.129,1,1
gn3uaq66vq372s8mfzsqr395,7,0,a49,6,6.0,1.0,7.286,1,1
gn3uaq66vq372s8mfzsqr395,8,0,a53,0,2.0,0.0,8.985,1,1
gn3uaq66vq372s8mfzsqr395,9,0,a55,1,6.0,0.0,14.652,1,1
gqhhkjgkdyhmkyt0qntzi50k,1,0,a11,4,4.0,1.0,7.256,1,1
gqhhkjgkdyhmkyt0qntzi50k,2,0,a24,4,4.0,1.0,8.399,1,1
gqhhkjgkdyhmkyt0qntzi50k,3,0,a28,7,2.0,0.0,15.763,1,1
gqhhkjgkdyhmkyt0qntzi50k,4,0,a36,1,0.0,0.0,29.594,1,1
gqhhkjgkdyhmkyt0qntzi50k,5,0,a43,4,4.0,1.0,21.269,1,1
gqhhkjgkdyhmkyt0qntzi50k,6,0,a48,5,5.0,1.0,16.742,1,1
gqhhkjgkdyhmkyt0qntzi50k,7,0,a49,6,6.0,1.0,10.389,1,1
gqhhkjgkdyhmkyt0qntzi50k,8,0,a53,0,0.0,1.0,10.018,1,1
gqhhkjgkdyhmkyt0qntzi50k,9,0,a55,1,6.0,0.0,11.013,1,1
grn07af0b93w9u7y17p2ee7k,1,0,a11,4,3.0,0.0,16.662,1,1
grn07af0b93w9u7y17p2ee7k,2,0,a24,4,4.0,1.0,13.743,1,1
grn07af0b93w9u7y17p2ee7k,3,0,a28,7,7.0,1.0,7.014,1,1
grn07af0b93w9u7y17p2ee7k,4,0,a36,1,2.0,0.0,10.709,1,1
grn07af0b93w9u7y17p2ee7k,5,0,a43,4,4.0,1.0,12.195,1,1
grn07af0b93w9u7y17p2ee7k,6,0,a48,5,6.0,0.0,12.391,1,1
grn07af0b93w9u7y17p2ee7k,7,0,a49,6,5.0,0.0,7.209,1,1
grn07af0b93w9u7y17p2ee7k,8,0,a53,0,0.0,1.0,8.078,1,1
grn07af0b93w9u7y17p2ee7k,9,0,a55,1,4.0,0.0,18.532,1,1
h3okn1gvzw6xqn0e2zh1y4ji,1,0,a11,4,4.0,1.0,23.975,1,1
h3okn1gvzw6xqn0e2zh1y4ji,2,0,a24,4,4.0,1.0,23.278,1,1
h3okn1gvzw6xqn0e2zh1y4ji,3,0,a28,7,3.0,0.0,25.917,1,1
h3okn1gvzw6xqn0e2zh1y4ji,4,0,a36,1,,,,1,1
h3okn1gvzw6xqn0e2zh1y4ji,5,0,a43,4,4.0,1.0,13.497,1,1
h3okn1gvzw6xqn0e2zh1y4ji,6,0,a48,5,6.0,0.0,27.297,1,1
h3okn1gvzw6xqn0e2zh1y4ji,7,0,a49,6,,,,1,1
h3okn1gvzw6xqn0e2zh1y4ji,8,0,a53,0,0.0,1.0,11.889,1,1
h3okn1gvzw6xqn0e2zh1y4ji,9,0,a55,1,2.0,0.0,25.575,1,1
h99fpjuxskud4vzslm7gmd5i,1,0,a11,4,4.0,1.0,3.781,1,1
h99fpjuxskud4vzslm7gmd5i,2,0,a24,4,4.0,1.0,6.437,1,1
h99fpjuxskud4vzslm7gmd5i,3,0,a28,7,7.0,1.0,13.613,1,1
h99fpjuxskud4vzslm7gmd5i,4,0,a36,1,1.0,1.0,20.163,1,1
h99fpjuxskud4vzslm7gmd5i,5,0,a43,4,4.0,1.0,11.512,1,1
h99fpjuxskud4vzslm7gmd5i,6,0,a48,5,3.0,0.0,3.432,1,1
h99fpjuxskud4vzslm7gmd5i,7,0,a49,6,6.0,1.0,9.226,1,1
h99fpjuxskud4vzslm7gmd5i,8,0,a53,0,0.0,1.0,7.273,1,1
h99fpjuxskud4vzslm7gmd5i,9,0,a55,1,2.0,0.0,19.914,1,1
hcpmucad9d7jzr84oc96styk,1,0,a11,4,4.0,1.0,15.289,1,1
hcpmucad9d7jzr84oc96styk,2,0,a24,4,4.0,1.0,15.314,1,1
hcpmucad9d7jzr84oc96styk,3,0,a28,7,7.0,1.0,11.825,1,1
hcpmucad9d7jzr84oc96styk,4,0,a36,1,2.0,0.0,18.618,1,1
hcpmucad9d7jzr84oc96styk,5,0,a43,4,7.0,0.0,22.538,1,1
hcpmucad9d7jzr84oc96styk,6,0,a48,5,4.0,0.0,16.658,1,1
hcpmucad9d7jzr84oc96styk,7,0,a49,6,5.0,0.0,6.147,1,1
hcpmucad9d7jzr84oc96styk,8,0,a53,0,0.0,1.0,10.522,1,1
hcpmucad9d7jzr84oc96styk,9,0,a55,1,7.0,0.0,21.146,1,1
heo41dc5c2d63k8jdfz42tek,1,0,a11,4,5.0,0.0,19.77,1,1
heo41dc5c2d63k8jdfz42tek,2,0,a24,4,3.0,0.0,8.139,1,1
heo41dc5c2d63k8jdfz42tek,3,0,a28,7,7.0,1.0,8.941,1,1
heo41dc5c2d63k8jdfz42tek,4,0,a36,1,2.0,0.0,19.618,1,1
heo41dc5c2d63k8jdfz42tek,5,0,a43,4,1.0,0.0,13.176,1,1
heo41dc5c2d63k8jdfz42tek,6,0,a48,5,3.0,0.0,15.151,1,1
heo41dc5c2d63k8jdfz42tek,7,0,a49,6,2.0,0.0,25.913,1,1
heo41dc5c2d63k8jdfz42tek,8,0,a53,0,1.0,0.0,14.664,1,1
heo41dc5c2d63k8jdfz42tek,9,0,a55,1,0.0,0.0,23.456,1,1
hmsint4521grw2o2ainduy4b,1,0,a11,4,4.0,1.0,10.137,1,1
hmsint4521grw2o2ainduy4b,2,0,a24,4,1.0,0.0,7.64,1,1
hmsint4521grw2o2ainduy4b,3,0,a28,7,2.0,0.0,16.671,1,1
hmsint4521grw2o2ainduy4b,4,0,a36,1,3.0,0.0,21.431,1,1
hmsint4521grw2o2ainduy4b,5,0,a43,4,4.0,1.0,6.549,1,1
hmsint4521grw2o2ainduy4b,6,0,a48,5,4.0,0.0,12.87,1,1
hmsint4521grw2o2ainduy4b,7,0,a49,6,6.0,1.0,5.74,1,1
hmsint4521grw2o2ainduy4b,8,0,a53,0,0.0,1.0,7.63,1,1
hmsint4521grw2o2ainduy4b,9,0,a55,1,2.0,0.0,17.498,1,1
hqlxgdhvm0cdgtoduhl176lw,1,0,a11,4,3.0,0.0,4.998,1,1
hqlxgdhvm0cdgtoduhl176lw,2,0,a24,4,5.0,0.0,8.972,1,1
hqlxgdhvm0cdgtoduhl176lw,3,0,a28,7,7.0,1.0,5.786,1,1
hqlxgdhvm0cdgtoduhl176lw,4,0,a36,1,2.0,0.0,6.117,1,1
hqlxgdhvm0cdgtoduhl176lw,5,0,a43,4,7.0,0.0,6.861,1,1
hqlxgdhvm0cdgtoduhl176lw,6,0,a48,5,4.0,0.0,13.423,1,1
hqlxgdhvm0cdgtoduhl176lw,7,0,a49,6,6.0,1.0,4.285,1,1
hqlxgdhvm0cdgtoduhl176lw,8,0,a53,0,3.0,0.0,7.827,1,1
hqlxgdhvm0cdgtoduhl176lw,9,0,a55,1,7.0,0.0,9.287,1,1
hvur9ekefossv62xhobefe8u,1,0,a11,4,4.0,1.0,11.528,1,1
hvur9ekefossv62xhobefe8u,2,0,a24,4,4.0,1.0,16.144,1,1
hvur9ekefossv62xhobefe8u,3,0,a28,7,7.0,1.0,7.336,1,1
hvur9ekefossv62xhobefe8u,4,0,a36,1,1.0,1.0,15.004,1,1
hvur9ekefossv62xhobefe8u,5,0,a43,4,4.0,1.0,11.882,1,1
hvur9ekefossv62xhobefe8u,6,0,a48,5,7.0,0.0,16.728,1,1
hvur9ekefossv62xhobefe8u,7,0,a49,6,6.0,1.0,9.757,1,1
hvur9ekefossv62xhobefe8u,8,0,a53,0,0.0,1.0,18.893,1,1
hvur9ekefossv62xhobefe8u,9,0,a55,1,,,,1,1
hzbjblm6bm66f3dc3j5m9aar,1,0,a11,4,4.0,1.0,7.442,1,1
hzbjblm6bm66f3dc3j5m9aar,2,0,a24,4,0.0,0.0,11.652,1,1
hzbjblm6bm66f3dc3j5m9aar,3,0,a28,7,7.0,1.0,11.126,1,1
hzbjblm6bm66f3dc3j5m9aar,4,0,a36,1,1.0,1.0,13.966,1,1
hzbjblm6bm66f3dc3j5m9aar,5,0,a43,4,7.0,0.0,13.618,1,1
hzbjblm6bm66f3dc3j5m9aar,6,0,a48,5,7.0,0.0,10.305,1,1
hzbjblm6bm66f3dc3j5m9aar,7,0,a49,6,6.0,1.0,8.001,1,1
hzbjblm6bm66f3dc3j5m9aar,8,0,a53,0,0.0,1.0,6.556,1,1
hzbjblm6bm66f3dc3j5m9aar,9,0,a55,1,5.0,0.0,24.145,1,1
hzsldu6slefe8lljkihxjhu4,1,0,a11,4,4.0,1.0,8.698,1,1
hzsldu6slefe8lljkihxjhu4,2,0,a24,4,3.0,0.0,8.511,1,1
hzsldu6slefe8lljkihxjhu4,3,0,a28,7,7.0,1.0,20.532,1,1
hzsldu6slefe8lljkihxjhu4,4,0,a36,1,1.0,1.0,23.521,1,1
hzsldu6slefe8lljkihxjhu4,5,0,a43,4,4.0,1.0,10.676,1,1
hzsldu6slefe8lljkihxjhu4,6,0,a48,5,,,,1,1
hzsldu6slefe8lljkihxjhu4,7,0,a49,6,6.0,1.0,7.335,1,1
hzsldu6slefe8lljkihxjhu4,8,0,a53,0,5.0,0.0,17.407,1,1
hzsldu6slefe8lljkihxjhu4,9,0,a55,1,6.0,0.0,13.578,1,1
i9f8j69k50kjmc8fkb3m65yb,1,0,a11,4,4.0,1.0,8.59,1,1
i9f8j69k50kjmc8fkb3m65yb,2,0,a24,4,4.0,1.0,11.673,1,1
i9f8j69k50kjmc8fkb3m65yb,3,0,a28,7,7.0,1.0,19.394,1,1
i9f8j69k50kjmc8fkb3m65yb,4,0,a36,1,3.0,0.0,6.322,1,1
i9f8j69k50kjmc8fkb3m65yb,5,0,a43,4,,,,1,1
i9f8j69k50kjmc8fkb3m65yb,6,0,a48,5,5.0,1.0,15.613,1,1
i9f8j69k50kjmc8fkb3m65yb,7,0,a49,6,6.0,1.0,6.429,1,1
i9f8j69k50kjmc8fkb3m65yb,8,0,a53,0,0.0,1.0,7.929,1,1
i9f8j69k50kjmc8fkb3m65yb,9,0,a55,1,1.0,1.0,15.789,1,1
iafsiffrx2pmq7ciimzesy9t,1,0,a11,4,2.0,0.0,5.463,1,1
iafsiffrx2pmq7ciimzesy9t,2,0,a24,4,5.0,0.0,5.985,1,1
iafsiffrx2pmq7ciimzesy9t,3,0,a28,7,3.0,0.0,2.495,1,1
iafsiffrx2pmq7ciimzesy9t,4,0,a36,1,2.0,0.0,1.777,1,1
iafsiffrx2pmq7ciimzesy9t,5,0,a43,4,3.0,0.0,3.44,1,1
iafsiffrx2pmq7ciimzesy9t,6,0,a48,5,0.0,0.0,2.812,1,1
iafsiffrx2pmq7ciimzesy9t,7,0,a49,6,1.0,0.0,0.863,1,1
iafsiffrx2pmq7ciimzesy9t,8,0,a53,0,3.0,0.0,2.989,1,1
iafsiffrx2pmq7ciimzesy9t,9,0,a55,1,7.0,0.0,1.634,1,1
icb15dfgx9tcrcyoer6n0c5o,1,0,a11,4,4.0,1.0,13.44,1,1
icb15dfgx9tcrcyoer6n0c5o,2,0,a24,4,5.0,0.0,21.127,1,1
icb15dfgx9tcrcyoer6n0c5o,3,0,a28,7,7.0,1.0,12.298,1,1
icb15dfgx9tcrcyoer6n0c5o,4,0,a36,1,2.0,0.0,13.608,1,1
icb15dfgx9tcrcyoer6n0c5o,5,0,a43,4,4.0,1.0,13.289,1,1
icb15dfgx9tcrcyoer6n0c5o,6,0,a48,5,1.0,0.0,16.439,1,1
icb15dfgx9tcrcyoer6n0c5o,7,0,a49,6,6.0,1.0,7.655,1,1
icb15dfgx9tcrcyoer6n0c5o,8,0,a53,0,0.0,1.0,8.559,1,1
icb15dfgx9tcrcyoer6n0c5o,9,0,a55,1,,,,1,1
id3di6mf3qw1dvig1dm2sk9t,1,0,a11,4,4.0,1.0,19.056,1,1
id3di6mf3qw1dvig1dm2sk9t,2,0,a24,4,4.0,1.0,21.289,1,1
id3di6mf3qw1dvig1dm2sk9t,3,0,a28,7,,,,1,1
id3di6mf3qw1dvig1dm2sk9t,4,0,a36,1,6.0,0.0,2.345,1,1
id3di6mf3qw1dvig1dm2sk9t,5,0,a43,4,4.0,1.0,17.139,1,1
id3di6mf3qw1dvig1dm2sk9t,6,0,a48,5,4.0,0.0,28.155,1,1
id3di6mf3qw1dvig1dm2sk9t,7,0,a49,6,6.0,1.0,8.717,1,1
id3di6mf3qw1dvig1dm2sk9t,8,0,a53,0,0.0,1.0,7.811,1,1
id3di6mf3qw1dvig1dm2sk9t,9,0,a55,1,1.0,1.0,16.448,1,1
iftdbsglgz6fo6gu9vueja9e,1,0,a11,4,0.0,0.0,6.914,1,1
iftdbsglgz6fo6gu9vueja9e,2,0,a24,4,5.0,0.0,11.027,1,1
iftdbsglgz6fo6gu9vueja9e,3,0,a28,7,7.0,1.0,10.387,1,1
iftdbsglgz6fo6gu9vueja9e,4,0,a36,1,6.0,0.0,11.719,1,1
iftdbsglgz6fo6gu9vueja9e,5,0,a43,4,7.0,0.0,22.19,1,1
iftdbsglgz6fo6gu9vueja9e,6,0,a48,5,1.0,0.0,11.755,1,1
iftdbsglgz6fo6gu9vueja9e,7,0,a49,6,2.0,0.0,9.443,1,1
iftdbsglgz6fo6gu9vueja9e,8,0,a53,0,6.0,0.0,10.128,1,1
iftdbsglgz6fo6gu9vueja9e,9,0,a55,1,3.0,0.0,8.482,1,1
ifzee8k3cqw1c1sp679ha0pt,1,0,a11,4,5.0,0.0,6.181,1,1
ifzee8k3cqw1c1sp679ha0pt,2,0,a24,4,5.0,0.0,10.808,1,1
ifzee8k3cqw1c1sp679ha0pt,3,0,a28,7,7.0,1.0,7.598,1,1
ifzee8k3cqw1c1sp679ha0pt,4,0,a36,1,1.0,1.0,12.808,1,1
ifzee8k3cqw1c1sp679ha0pt,5,0,a43,4,4.0,1.0,8.509,1,1
ifzee8k3cqw1c1sp679ha0pt,6,0,a48,5,6.0,0.0,10.303,1,1
ifzee8k3cqw1c1sp679ha0pt,7,0,a49,6,6.0,1.0,4.509,1,1
ifzee8k3cqw1c1sp679ha0pt,8,0,a53,0,0.0,1.0,12.288,1,1
ifzee8k3cqw1c1sp679ha0pt,9,0,a55,1,0.0,0.0,10.95,1,1
iigcjfzwveews4u8ibkj84j5,1,0,a11,4,0.0,0.0,7.378,1,1
iigcjfzwveews4u8ibkj84j5,2,0,a24,4,4.0,1.0,12.455,1,1
iigcjfzwveews4u8ibkj84j5,3,0,a28,7,7.0,1.0,12.669,1,1
iigcjfzwveews4u8ibkj84j5,4,0,a36,1,2.0,0.0,16.605,1,1
iigcjfzwveews4u8ibkj84j5,5,0,a43,4,4.0,1.0,18.267,1,1
iigcjfzwveews4u8ibkj84j5,6,0,a48,5,6.0,0.0,25.728,1,1
iigcjfzwveews4u8ibkj84j5,7,0,a49,6,6.0,1.0,20.384,1,1
iigcjfzwveews4u8ibkj84j5,8,0,a53,0,0.0,1.0,18.651,1,1
iigcjfzwveews4u8ibkj84j5,9,0,a55,1,1.0,1.0,27.302,1,1
ik2p3bz9hemu7m01piqlf3o3,1,0,a11,4,0.0,0.0,14.579,1,1
ik2p3bz9hemu7m01piqlf3o3,2,0,a24,4,4.0,1.0,10.395,1,1
ik2p3bz9hemu7m01piqlf3o3,3,0,a28,7,7.0,1.0,11.416,1,1
ik2p3bz9hemu7m01piqlf3o3,4,0,a36,1,2.0,0.0,8.321,1,1
ik2p3bz9hemu7m01piqlf3o3,5,0,a43,4,4.0,1.0,18.593,1,1
ik2p3bz9hemu7m01piqlf3o3,6,0,a48,5,3.0,0.0,27.529,1,1
ik2p3bz9hemu7m01piqlf3o3,7,0,a49,6,6.0,1.0,14.615,1,1
ik2p3bz9hemu7m01piqlf3o3,8,0,a53,0,0.0,1.0,28.934,1,1
ik2p3bz9hemu7m01piqlf3o3,9,0,a55,1,3.0,0.0,1.581,1,1
ilnis4ke0tk939iw3yp0nz20,1,0,a11,4,2.0,0.0,9.02,1,1
ilnis4ke0tk939iw3yp0nz20,2,0,a24,4,5.0,0.0,5.035,1,1
ilnis4ke0tk939iw3yp0nz20,3,0,a28,7,1.0,0.0,6.937,1,1
ilnis4ke0tk939iw3yp0nz20,4,0,a36,1,5.0,0.0,11.312,1,1
ilnis4ke0tk939iw3yp0nz20,5,0,a43,4,0.0,0.0,7.209,1,1
ilnis4ke0tk939iw3yp0nz20,6,0,a48,5,6.0,0.0,9.867,1,1
ilnis4ke0tk939iw3yp0nz20,7,0,a49,6,3.0,0.0,8.744,1,1
ilnis4ke0tk939iw3yp0nz20,8,0,a53,0,4.0,0.0,8.238,1,1
ilnis4ke0tk939iw3yp0nz20,9,0,a55,1,6.0,0.0,9.268,1,1
imghzciz91a1mzo4vl38xsse,1,0,a11,4,4.0,1.0,10.998,1,1
imghzciz91a1mzo4vl38xsse,2,0,a24,4,4.0,1.0,10.316,1,1
imghzciz91a1mzo4vl38xsse,3,0,a28,7,7.0,1.0,16.926,1,1
imghzciz91a1mzo4vl38xsse,4,0,a36,1,2.0,0.0,27.055,1,1
imghzciz91a1mzo4vl38xsse,5,0,a43,4,4.0,1.0,13.649,1,1
imghzciz91a1mzo4vl38xsse,6,0,a48,5,5.0,1.0,17.417,1,1
imghzciz91a1mzo4vl38xsse,7,0,a49,6,6.0,1.0,8.766,1,1
imghzciz91a1mzo4vl38xsse,8,0,a53,0,0.0,1.0,11.653,1,1
imghzciz91a1mzo4vl38xsse,9,0,a55,1,1.0,1.0,28.583,1,1
isr27oejhuzzb9xa9yr62pmh,1,0,a11,4,4.0,1.0,14.02,1,1
isr27oejhuzzb9xa9yr62pmh,2,0,a24,4,4.0,1.0,7.186,1,1
isr27oejhuzzb9xa9yr62pmh,3,0,a28,7,3.0,0.0,17.434,1,1
isr27oejhuzzb9xa9yr62pmh,4,0,a36,1,4.0,0.0,24.033,1,1
isr27oejhuzzb9xa9yr62pmh,5,0,a43,4,4.0,1.0,25.729,1,1
isr27oejhuzzb9xa9yr62pmh,6,0,a48,5,7.0,0.0,17.634,1,1
isr27oejhuzzb9xa9yr62pmh,7,0,a49,6,6.0,1.0,24.064,1,1
isr27oejhuzzb9xa9yr62pmh,8,0,a53,0,0.0,1.0,18.429,1,1
isr27oejhuzzb9xa9yr62pmh,9,0,a55,1,6.0,0.0,18.175,1,1
itgkp79r1jtpkghbamfc826x,1,0,a11,4,5.0,0.0,9.794,1,1
itgkp79r1jtpkghbamfc826x,2,0,a24,4,2.0,0.0,10.414,1,1
itgkp79r1jtpkghbamfc826x,3,0,a28,7,7.0,1.0,13.092,1,1
itgkp79r1jtpkghbamfc826x,4,0,a36,1,2.0,0.0,8.633,1,1
itgkp79r1jtpkghbamfc826x,5,0,a43,4,4.0,1.0,10.498,1,1
itgkp79r1jtpkghbamfc826x,6,0,a48,5,7.0,0.0,9.896,1,1
itgkp79r1jtpkghbamfc826x,7,0,a49,6,0.0,0.0,6.57,1,1
itgkp79r1jtpkghbamfc826x,8,0,a53,0,6.0,0.0,13.558,1,1
itgkp79r1jtpkghbamfc826x,9,0,a55,1,3.0,0.0,9.673,1,1
ithpiipihxj1vrol1xjgd3s9,1,0,a11,4,4.0,1.0,12.204,1,1
ithpiipihxj1vrol1xjgd3s9,2,0,a24,4,4.0,1.0,6.169,1,1
ithpiipihxj1vrol1xjgd3s9,3,0,a28,7,3.0,0.0,26.036,1,1
ithpiipihxj1vrol1xjgd3s9,4,0,a36,1,2.0,0.0,5.965,1,1
ithpiipihxj1vrol1xjgd3s9,5,0,a43,4,4.0,1.0,11.509,1,1
ithpiipihxj1vrol1xjgd3s9,6,0,a48,5,,,,1,1
ithpiipihxj1vrol1xjgd3s9,7,0,a49,6,2.0,0.0,13.133,1,1
ithpiipihxj1vrol1xjgd3s9,8,0,a53,0,6.0,0.0,8.516,1,1
ithpiipihxj1vrol1xjgd3s9,9,0,a55,1,3.0,0.0,13.393,1,1
j6fx3v38owzqiv24tg4sv6mc,1,0,a11,4,4.0,1.0,9.73,1,1
j6fx3v38owzqiv24tg4sv6mc,2,0,a24,4,4.0,1.0,9.774,1,1
j6fx3v38owzqiv24tg4sv6mc,3,0,a28,7,7.0,1.0,9.889,1,1
j6fx3v38owzqiv24tg4sv6mc,4,0,a36,1,1.0,1.0,27.271,1,1
j6fx3v38owzqiv24tg4sv6mc,5,0,a43,4,4.0,1.0,16.174,1,1
j6fx3v38owzqiv24tg4sv6mc,6,0,a48,5,7.0,0.0,26.478,1,1
j6fx3v38owzqiv24tg4sv6mc,7,0,a49,6,6.0,1.0,11.547,1,1
j6fx3v38owzqiv24tg4sv6mc,8,0,a53,0,0.0,1.0,18.166,1,1
j6fx3v38owzqiv24tg4sv6mc,9,0,a55,1,7.0,0.0,22.213,1,1
j8joz34gjuc8izhww3zi0iya,1,0,a11,4,4.0,1.0,10.362,1,1
j8joz34gjuc8izhww3zi0iya,2,0,a24,4,3.0,0.0,17.498,1,1
j8joz34gjuc8izhww3zi0iya,3,0,a28,7,7.0,1.0,9.686,1,1
j8joz34gjuc8izhww3zi0iya,4,0,a36,1,2.0,0.0,13.328,1,1
j8joz34gjuc8izhww3zi0iya,5,0,a43,4,4.0,1.0,23.159,1,1
j8joz34gjuc8izhww3zi0iya,6,0,a48,5,3.0,0.0,15.995,1,1
j8joz34gjuc8izhww3zi0iya,7,0,a49,6,6.0,1.0,13.113,1,1
j8joz34gjuc8izhww3zi0iya,8,0,a53,0,0.0,1.0,15.318,1,1
j8joz34gjuc8izhww3zi0iya,9,0,a55,1,4.0,0.0,27.695,1,1
jgtgqyg5g1f9z98a3kl89b1m,1,0,a11,4,4.0,1.0,9.217,1,1
jgtgqyg5g1f9z98a3kl89b1m,2,0,a24,4,4.0,1.0,8.614,1,1
jgtgqyg5g1f9z98a3kl89b1m,3,0,a28,7,7.0,1.0,7.488,1,1
jgtgqyg5g1f9z98a3kl89b1m,4,0,a36,1,1.0,1.0,27.247,1,1
jgtgqyg5g1f9z98a3kl89b1m,5,0,a43,4,4.0,1.0,10.098,1,1
jgtgqyg5g1f9z98a3kl89b1m,6,0,a48,5,5.0,1.0,17.049,1,1
jgtgqyg5g1f9z98a3kl89b1m,7,0,a49,6,6.0,1.0,20.803,1,1
jgtgqyg5g1f9z98a3kl89b1m,8,0,a53,0,0.0,1.0,5.558,1,1
jgtgqyg5g1f9z98a3kl89b1m,9,0,a55,1,1.0,1.0,6.385,1,1
jh2in08c6axpytckmmy87x2h,1,0,a11,4,3.0,0.0,15.387,1,1
jh2in08c6axpytckmmy87x2h,2,0,a24,4,0.0,0.0,21.396,1,1
jh2in08c6axpytckmmy87x2h,3,0,a28,7,2.0,0.0,12.179,1,1
jh2in08c6axpytckmmy87x2h,4,0,a36,1,1.0,1.0,1.539,1,1
jh2in08c6axpytckmmy87x2h,5,0,a43,4,1.0,0.0,2.558,1,1
jh2in08c6axpytckmmy87x2h,6,0,a48,5,5.0,1.0,9.828,1,1
jh2in08c6axpytckmmy87x2h,7,0,a49,6,0.0,0.0,9.132,1,1
jh2in08c6axpytckmmy87x2h,8,0,a53,0,4.0,0.0,6.203,1,1
jh2in08c6axpytckmmy87x2h,9,0,a55,1,5.0,0.0,3.324,1,1
jk870scyu1l2ioft4zsftvv4,1,0,a11,4,5.0,0.0,10.983,1,1
jk870scyu1l2ioft4zsftvv4,2,0,a24,4,4.0,1.0,7.981,1,1
jk870scyu1l2ioft4zsftvv4,3,0,a28,7,3.0,0.0,7.394,1,1
jk870scyu1l2ioft4zsftvv4,4,0,a36,1,2.0,0.0,9.653,1,1
jk870scyu1l2ioft4zsftvv4,5,0,a43,4,6.0,0.0,14.322,1,1
jk870scyu1l2ioft4zsftvv4,6,0,a48,5,6.0,0.0,14.352,1,1
jk870scyu1l2ioft4zsftvv4,7,0,a49,6,2.0,0.0,11.048,1,1
jk870scyu1l2ioft4zsftvv4,8,0,a53,0,0.0,1.0,9.178,1,1
jk870scyu1l2ioft4zsftvv4,9,0,a55,1,7.0,0.0,13.95,1,1
jkga9dufryonz0cjysfuekme,1,0,a11,4,4.0,1.0,9.181,1,1
jkga9dufryonz0cjysfuekme,2,0,a24,4,4.0,1.0,6.69,1,1
jkga9dufryonz0cjysfuekme,3,0,a28,7,7.0,1.0,10.25,1,1
jkga9dufryonz0cjysfuekme,4,0,a36,1,2.0,0.0,10.722,1,1
jkga9dufryonz0cjysfuekme,5,0,a43,4,4.0,1.0,24.883,1,1
jkga9dufryonz0cjysfuekme,6,0,a48,5,4.0,0.0,20.674,1,1
jkga9dufryonz0cjysfuekme,7,0,a49,6,6.0,1.0,9.483,1,1
jkga9dufryonz0cjysfuekme,8,0,a53,0,0.0,1.0,9.539,1,1
jkga9dufryonz0cjysfuekme,9,0,a55,1,2.0,0.0,19.346,1,1
jmhk3ha41dfk7h8gtjcdurjr,1,0,a11,4,0.0,0.0,12.463,1,1
jmhk3ha41dfk7h8gtjcdurjr,2,0,a24,4,5.0,0.0,13.861,1,1
jmhk3ha41dfk7h8gtjcdurjr,3,0,a28,7,7.0,1.0,16.029,1,1
jmhk3ha41dfk7h8gtjcdurjr,4,0,a36,1,,,,1,1
jmhk3ha41dfk7h8gtjcdurjr,5,0,a43,4,2.0,0.0,15.558,1,1
jmhk3ha41dfk7h8gtjcdurjr,6,0,a48,5,,,,1,1
jmhk3ha41dfk7h8gtjcdurjr,7,0,a49,6,2.0,0.0,20.98,1,1
jmhk3ha41dfk7h8gtjcdurjr,8,0,a53,0,1.0,0.0,14.871,1,1
jmhk3ha41dfk7h8gtjcdurjr,9,0,a55,1,,,,1,1
jqiqjog9qp61zybum5e6r4cj,1,0,a11,4,5.0,0.0,5.776,1,1
jqiqjog9qp61zybum5e6r4cj,2,0,a24,4,1.0,0.0,5.085,1,1
jqiqjog9qp61zybum5e6r4cj,3,0,a28,7,7.0,1.0,7.877,1,1
jqiqjog9qp61zybum5e6r4cj,4,0,a36,1,5.0,0.0,7.471,1,1
jqiqjog9qp61zybum5e6r4cj,5,0,a43,4,2.0,0.0,9.873,1,1
jqiqjog9qp61zybum5e6r4cj,6,0,a48,5,4.0,0.0,22.667,1,1
jqiqjog9qp61zybum5e6r4cj,7,0,a49,6,6.0,1.0,4.072,1,1
jqiqjog9qp61zybum5e6r4cj,8,0,a53,0,3.0,0.0,9.725,1,1
jqiqjog9qp61zybum5e6r4cj,9,0,a55,1,6.0,0.0,6.351,1,1
k3cjeyoi5a4i1n77qy4j2rpj,1,0,a11,4,4.0,1.0,13.639,1,1
k3cjeyoi5a4i1n77qy4j2rpj,2,0,a24,4,4.0,1.0,6.099,1,1
k3cjeyoi5a4i1n77qy4j2rpj,3,0,a28,7,7.0,1.0,5.893,1,1
k3cjeyoi5a4i1n77qy4j2rpj,4,0,a36,1,2.0,0.0,13.098,1,1
k3cjeyoi5a4i1n77qy4j2rpj,5,0,a43,4,4.0,1.0,11.207,1,1
k3cjeyoi5a4i1n77qy4j2rpj,6,0,a48,5,4.0,0.0,15.364,1,1
k3cjeyoi5a4i1n77qy4j2rpj,7,0,a49,6,0.0,0.0,3.242,1,1
k3cjeyoi5a4i1n77qy4j2rpj,8,0,a53,0,0.0,1.0,5.908,1,1
k3cjeyoi5a4i1n77qy4j2rpj,9,0,a55,1,4.0,0.0,13.213,1,1
k6qc5b1tolegln8i4rdv31em,1,0,a11,4,4.0,1.0,23.483,1,1
k6qc5b1tolegln8i4rdv31em,2,0,a24,4,4.0,1.0,8.461,1,1
k6qc5b1tolegln8i4rdv31em,3,0,a28,7,7.0,1.0,11.324,1,1
k6qc5b1tolegln8i4rdv31em,4,0,a36,1,1.0,1.0,19.382,1,1
k6qc5b1tolegln8i4rdv31em,5,0,a43,4,4.0,1.0,8.883,1,1
k6qc5b1tolegln8i4rdv31em,6,0,a48,5,5.0,1.0,23.346,1,1
k6qc5b1tolegln8i4rdv31em,7,0,a49,6,6.0,1.0,7.127,1,1
k6qc5b1tolegln8i4rdv31em,8,0,a53,0,0.0,1.0,15.674,1,1
k6qc5b1tolegln8i4rdv31em,9,0,a55,1,5.0,0.0,27.369,1,1
k8nowypa6bgb88uujjvomfju,1,0,a11,4,2.0,0.0,14.315,1,1
k8nowypa6bgb88uujjvomfju,2,0,a24,4,5.0,0.0,20.468,1,1
k8nowypa6bgb88uujjvomfju,3,0,a28,7,7.0,1.0,15.713,1,1
k8nowypa6bgb88uujjvomfju,4,0,a36,1,5.0,0.0,14.649,1,1
k8nowypa6bgb88uujjvomfju,5,0,a43,4,6.0,0.0,29.436,1,1
k8nowypa6bgb88uujjvomfju,6,0,a48,5,4.0,0.0,23.136,1,1
k8nowypa6bgb88uujjvomfju,7,0,a49,6,2.0,0.0,27.94,1,1
k8nowypa6bgb88uujjvomfju,8,0,a53,0,0.0,1.0,10.288,1,1
k8nowypa6bgb88uujjvomfju,9,0,a55,1,6.0,0.0,28.83,1,1
k8pxuud4y1w41ytj7lpvc3lc,1,0,a11,4,4.0,1.0,28.044,1,1
k8pxuud4y1w41ytj7lpvc3lc,2,0,a24,4,,,,1,1
k8pxuud4y1w41ytj7lpvc3lc,3,0,a28,7,7.0,1.0,16.883,1,1
k8pxuud4y1w41ytj7lpvc3lc,4,0,a36,1,2.0,0.0,18.64,1,1
k8pxuud4y1w41ytj7lpvc3lc,5,0,a43,4,4.0,1.0,17.317,1,1
k8pxuud4y1w41ytj7lpvc3lc,6,0,a48,5,4.0,0.0,21.264,1,1
k8pxuud4y1w41ytj7lpvc3lc,7,0,a49,6,6.0,1.0,15.756,1,1
k8pxuud4y1w41ytj7lpvc3lc,8,0,a53,0,6.0,0.0,5.73,1,1
k8pxuud4y1w41ytj7lpvc3lc,9,0,a55,1,6.0,0.0,14.124,1,1
ka14cnda7tfm6db0ezj0aedx,1,0,a11,4,4.0,1.0,15.758,1,1
ka14cnda7tfm6db0ezj0aedx,2,0,a24,4,4.0,1.0,14.301,1,1
ka14cnda7tfm6db0ezj0aedx,3,0,a28,7,,,,1,1
ka14cnda7tfm6db0ezj0aedx,4,0,a36,1,7.0,0.0,5.323,1,1
ka14cnda7tfm6db0ezj0aedx,5,0,a43,4,0.0,0.0,7.263,1,1
ka14cnda7tfm6db0ezj0aedx,6,0,a48,5,6.0,0.0,3.664,1,1
ka14cnda7tfm6db0ezj0aedx,7,0,a49,6,3.0,0.0,1.303,1,1
ka14cnda7tfm6db0ezj0aedx,8,0,a53,0,6.0,0.0,1.532,1,1
ka14cnda7tfm6db0ezj0aedx,9,0,a55,1,4.0,0.0,1.934,1,1
kgcy8fc8chqi2vfruj3ryb9z,1,0,a11,4,4.0,1.0,11.741,1,1
kgcy8fc8chqi2vfruj3ryb9z,2,0,a24,4,4.0,1.0,9.258,1,1
kgcy8fc8chqi2vfruj3ryb9z,3,0,a28,7,3.0,0.0,7.857,1,1
kgcy8fc8chqi2vfruj3ryb9z,4,0,a36,1,1.0,1.0,15.551,1,1
kgcy8fc8chqi2vfruj3ryb9z,5,0,a43,4,4.0,1.0,10.282,1,1
kgcy8fc8chqi2vfruj3ryb9z,6,0,a48,5,4.0,0.0,21.66,1,1
kgcy8fc8chqi2vfruj3ryb9z,7,0,a49,6,6.0,1.0,10.051,1,1
kgcy8fc8chqi2vfruj3ryb9z,8,0,a53,0,6.0,0.0,25.541,1,1
kgcy8fc8chqi2vfruj3ryb9z,9,0,a55,1,0.0,0.0,14.368,1,1
khxiwhzqzepa46hcz4rybm3p,1,0,a11,4,5.0,0.0,4.288,1,1
khxiwhzqzepa46hcz4rybm3p,2,0,a24,4,5.0,0.0,14.708,1,1
khxiwhzqzepa46hcz4rybm3p,3,0,a28,7,7.0,1.0,4.977,1,1
khxiwhzqzepa46hcz4rybm3p,4,0,a36,1,5.0,0.0,9.754,1,1
khxiwhzqzepa46hcz4rybm3p,5,0,a43,4,0.0,0.0,11.954,1,1
khxiwhzqzepa46hcz4rybm3p,6,0,a48,5,1.0,0.0,4.826,1,1
khxiwhzqzepa46hcz4rybm3p,7,0,a49,6,6.0,1.0,7.385,1,1
khxiwhzqzepa46hcz4rybm3p,8,0,a53,0,3.0,0.0,4.085,1,1
khxiwhzqzepa46hcz4rybm3p,9,0,a55,1,2.0,0.0,4.516,1,1
kkrrcz9oztj8tfvo6cf35n2y,1,0,a11,4,4.0,1.0,24.666,1,1
kkrrcz9oztj8tfvo6cf35n2y,2,0,a24,4,4.0,1.0,16.095,1,1
kkrrcz9oztj8tfvo6cf35n2y,3,0,a28,7,7.0,1.0,16.913,1,1
kkrrcz9oztj8tfvo6cf35n2y,4,0,a36,1,2.0,0.0,14.702,1,1
kkrrcz9oztj8tfvo6cf35n2y,5,0,a43,4,4.0,1.0,24.432,1,1
kkrrcz9oztj8tfvo6cf35n2y,6,0,a48,5,3.0,0.0,18.013,1,1
kkrrcz9oztj8tfvo6cf35n2y,7,0,a49,6,2.0,0.0,8.008,1,1
kkrrcz9oztj8tfvo6cf35n2y,8,0,a53,0,6.0,0.0,17.295,1,1
kkrrcz9oztj8tfvo6cf35n2y,9,0,a55,1,6.0,0.0,17.693,1,1
klyy2jj143yyxlvimp6ri86u,1,0,a11,4,1.0,0.0,10.663,1,1
klyy2jj143yyxlvimp6ri86u,2,0,a24,4,4.0,1.0,8.168,1,1
klyy2jj143yyxlvimp6ri86u,3,0,a28,7,7.0,1.0,6.436,1,1
klyy2jj143yyxlvimp6ri86u,4,0,a36,1,1.0,1.0,17.352,1,1
klyy2jj143yyxlvimp6ri86u,5,0,a43,4,4.0,1.0,11.222,1,1
klyy2jj143yyxlvimp6ri86u,6,0,a48,5,5.0,1.0,23.421,1,1
klyy2jj143yyxlvimp6ri86u,7,0,a49,6,6.0,1.0,20.465,1,1
klyy2jj143yyxlvimp6ri86u,8,0,a53,0,6.0,0.0,28.42,1,1
klyy2jj143yyxlvimp6ri86u,9,0,a55,1,6.0,0.0,23.811,1,1
kw58she9cka6tn39uui2gcnp,1,0,a11,4,4.0,1.0,8.135,1,1
kw58she9cka6tn39uui2gcnp,2,0,a24,4,4.0,1.0,19.92,1,1
kw58she9cka6tn39uui2gcnp,3,0,a28,7,7.0,1.0,12.635,1,1
kw58she9cka6tn39uui2gcnp,4,0,a36,1,1.0,1.0,22.88,1,1
kw58she9cka6tn39uui2gcnp,5,0,a43,4,4.0,1.0,14.134,1,1
kw58she9cka6tn39uui2gcnp,6,0,a48,5,7.0,0.0,19.314,1,1
kw58she9cka6tn39uui2gcnp,7,0,a49,6,6.0,1.0,7.38,1,1
kw58she9cka6tn39uui2gcnp,8,0,a53,0,0.0,1.0,11.691,1,1
kw58she9cka6tn39uui2gcnp,9,0,a55,1,6.0,0.0,18.579,1,1
kx834pa56n2j1sij32zu1qii,1,0,a11,4,4.0,1.0,28.267,1,1
kx834pa56n2j1sij32zu1qii,2,0,a24,4,4.0,1.0,25.918,1,1
kx834pa56n2j1sij32zu1qii,3,0,a28,7,2.0,0.0,13.478,1,1
kx834pa56n2j1sij32zu1qii,4,0,a36,1,1.0,1.0,25.944,1,1
kx834pa56n2j1sij32zu1qii,5,0,a43,4,4.0,1.0,28.967,1,1
kx834pa56n2j1sij32zu1qii,6,0,a48,5,7.0,0.0,29.165,1,1
kx834pa56n2j1sij32zu1qii,7,0,a49,6,6.0,1.0,26.592,1,1
kx834pa56n2j1sij32zu1qii,8,0,a53,0,0.0,1.0,8.654,1,1
kx834pa56n2j1sij32zu1qii,9,0,a55,1,,,,1,1
l1nwnygu1akpmx6ipn3e78xn,1,0,a11,4,0.0,0.0,8.589,1,1
l1nwnygu1akpmx6ipn3e78xn,2,0,a24,4,5.0,0.0,11.806,1,1
l1nwnygu1akpmx6ipn3e78xn,3,0,a28,7,7.0,1.0,15.362,1,1
l1nwnygu1akpmx6ipn3e78xn,4,0,a36,1,1.0,1.0,8.93,1,1
l1nwnygu1akpmx6ipn3e78xn,5,0,a43,4,4.0,1.0,17.102,1,1
l1nwnygu1akpmx6ipn3e78xn,6,0,a48,5,7.0,0.0,13.828,1,1
l1nwnygu1akpmx6ipn3e78xn,7,0,a49,6,6.0,1.0,5.009,1,1
l1nwnygu1akpmx6ipn3e78xn,8,0,a53,0,0.0,1.0,7.254,1,1
l1nwnygu1akpmx6ipn3e78xn,9,0,a55,1,5.0,0.0,20.921,1,1
l6m44ya9hf1jsm05qwyu8n1s,1,0,a11,4,4.0,1.0,8.592,1,1
l6m44ya9hf1jsm05qwyu8n1s,2,0,a24,4,4.0,1.0,6.793,1,1
l6m44ya9hf1jsm05qwyu8n1s,3,0,a28,7,7.0,1.0,6.659,1,1
l6m44ya9hf1jsm05qwyu8n1s,4,0,a36,1,2.0,0.0,8.747,1,1
l6m44ya9hf1jsm05qwyu8n1s,5,0,a43,4,4.0,1.0,12.05,1,1
l6m44ya9hf1jsm05qwyu8n1s,6,0,a48,5,6.0,0.0,12.051,1,1
l6m44ya9hf1jsm05qwyu8n1s,7,0,a49,6,2.0,0.0,6.412,1,1
l6m44ya9hf1jsm05qwyu8n1s,8,0,a53,0,6.0,0.0,10.876,1,1
l6m44ya9hf1jsm05qwyu8n1s,9,0,a55,1,6.0,0.0,8.365,1,1
l9piynwjnl5vqeegbsosh4y4,1,0,a11,4,1.0,0.0,4.332,1,1
l9piynwjnl5vqeegbsosh4y4,2,0,a24,4,5.0,0.0,8.954,1,1
l9piynwjnl5vqeegbsosh4y4,3,0,a28,7,7.0,1.0,6.614,1,1
l9piynwjnl5vqeegbsosh4y4,4,0,a36,1,3.0,0.0,6.264,1,1
l9piynwjnl5vqeegbsosh4y4,5,0,a43,4,4.0,1.0,10.954,1,1
l9piynwjnl5vqeegbsosh4y4,6,0,a48,5,6.0,0.0,7.869,1,1
l9piynwjnl5vqeegbsosh4y4,7,0,a49,6,0.0,0.0,12.817,1,1
l9piynwjnl5vqeegbsosh4y4,8,0,a53,0,0.0,1.0,12.157,1,1
l9piynwjnl5vqeegbsosh4y4,9,0,a55,1,1.0,1.0,9.283,1,1
lcumyg3r2l43ji3yzajenmkx,1,0,a11,4,4.0,1.0,15.111,1,1
lcumyg3r2l43ji3yzajenmkx,2,0,a24,4,4.0,1.0,16.897,1,1
lcumyg3r2l43ji3yzajenmkx,3,0,a28,7,7.0,1.0,16.689,1,1
lcumyg3r2l43ji3yzajenmkx,4,0,a36,1,1.0,1.0,26.841,1,1
lcumyg3r2l43ji3yzajenmkx,5,0,a43,4,4.0,1.0,24.669,1,1
lcumyg3r2l43ji3yzajenmkx,6,0,a48,5,5.0,1.0,26.514,1,1
lcumyg3r2l43ji3yzajenmkx,7,0,a49,6,6.0,1.0,8.618,1,1
lcumyg3r2l43ji3yzajenmkx,8,0,a53,0,0.0,1.0,13.666,1,1
lcumyg3r2l43ji3yzajenmkx,9,0,a55,1,1.0,1.0,29.279,1,1
lgzvkqrqs46d2jeqth187kt6,1,0,a11,4,0.0,0.0,7.013,1,1
lgzvkqrqs46d2jeqth187kt6,2,0,a24,4,3.0,0.0,7.95,1,1
lgzvkqrqs46d2jeqth187kt6,3,0,a28,7,2.0,0.0,11.858,1,1
lgzvkqrqs46d2jeqth187kt6,4,0,a36,1,2.0,0.0,12.703,1,1
lgzvkqrqs46d2jeqth187kt6,5,0,a43,4,4.0,1.0,11.857,1,1
lgzvkqrqs46d2jeqth187kt6,6,0,a48,5,6.0,0.0,20.332,1,1
lgzvkqrqs46d2jeqth187kt6,7,0,a49,6,6.0,1.0,10.041,1,1
lgzvkqrqs46d2jeqth187kt6,8,0,a53,0,0.0,1.0,8.933,1,1
lgzvkqrqs46d2jeqth187kt6,9,0,a55,1,1.0,1.0,26.484,1,1
lhtrn0y2ly2jm911pyf4j7dk,1,0,a11,4,0.0,0.0,6.385,1,1
lhtrn0y2ly2jm911pyf4j7dk,2,0,a24,4,4.0,1.0,26.29,1,1
lhtrn0y2ly2jm911pyf4j7dk,3,0,a28,7,7.0,1.0,12.345,1,1
lhtrn0y2ly2jm911pyf4j7dk,4,0,a36,1,1.0,1.0,16.935,1,1
lhtrn0y2ly2jm911pyf4j7dk,5,0,a43,4,4.0,1.0,13.716,1,1
lhtrn0y2ly2jm911pyf4j7dk,6,0,a48,5,6.0,0.0,23.012,1,1
lhtrn0y2ly2jm911pyf4j7dk,7,0,a49,6,6.0,1.0,13.092,1,1
lhtrn0y2ly2jm911pyf4j7dk,8,0,a53,0,6.0,0.0,12.538,1,1
lhtrn0y2ly2jm911pyf4j7dk,9,0,a55,1,7.0,0.0,11.505,1,1
lnb4mnnq884abhki3y40vyn5,1,0,a11,4,4.0,1.0,25.428,1,1
lnb4mnnq884abhki3y40vyn5,2,0,a24,4,4.0,1.0,10.862,1,1
lnb4mnnq884abhki3y40vyn5,3,0,a28,7,7.0,1.0,12.978,1,1
lnb4mnnq884abhki3y40vyn5,4,0,a36,1,4.0,0.0,17.529,1,1
lnb4mnnq884abhki3y40vyn5,5,0,a43,4,4.0,1.0,13.835,1,1
lnb4mnnq884abhki3y40vyn5,6,0,a48,5,6.0,0.0,14.655,1,1
lnb4mnnq884abhki3y40vyn5,7,0,a49,6,6.0,1.0,11.132,1,1
lnb4mnnq884abhki3y40vyn5,8,0,a53,0,2.0,0.0,17.993,1,1
lnb4mnnq884abhki3y40vyn5,9,0,a55,1,5.0,0.0,12.776,1,1
lp3ff34qk43rs7a6odv4rk0t,1,0,a11,4,1.0,0.0,11.907,1,1
lp3ff34qk43rs7a6odv4rk0t,2,0,a24,4,3.0,0.0,12.434,1,1
lp3ff34qk43rs7a6odv4rk0t,3,0,a28,7,1.0,0.0,6.466,1,1
lp3ff34qk43rs7a6odv4rk0t,4,0,a36,1,1.0,1.0,3.274,1,1
lp3ff34qk43rs7a6odv4rk0t,5,0,a43,4,7.0,0.0,7.907,1,1
lp3ff34qk43rs7a6odv4rk0t,6,0,a48,5,4.0,0.0,0.667,1,1
lp3ff34qk43rs7a6odv4rk0t,7,0,a49,6,5.0,0.0,0.381,1,1
lp3ff34qk43rs7a6odv4rk0t,8,0,a53,0,6.0,0.0,0.449,1,1
lp3ff34qk43rs7a6odv4rk0t,9,0,a55,1,7.0,0.0,1.605,1,1
lzihg9s21ur09mrjq4k2cwq4,1,0,a11,4,5.0,0.0,17.512,1,1
