[{"view_history":[{"page_index":0,"viewing_time":5241.5999999996275}],"rt":5242.5,"trial_type":"instructions","trial_index":0,"time_elapsed":5255,"internal_node_id":"0.0-0.0","experiment":"validation","task_version":"2.0","jspsych_version":"6.3.1"},{"rt":14045.700000001118,"responses":{"age":"35","gender-categorical":"Female","gender-free-response":"","ethnicity":"Not Hispanic or Latino","race":["White"],"education":"High school"},"survey":"demographics","trial_type":"survey-demo","trial_index":1,"time_elapsed":19304,"internal_node_id":"0.0-1.0","experiment":"validation","task_version":"2.0","jspsych_version":"6.3.1"},{"responses":{"Q09":"3","Q06":"3","Q11":"0","Q08":"4","Q07":"3","Q10":"4","Q02":"3","Q03":"3","Q05":"4","Q04":"4","Q01":"3"},"rt":89151.40000000037,"item_order":[8,5,10,7,6,9,1,2,4,3,0],"radio_events":[6059.5999999996275,14269.599999999627,19305.900000000373,39011.800000000745,48386.09999999963,57137.800000000745,57183.199999999255,64231.09999999963,70397.69999999925,70459.19999999925,77567.30000000075,81805.59999999963,84899.5],"key_events":[],"mouse_events":[6059.5999999996275,14269.599999999627,19305.900000000373,23233.599999999627,32471.699999999255,37259.5,39011.800000000745,47517.40000000037,48386.09999999963,57137.800000000745,57183.199999999255,64231.09999999963,67799.59999999963,70397.69999999925,70459.19999999925,77567.30000000075,81805.59999999963,84899.5,89149.30000000075],"straightlining":0.45454545454545453,"zigzagging":0.5,"honeypot":0,"survey":"nfc10","trial_type":"survey-template","trial_index":2,"time_elapsed":108462,"internal_node_id":"0.0-2.0","experiment":"validation","task_version":"2.0","jspsych_version":"6.3.1","infrequency":0},{"rt":42054,"response":{"Q2":5,"Q3":5,"Q6":0,"Q1":3,"Q5":5,"Q8":0,"Q7":5,"Q4":5,"Q0":3},"question_order":[2,3,6,1,5,8,7,4,0],"survey":"sns","trial_type":"survey-likert","trial_index":3,"time_elapsed":150522,"internal_node_id":"0.0-3.0","experiment":"validation","task_version":"2.0","jspsych_version":"6.3.1","infrequency":0},{"responses":{"Q04":"4","Q07":"4","Q05":"4","Q02":"4","Q08":"4","Q09":"4","Q06":"4","Q01":"4","Q03":"4"},"rt":45514.199999999255,"item_order":[3,6,4,1,7,8,5,0,2],"radio_events":[14145.599999999627,17539.599999999627,23891.699999999255,27989.699999999255,33785.90000000037,34681.59999999963,35721.79999999888,38458.29999999888,43109.09999999963],"key_events":[],"mouse_events":[5199.299999998882,6335.5,7355.0999999996275,8713.5,10205,14145.599999999627,17539.599999999627,18905.799999998882,20021.400000000373,21451.5,23891.699999999255,24781.599999999627,27989.699999999255,33785.90000000037,34681.59999999963,35721.79999999888,36665.199999999255,37781.40000000037,38458.29999999888,43109.09999999963,45513.5],"straightlining":0.8888888888888888,"zigzagging":0.25,"honeypot":0,"survey":"pcf","trial_type":"survey-template","trial_index":4,"time_elapsed":196039,"internal_node_id":"0.0-4.0","experiment":"validation","task_version":"2.0","jspsych_version":"6.3.1","infrequency":0},{"value":0,"trial_type":"call-function","trial_index":5,"time_elapsed":196041,"internal_node_id":"0.0-5.0","experiment":"validation","task_version":"2.0","jspsych_version":"6.3.1","interactions":"[]"}]