[{"view_history":[{"page_index":0,"viewing_time":3343.4000000003725}],"rt":3343.600000000559,"trial_type":"instructions","trial_index":0,"time_elapsed":3348,"internal_node_id":"0.0-0.0","experiment":"validation","task_version":"2.0","jspsych_version":"6.3.1"},{"rt":25952.200000000186,"responses":{"age":"24","gender-categorical":"Male","gender-free-response":"","ethnicity":"Not Hispanic or Latino","race":["White"],"education":"High school"},"survey":"demographics","trial_type":"survey-demo","trial_index":1,"time_elapsed":29305,"internal_node_id":"0.0-1.0","experiment":"validation","task_version":"2.0","jspsych_version":"6.3.1"},{"responses":{"Q05":"2","Q02":"3","Q01":"3","Q06":"4","Q03":"4","Q04":"4","Q07":"4","Q09":"4","Q08":"3"},"rt":67533.5,"item_order":[4,1,0,5,2,3,6,8,7],"radio_events":[10220.899999999441,17612.799999999814,22341.200000000186,29909,37817,46707.09999999963,47794.09999999963,56554.39999999944,66022.59999999963],"key_events":[],"mouse_events":[10220.899999999441,16626.700000000186,17129.5,17612.799999999814,22341.200000000186,29909,37817,45007.09999999963,46707.09999999963,47794.09999999963,55068.09999999963,56554.39999999944,66022.59999999963,67532.79999999981],"straightlining":0.4444444444444444,"zigzagging":0.375,"honeypot":0,"survey":"pcf","trial_type":"survey-template","trial_index":2,"time_elapsed":96843,"internal_node_id":"0.0-2.0","experiment":"validation","task_version":"2.0","jspsych_version":"6.3.1","infrequency":0},{"responses":{"Q06":"1","Q08":"1","Q05":"1","Q02":"1","Q04":"1","Q11":"0","Q07":"3","Q09":"1","Q01":"1","Q03":"1","Q10":"0"},"rt":127435.5,"item_order":[5,7,4,1,3,10,6,8,0,2,9],"radio_events":[12786.899999999441,21043,37119.89999999944,41770.5,49817.09999999963,87380.79999999981,100182.59999999963,103576.89999999944,107299.29999999981,114625.19999999925,126468.69999999925],"key_events":[],"mouse_events":[12328,12786.899999999441,20597.89999999944,21043,35799,36486.59999999963,37119.89999999944,41770.5,48914.39999999944,49461.299999999814,49817.09999999963,87380.79999999981,100182.59999999963,103150.79999999981,103576.89999999944,107299.29999999981,114625.19999999925,126468.69999999925,127434.69999999925],"straightlining":0.45454545454545453,"zigzagging":0,"honeypot":0,"survey":"nfc10","trial_type":"survey-template","trial_index":3,"time_elapsed":224287,"internal_node_id":"0.0-3.0","experiment":"validation","task_version":"2.0","jspsych_version":"6.3.1","infrequency":0},{"rt":74893.10000000056,"response":{"Q1":1,"Q3":0,"Q2":0,"Q6":0,"Q7":5,"Q4":2,"Q0":0,"Q8":0,"Q5":0},"question_order":[1,3,2,6,7,4,0,8,5],"survey":"sns","trial_type":"survey-likert","trial_index":4,"time_elapsed":299185,"internal_node_id":"0.0-4.0","experiment":"validation","task_version":"2.0","jspsych_version":"6.3.1","infrequency":0},{"value":0,"trial_type":"call-function","trial_index":5,"time_elapsed":299186,"internal_node_id":"0.0-5.0","experiment":"validation","task_version":"2.0","jspsych_version":"6.3.1","interactions":"[{\"event\":\"blur\",\"trial\":1,\"time\":4788},{\"event\":\"focus\",\"trial\":1,\"time\":10206}]"}]