[{"view_history":[{"page_index":0,"viewing_time":2746.100000000093}],"rt":2746.600000000093,"trial_type":"instructions","trial_index":0,"time_elapsed":2756,"internal_node_id":"0.0-0.0","experiment":"validation","task_version":"2.0","jspsych_version":"6.3.1"},{"rt":13002.799999999814,"responses":{"age":"27","gender-categorical":"Female","gender-free-response":"","ethnicity":"Not Hispanic or Latino","race":["White"],"education":"Some college"},"survey":"demographics","trial_type":"survey-demo","trial_index":1,"time_elapsed":15768,"internal_node_id":"0.0-1.0","experiment":"validation","task_version":"2.0","jspsych_version":"6.3.1"},{"responses":{"Q03":"1","Q07":"1","Q05":"1","Q04":"0","Q06":"2","Q01":"2","Q02":"2","Q08":"3","Q09":"4"},"rt":31619,"item_order":[2,6,4,3,5,0,1,7,8],"radio_events":[8560.299999999814,9884.100000000093,11652,14587.700000000186,17491.5,20924.100000000093,24481.200000000186,26280,28862.799999999814,31169.100000000093],"key_events":[],"mouse_events":[5746.799999999814,7470,7965,8560.299999999814,9143,9447.799999999814,9884.100000000093,11652,14363.5,14587.700000000186,17491.5,20184.299999999814,20618.100000000093,20924.100000000093,24481.200000000186,25621.899999999907,26280,28862.799999999814,30866.600000000093,31169.100000000093,31611.700000000186],"straightlining":0.3333333333333333,"zigzagging":0.25,"honeypot":0,"survey":"pcf","trial_type":"survey-template","trial_index":2,"time_elapsed":47395,"internal_node_id":"0.0-2.0","experiment":"validation","task_version":"2.0","jspsych_version":"6.3.1","infrequency":0},{"rt":41431.299999999814,"response":{"Q7":4,"Q0":2,"Q2":2,"Q4":4,"Q3":5,"Q1":2,"Q8":0,"Q6":0,"Q5":4},"question_order":[7,0,2,4,3,1,8,6,5],"survey":"sns","trial_type":"survey-likert","trial_index":3,"time_elapsed":88838,"internal_node_id":"0.0-3.0","experiment":"validation","task_version":"2.0","jspsych_version":"6.3.1","infrequency":0},{"responses":{"Q04":"2","Q10":"2","Q08":"1","Q09":"1","Q06":"1","Q11":"0","Q02":"1","Q03":"2","Q01":"2","Q05":"3","Q07":"1"},"rt":45888.10000000009,"item_order":[3,9,7,8,5,10,1,2,0,4,6],"radio_events":[4118.700000000186,10391.5,13967.30000000028,16644.400000000373,18955,23875.400000000373,27865.30000000028,30480.700000000186,34991.700000000186,39574.60000000009,45169.10000000009],"key_events":[],"mouse_events":[4118.700000000186,10391.5,13421.700000000186,13967.30000000028,16200.30000000028,16644.400000000373,18955,23875.400000000373,27452.5,27865.30000000028,30480.700000000186,34991.700000000186,39574.60000000009,44798.5,45169.10000000009,45885.200000000186],"straightlining":0.5454545454545454,"zigzagging":0.5,"honeypot":0,"survey":"nfc10","trial_type":"survey-template","trial_index":4,"time_elapsed":134734,"internal_node_id":"0.0-4.0","experiment":"validation","task_version":"2.0","jspsych_version":"6.3.1","infrequency":0},{"value":0,"trial_type":"call-function","trial_index":5,"time_elapsed":134737,"internal_node_id":"0.0-5.0","experiment":"validation","task_version":"2.0","jspsych_version":"6.3.1","interactions":"[]"}]