[{"view_history":[{"page_index":0,"viewing_time":2083.6999999997206}],"rt":2084.5999999996275,"trial_type":"instructions","trial_index":0,"time_elapsed":2160,"internal_node_id":"0.0-0.0","experiment":"validation","task_version":"2.0","jspsych_version":"6.3.1"},{"rt":10644.299999999814,"responses":{"age":"26","gender-categorical":"Male","gender-free-response":"","ethnicity":"Not Hispanic or Latino","race":["White"],"education":"High school"},"survey":"demographics","trial_type":"survey-demo","trial_index":1,"time_elapsed":12814,"internal_node_id":"0.0-1.0","experiment":"validation","task_version":"2.0","jspsych_version":"6.3.1"},{"responses":{"Q03":"2","Q08":"3","Q05":"3","Q07":"3","Q01":"4","Q09":"4","Q06":"4","Q02":"4","Q04":"4"},"rt":42537.69999999972,"item_order":[2,7,4,6,0,8,5,1,3],"radio_events":[7962.600000000093,11171.799999999814,12883.100000000093,16978.69999999972,17995.100000000093,26707.399999999907,27203.69999999972,34180.19999999972,37875.799999999814,41068],"key_events":[],"mouse_events":[7962.600000000093,11171.799999999814,12883.100000000093,14627.19999999972,16082.600000000093,16450.69999999972,16978.69999999972,17995.100000000093,22402.799999999814,26707.399999999907,27203.69999999972,33275.5,33854.69999999972,34180.19999999972,37875.799999999814,41068,42532.799999999814],"straightlining":0.4444444444444444,"zigzagging":0.5,"honeypot":0,"survey":"pcf","trial_type":"survey-template","trial_index":2,"time_elapsed":55364,"internal_node_id":"0.0-2.0","experiment":"validation","task_version":"2.0","jspsych_version":"6.3.1","infrequency":0},{"rt":51412.30000000028,"response":{"Q4":3,"Q0":2,"Q3":4,"Q8":0,"Q2":3,"Q1":3,"Q7":4,"Q6":1,"Q5":3},"question_order":[4,0,3,8,2,1,7,6,5],"survey":"sns","trial_type":"survey-likert","trial_index":3,"time_elapsed":106791,"internal_node_id":"0.0-3.0","experiment":"validation","task_version":"2.0","jspsych_version":"6.3.1","infrequency":0},{"responses":{"Q05":"1","Q09":"1","Q07":"1","Q02":"1","Q10":"1","Q08":"1","Q03":"1","Q04":"1","Q11":"0","Q01":"1","Q06":"1"},"rt":63847.09999999963,"item_order":[4,8,6,1,9,7,2,3,10,0,5],"radio_events":[6998.799999999814,13270.399999999907,18558.899999999907,24719.899999999907,30591.5,36536.39999999991,39792,45193.299999999814,51024.89999999991,57409.19999999972,63081.299999999814],"key_events":[],"mouse_events":[5958.5,6998.799999999814,13270.399999999907,18558.899999999907,24719.899999999907,29631.19999999972,30591.5,36536.39999999991,39792,45193.299999999814,51024.89999999991,57409.19999999972,63081.299999999814,63842.299999999814],"straightlining":0.6363636363636364,"zigzagging":0.1,"honeypot":0,"survey":"nfc10","trial_type":"survey-template","trial_index":4,"time_elapsed":170653,"internal_node_id":"0.0-4.0","experiment":"validation","task_version":"2.0","jspsych_version":"6.3.1","infrequency":0},{"value":0,"trial_type":"call-function","trial_index":5,"time_elapsed":170660,"internal_node_id":"0.0-5.0","experiment":"validation","task_version":"2.0","jspsych_version":"6.3.1","interactions":"[]"}]