[{"view_history":[{"page_index":0,"viewing_time":1464.5}],"rt":1465.300000000745,"trial_type":"instructions","trial_index":0,"time_elapsed":1473,"internal_node_id":"0.0-0.0","experiment":"validation","task_version":"2.0","jspsych_version":"6.3.1"},{"rt":12721.10000000149,"responses":{"age":"43","gender-categorical":"Male","gender-free-response":"","ethnicity":"Not Hispanic or Latino","race":["Asian"],"education":"Some college"},"survey":"demographics","trial_type":"survey-demo","trial_index":1,"time_elapsed":14203,"internal_node_id":"0.0-1.0","experiment":"validation","task_version":"2.0","jspsych_version":"6.3.1"},{"responses":{"Q05":"1","Q10":"1","Q02":"1","Q01":"1","Q03":"1","Q09":"1","Q08":"3","Q11":"0","Q06":"1","Q07":"3","Q04":"1"},"rt":27996.199999999255,"item_order":[4,9,1,0,2,8,7,10,5,6,3],"radio_events":[3889,6151.699999999255,7152.099999997765,7894.89999999851,9693.599999997765,10251,12061.29999999702,14423.79999999702,16398.5,17586.5,21043.5,26945.5,27313.599999997765],"key_events":[],"mouse_events":[3889,6151.699999999255,7152.099999997765,7894.89999999851,9693.599999997765,10251,11166.79999999702,12061.29999999702,14423.79999999702,15831.5,16398.5,17586.5,21043.5,26945.5,27313.599999997765,27994.599999997765],"straightlining":0.45454545454545453,"zigzagging":0.1,"honeypot":0,"survey":"nfc10","trial_type":"survey-template","trial_index":2,"time_elapsed":42209,"internal_node_id":"0.0-2.0","experiment":"validation","task_version":"2.0","jspsych_version":"6.3.1","infrequency":0},{"responses":{"Q07":"3","Q02":"4","Q08":"4","Q09":"4","Q06":"4","Q01":"4","Q05":"4","Q04":"4","Q03":"4"},"rt":17150.300000000745,"item_order":[6,1,7,8,5,0,4,3,2],"radio_events":[6070.5,7018.70000000298,7580.400000002235,8440.900000002235,8748.70000000298,10339,14015.900000002235,14770.70000000298,15118.300000000745,16532.20000000298],"key_events":[],"mouse_events":[6070.5,7018.70000000298,7580.400000002235,8440.900000002235,8748.70000000298,10339,14015.900000002235,14770.70000000298,15118.300000000745,15461.60000000149,16532.20000000298,17147.300000000745],"straightlining":0.7777777777777778,"zigzagging":0.375,"honeypot":0,"survey":"pcf","trial_type":"survey-template","trial_index":3,"time_elapsed":59363,"internal_node_id":"0.0-3.0","experiment":"validation","task_version":"2.0","jspsych_version":"6.3.1","infrequency":0},{"rt":50829.199999999255,"response":{"Q6":1,"Q8":0,"Q4":4,"Q2":5,"Q0":1,"Q7":3,"Q5":1,"Q1":3,"Q3":3},"question_order":[6,8,4,2,0,7,5,1,3],"survey":"sns","trial_type":"survey-likert","trial_index":4,"time_elapsed":110203,"internal_node_id":"0.0-4.0","experiment":"validation","task_version":"2.0","jspsych_version":"6.3.1","infrequency":0},{"value":0,"trial_type":"call-function","trial_index":5,"time_elapsed":110209,"internal_node_id":"0.0-5.0","experiment":"validation","task_version":"2.0","jspsych_version":"6.3.1","interactions":"[{\"event\":\"blur\",\"trial\":4,\"time\":83843},{\"event\":\"focus\",\"trial\":4,\"time\":87667},{\"event\":\"blur\",\"trial\":4,\"time\":91582},{\"event\":\"focus\",\"trial\":4,\"time\":91889},{\"event\":\"blur\",\"trial\":4,\"time\":99439},{\"event\":\"focus\",\"trial\":4,\"time\":100622},{\"event\":\"blur\",\"trial\":4,\"time\":104646},{\"event\":\"focus\",\"trial\":4,\"time\":107308}]"}]