[{"view_history":[{"page_index":0,"viewing_time":2230.600000023842}],"rt":2231,"trial_type":"instructions","trial_index":0,"time_elapsed":2244,"internal_node_id":"0.0-0.0","experiment":"validation","task_version":"2.0","jspsych_version":"6.3.1"},{"rt":7753.400000035763,"responses":{"age":"23","gender-categorical":"Female","gender-free-response":"","ethnicity":"Not Hispanic or Latino","race":["White"],"education":"High school"},"survey":"demographics","trial_type":"survey-demo","trial_index":1,"time_elapsed":10001,"internal_node_id":"0.0-1.0","experiment":"validation","task_version":"2.0","jspsych_version":"6.3.1"},{"responses":{"Q07":"3","Q09":"3","Q10":"4","Q02":"3","Q05":"3","Q01":"3","Q04":"4","Q08":"4","Q06":"3","Q11":"0","Q03":"4"},"rt":121442.30000001192,"item_order":[6,8,9,1,4,0,3,7,5,10,2],"radio_events":[4513.400000035763,5133.200000047684,6035.300000011921,6459.5,7805.200000047684,8209.200000047684,10839.300000011921,14147.300000011921,14535.200000047684,15983.300000011921,43591.60000002384,43759.30000001192,44122.90000003576,49611.40000003576,57835.5,68619.30000001192,68823.10000002384,69465.30000001192,71503.20000004768],"key_events":[],"mouse_events":[3513.300000011921,4007.2000000476837,4513.400000035763,5133.200000047684,6035.300000011921,6459.5,7805.200000047684,8209.200000047684,10839.300000011921,14147.300000011921,14535.200000047684,14787.300000011921,14937.100000023842,15089.300000011921,15235.200000047684,15983.300000011921,43591.60000002384,43759.30000001192,44122.90000003576,48587.200000047684,49087.40000003576,49611.40000003576,57835.5,66595.40000003576,68619.30000001192,68823.10000002384,69465.30000001192,70335.40000003576,70993.10000002384,71503.20000004768,121439.70000004768],"straightlining":0.45454545454545453,"zigzagging":0.4,"honeypot":0,"survey":"nfc10","trial_type":"survey-template","trial_index":2,"time_elapsed":131451,"internal_node_id":"0.0-2.0","experiment":"validation","task_version":"2.0","jspsych_version":"6.3.1","infrequency":0},{"responses":{"Q03":"3","Q09":"4","Q07":"3","Q02":"3","Q05":"3","Q06":"3","Q01":"4","Q04":"3","Q08":"4"},"rt":83887.79999995232,"item_order":[2,8,6,1,4,5,0,3,7],"radio_events":[3250.099999964237,3526.2999999523163,4510,5019.899999976158,5850.299999952316,8406.199999988079,26134.299999952316,26940,29342.299999952316,30566.099999964237,33372.09999996424,35436.09999996424],"key_events":[],"mouse_events":[2030,3250.099999964237,3526.2999999523163,4510,5019.899999976158,5850.299999952316,8406.199999988079,23026.099999964237,23682,24718.19999998808,25928,26134.299999952316,26940,29342.299999952316,30566.099999964237,33372.09999996424,35436.09999996424,83886.19999998808],"straightlining":0.6666666666666666,"zigzagging":0.375,"honeypot":0,"survey":"pcf","trial_type":"survey-template","trial_index":3,"time_elapsed":215348,"internal_node_id":"0.0-3.0","experiment":"validation","task_version":"2.0","jspsych_version":"6.3.1","infrequency":0},{"rt":49688.80000001192,"response":{"Q6":2,"Q5":4,"Q8":0,"Q0":3,"Q3":2,"Q4":3,"Q7":4,"Q1":3,"Q2":3},"question_order":[6,5,8,0,3,4,7,1,2],"survey":"sns","trial_type":"survey-likert","trial_index":4,"time_elapsed":265045,"internal_node_id":"0.0-4.0","experiment":"validation","task_version":"2.0","jspsych_version":"6.3.1","infrequency":0},{"value":0,"trial_type":"call-function","trial_index":5,"time_elapsed":265052,"internal_node_id":"0.0-5.0","experiment":"validation","task_version":"2.0","jspsych_version":"6.3.1","interactions":"[{\"event\":\"blur\",\"trial\":2,\"time\":27365},{\"event\":\"focus\",\"trial\":2,\"time\":35309},{\"event\":\"blur\",\"trial\":2,\"time\":36606},{\"event\":\"focus\",\"trial\":2,\"time\":50791},{\"event\":\"blur\",\"trial\":2,\"time\":61899},{\"event\":\"focus\",\"trial\":2,\"time\":64170},{\"event\":\"blur\",\"trial\":2,\"time\":68397},{\"event\":\"focus\",\"trial\":2,\"time\":73388},{\"event\":\"blur\",\"trial\":2,\"time\":74692},{\"event\":\"focus\",\"trial\":2,\"time\":76554},{\"event\":\"blur\",\"trial\":2,\"time\":82769},{\"event\":\"focus\",\"trial\":2,\"time\":88717},{\"event\":\"blur\",\"trial\":2,\"time\":91069},{\"event\":\"focus\",\"trial\":2,\"time\":130314},{\"event\":\"blur\",\"trial\":3,\"time\":140275},{\"event\":\"focus\",\"trial\":3,\"time\":152311},{\"event\":\"blur\",\"trial\":3,\"time\":167707},{\"event\":\"focus\",\"trial\":3,\"time\":214414},{\"event\":\"blur\",\"trial\":4,\"time\":223384},{\"event\":\"focus\",\"trial\":4,\"time\":224869},{\"event\":\"blur\",\"trial\":4,\"time\":227356},{\"event\":\"focus\",\"trial\":4,\"time\":232576},{\"event\":\"blur\",\"trial\":4,\"time\":254710},{\"event\":\"focus\",\"trial\":4,\"time\":263443},{\"event\":\"blur\",\"trial\":4,\"time\":264370},{\"event\":\"focus\",\"trial\":4,\"time\":264451}]"}]