[{"view_history":[{"page_index":0,"viewing_time":1853.6000000238419}],"rt":1853.9000000357628,"trial_type":"instructions","trial_index":0,"time_elapsed":1857,"internal_node_id":"0.0-0.0","experiment":"validation","task_version":"2.0","jspsych_version":"6.3.1"},{"rt":9358.600000023842,"responses":{"age":"31","gender-categorical":"Male","gender-free-response":"","ethnicity":"Not Hispanic or Latino","race":["White"],"education":"Associate degree"},"survey":"demographics","trial_type":"survey-demo","trial_index":1,"time_elapsed":11217,"internal_node_id":"0.0-1.0","experiment":"validation","task_version":"2.0","jspsych_version":"6.3.1"},{"rt":41454.59999996424,"response":{"Q7":3,"Q2":4,"Q0":3,"Q1":3,"Q6":1,"Q5":2,"Q3":4,"Q4":4,"Q8":0},"question_order":[7,2,0,1,6,5,3,4,8],"survey":"sns","trial_type":"survey-likert","trial_index":2,"time_elapsed":52674,"internal_node_id":"0.0-2.0","experiment":"validation","task_version":"2.0","jspsych_version":"6.3.1","infrequency":0},{"responses":{"Q09":"4","Q08":"2","Q05":"3","Q07":"3","Q03":"3","Q02":"3","Q06":"2","Q04":"3","Q01":"3"},"rt":25555.099999964237,"item_order":[8,7,4,6,2,1,5,3,0],"radio_events":[5020.5,7586.299999952316,9200.799999952316,11176.299999952316,13386.399999976158,15938.5,17784.399999976158,18194.5,21614.799999952316,24886.399999976158],"key_events":[],"mouse_events":[5020.5,7586.299999952316,9200.799999952316,11176.299999952316,13386.399999976158,15938.5,17348.299999952316,17784.399999976158,18194.5,21614.799999952316,23716.399999976158,24600.399999976158,24886.399999976158,25554.5],"straightlining":0.6666666666666666,"zigzagging":0.375,"honeypot":0,"survey":"pcf","trial_type":"survey-template","trial_index":3,"time_elapsed":78231,"internal_node_id":"0.0-3.0","experiment":"validation","task_version":"2.0","jspsych_version":"6.3.1","infrequency":0},{"responses":{"Q08":"1","Q10":"1","Q02":"0","Q11":"0","Q04":"2","Q03":"1","Q01":"1","Q05":"1","Q07":"2","Q09":"1","Q06":"1"},"rt":37894.10000002384,"item_order":[7,9,1,10,3,2,0,4,6,8,5],"radio_events":[5177.600000023842,5517.5,16365.5,20327.600000023842,22531.600000023842,23933.400000035763,27035.400000035763,28897.700000047684,30137.600000023842,33045.30000001192,35745.80000001192,36713.40000003576],"key_events":[],"mouse_events":[5177.600000023842,5517.5,10673.700000047684,16365.5,20327.600000023842,22531.600000023842,23462.30000001192,23933.400000035763,27035.400000035763,28897.700000047684,29493.700000047684,30137.600000023842,33045.30000001192,35745.80000001192,36713.40000003576,37893.60000002384],"straightlining":0.45454545454545453,"zigzagging":0.4,"honeypot":0,"survey":"nfc10","trial_type":"survey-template","trial_index":4,"time_elapsed":116127,"internal_node_id":"0.0-4.0","experiment":"validation","task_version":"2.0","jspsych_version":"6.3.1","infrequency":0},{"value":0,"trial_type":"call-function","trial_index":5,"time_elapsed":116128,"internal_node_id":"0.0-5.0","experiment":"validation","task_version":"2.0","jspsych_version":"6.3.1","interactions":"[]"}]