[{"view_history":[{"page_index":0,"viewing_time":2465.100000143051}],"rt":2465.7000000476837,"trial_type":"instructions","trial_index":0,"time_elapsed":2481,"internal_node_id":"0.0-0.0","experiment":"validation","task_version":"2.0","jspsych_version":"6.3.1"},{"rt":8842.200000047684,"responses":{"age":"34","gender-categorical":"Female","gender-free-response":"","ethnicity":"Not Hispanic or Latino","race":["White"],"education":"Bachelor degree"},"survey":"demographics","trial_type":"survey-demo","trial_index":1,"time_elapsed":11336,"internal_node_id":"0.0-1.0","experiment":"validation","task_version":"2.0","jspsych_version":"6.3.1"},{"rt":37211.10000014305,"response":{"Q0":4,"Q5":3,"Q3":4,"Q7":5,"Q8":0,"Q2":3,"Q6":2,"Q4":5,"Q1":4},"question_order":[0,5,3,7,8,2,6,4,1],"survey":"sns","trial_type":"survey-likert","trial_index":2,"time_elapsed":48562,"internal_node_id":"0.0-2.0","experiment":"validation","task_version":"2.0","jspsych_version":"6.3.1","infrequency":0},{"responses":{"Q06":"3","Q08":"4","Q05":"4","Q07":"4","Q02":"4","Q09":"4","Q01":"4","Q04":"4","Q03":"4"},"rt":185986.20000004768,"item_order":[5,7,4,6,1,8,0,3,2],"radio_events":[170075,172488.5,175032.20000004768,176460.29999995232,179225.59999990463,180480.29999995232,180975.5,182464.20000004768,185078.5],"key_events":[],"mouse_events":[170075,172488.5,173878.5,174231.20000004768,174640.59999990463,175032.20000004768,176460.29999995232,179225.59999990463,180480.29999995232,180975.5,182464.20000004768,184724.59999990463,185078.5,185982.90000009537],"straightlining":0.7777777777777778,"zigzagging":0.375,"honeypot":0,"survey":"pcf","trial_type":"survey-template","trial_index":3,"time_elapsed":234562,"internal_node_id":"0.0-3.0","experiment":"validation","task_version":"2.0","jspsych_version":"6.3.1","infrequency":0},{"responses":{"Q03":"4","Q11":"0","Q05":"4","Q10":"3","Q01":"3","Q06":"4","Q07":"4","Q02":"4","Q09":"4","Q04":"3","Q08":"3"},"rt":33665.40000009537,"item_order":[2,10,4,9,0,5,6,1,8,3,7],"radio_events":[4478.400000095367,6295.5,11704.5,15292.5,16486.299999952316,19136.299999952316,24742.5,26170.400000095367,28733.099999904633,30253.299999952316,33255.299999952316],"key_events":[],"mouse_events":[4478.400000095367,6295.5,11704.5,13963.299999952316,15292.5,16486.299999952316,18869.099999904633,19136.299999952316,24742.5,26170.400000095367,27082.599999904633,28733.099999904633,30253.299999952316,33255.299999952316,33662.299999952316],"straightlining":0.36363636363636365,"zigzagging":0.1,"honeypot":0,"survey":"nfc10","trial_type":"survey-template","trial_index":4,"time_elapsed":268237,"internal_node_id":"0.0-4.0","experiment":"validation","task_version":"2.0","jspsych_version":"6.3.1","infrequency":0},{"value":0,"trial_type":"call-function","trial_index":5,"time_elapsed":268241,"internal_node_id":"0.0-5.0","experiment":"validation","task_version":"2.0","jspsych_version":"6.3.1","interactions":"[{\"event\":\"blur\",\"trial\":3,\"time\":94322},{\"event\":\"focus\",\"trial\":3,\"time\":202259}]"}]