[{"view_history":[{"page_index":0,"viewing_time":2942.10000000149}],"rt":2942.400000002235,"trial_type":"instructions","trial_index":0,"time_elapsed":2953,"internal_node_id":"0.0-0.0","experiment":"validation","task_version":"2.0","jspsych_version":"6.3.1"},{"rt":14056.20000000298,"responses":{"age":"21","gender-categorical":"Female","gender-free-response":"","ethnicity":"Not Hispanic or Latino","race":["Native Hawaiian or other Pacific Islander"],"education":"Some college"},"survey":"demographics","trial_type":"survey-demo","trial_index":1,"time_elapsed":17012,"internal_node_id":"0.0-1.0","experiment":"validation","task_version":"2.0","jspsych_version":"6.3.1"},{"rt":47098.800000000745,"response":{"Q7":4,"Q6":0,"Q1":3,"Q5":3,"Q2":4,"Q0":3,"Q3":4,"Q8":0,"Q4":2},"question_order":[7,6,1,5,2,0,3,8,4],"survey":"sns","trial_type":"survey-likert","trial_index":2,"time_elapsed":64114,"internal_node_id":"0.0-2.0","experiment":"validation","task_version":"2.0","jspsych_version":"6.3.1","infrequency":0},{"responses":{"Q05":"2","Q08":"3","Q02":"3","Q07":"3","Q01":"3","Q03":"3","Q06":"3","Q09":"4","Q04":"3"},"rt":32053.89999999851,"item_order":[4,7,1,6,0,2,5,8,3],"radio_events":[6604.39999999851,7681.099999997765,11651.099999997765,14728.800000000745,15659.699999999255,19900.599999997765,21888.89999999851,24836.699999999255,29240.39999999851,30905.39999999851],"key_events":[],"mouse_events":[3060.099999997765,6604.39999999851,7681.099999997765,10588.199999999255,11651.099999997765,12568.800000000745,13844.300000000745,14728.800000000745,15659.699999999255,18290.699999999255,19900.599999997765,21888.89999999851,24836.699999999255,28381,29240.39999999851,30905.39999999851,32052.099999997765],"straightlining":0.7777777777777778,"zigzagging":0.125,"honeypot":0,"survey":"pcf","trial_type":"survey-template","trial_index":3,"time_elapsed":96172,"internal_node_id":"0.0-3.0","experiment":"validation","task_version":"2.0","jspsych_version":"6.3.1","infrequency":0},{"responses":{"Q03":"3","Q09":"3","Q04":"3","Q08":"3","Q02":"3","Q05":"3","Q10":"3","Q06":"1","Q01":"2","Q11":"0","Q07":"2"},"rt":55303.900000002235,"item_order":[2,8,3,7,1,4,9,5,0,10,6],"radio_events":[6830.60000000149,11257.800000000745,16811,20924.699999999255,25089.300000000745,29152.800000000745,36312.5,40070.699999999255,43928.60000000149,48806,54338.5],"key_events":[],"mouse_events":[6830.60000000149,10468.5,11257.800000000745,16050.300000000745,16811,20924.699999999255,24155.199999999255,25089.300000000745,29152.800000000745,36312.5,40070.699999999255,43928.60000000149,48806,53560.300000000745,54338.5,55301.699999999255],"straightlining":0.36363636363636365,"zigzagging":0.1,"honeypot":0,"survey":"nfc10","trial_type":"survey-template","trial_index":4,"time_elapsed":151479,"internal_node_id":"0.0-4.0","experiment":"validation","task_version":"2.0","jspsych_version":"6.3.1","infrequency":0},{"value":0,"trial_type":"call-function","trial_index":5,"time_elapsed":151481,"internal_node_id":"0.0-5.0","experiment":"validation","task_version":"2.0","jspsych_version":"6.3.1","interactions":"[]"}]