[{"view_history":[{"page_index":0,"viewing_time":3117.899999976158}],"rt":3118.100000023842,"trial_type":"instructions","trial_index":0,"time_elapsed":3124,"internal_node_id":"0.0-0.0","experiment":"validation","task_version":"2.0","jspsych_version":"6.3.1"},{"rt":9967,"responses":{"age":"27","gender-categorical":"Female","gender-free-response":"","ethnicity":"Not Hispanic or Latino","race":["White"],"education":"Bachelor degree"},"survey":"demographics","trial_type":"survey-demo","trial_index":1,"time_elapsed":13092,"internal_node_id":"0.0-1.0","experiment":"validation","task_version":"2.0","jspsych_version":"6.3.1"},{"rt":28061.19999998808,"response":{"Q1":4,"Q4":4,"Q3":4,"Q7":4,"Q0":3,"Q5":3,"Q6":1,"Q2":3,"Q8":0},"question_order":[1,4,3,7,0,5,6,2,8],"survey":"sns","trial_type":"survey-likert","trial_index":2,"time_elapsed":41156,"internal_node_id":"0.0-2.0","experiment":"validation","task_version":"2.0","jspsych_version":"6.3.1","infrequency":0},{"responses":{"Q03":"1","Q05":"1","Q07":"2","Q11":"0","Q02":"2","Q06":"1","Q04":"1","Q08":"1","Q01":"1","Q10":"1","Q09":"1"},"rt":43748.80000001192,"item_order":[2,4,6,10,1,5,3,7,0,9,8],"radio_events":[2564.300000011921,5764.300000011921,11379.699999988079,13076.199999988079,21659.30000001192,22564,25635.899999976158,30131.599999964237,31779.30000001192,33908.09999996424,36283.89999997616,42876],"key_events":[],"mouse_events":[2564.300000011921,5036.199999988079,5764.300000011921,9899.5,10436.099999964237,11379.699999988079,13076.199999988079,21659.30000001192,22196.30000001192,22564,25108.30000001192,25635.899999976158,29307.69999998808,30131.599999964237,31308.19999998808,31779.30000001192,33283.80000001192,33908.09999996424,36283.89999997616,42467.89999997616,42876,43747.69999998808],"straightlining":0.45454545454545453,"zigzagging":0.2,"honeypot":0,"survey":"nfc10","trial_type":"survey-template","trial_index":3,"time_elapsed":84908,"internal_node_id":"0.0-3.0","experiment":"validation","task_version":"2.0","jspsych_version":"6.3.1","infrequency":0},{"responses":{"Q04":"2","Q05":"2","Q02":"3","Q01":"2","Q06":"2","Q03":"3","Q08":"3","Q07":"3","Q09":"4"},"rt":22261.5,"item_order":[3,4,1,0,5,2,7,6,8],"radio_events":[6628.599999964237,7124.899999976158,9116.899999976158,10501,12820.399999976158,15885,16948.19999998808,19180.5,21172.19999998808],"key_events":[],"mouse_events":[5708.5,6628.599999964237,7124.899999976158,9116.899999976158,10501,12365,12820.399999976158,14861,15885,16948.19999998808,19180.5,20668.599999964237,21172.19999998808,22260.69999998808],"straightlining":0.4444444444444444,"zigzagging":0.375,"honeypot":0,"survey":"pcf","trial_type":"survey-template","trial_index":4,"time_elapsed":107172,"internal_node_id":"0.0-4.0","experiment":"validation","task_version":"2.0","jspsych_version":"6.3.1","infrequency":0},{"value":0,"trial_type":"call-function","trial_index":5,"time_elapsed":107173,"internal_node_id":"0.0-5.0","experiment":"validation","task_version":"2.0","jspsych_version":"6.3.1","interactions":"[]"}]