[{"view_history":[{"page_index":0,"viewing_time":4949.300000011921}],"rt":4949.700000047684,"trial_type":"instructions","trial_index":0,"time_elapsed":4955,"internal_node_id":"0.0-0.0","experiment":"validation","task_version":"2.0","jspsych_version":"6.3.1"},{"rt":15522.400000035763,"responses":{"age":"26","gender-categorical":"Male","gender-free-response":"","ethnicity":"Not Hispanic or Latino","race":["White"],"education":"Master degree or higher"},"survey":"demographics","trial_type":"survey-demo","trial_index":1,"time_elapsed":20479,"internal_node_id":"0.0-1.0","experiment":"validation","task_version":"2.0","jspsych_version":"6.3.1"},{"responses":{"Q09":"4","Q03":"4","Q01":"3","Q11":"0","Q06":"3","Q10":"3","Q05":"4","Q08":"3","Q04":"4","Q02":"3","Q07":"3"},"rt":59945.700000047684,"item_order":[8,2,0,10,5,9,4,7,3,1,6],"radio_events":[6996.700000047684,8339,10520.700000047684,11950.700000047684,15000.600000023842,22730.900000035763,28478.5,32880.700000047684,45818.700000047684,48708.700000047684,52730.5,55972.700000047684,59196.5],"key_events":[6996.700000047684,7726.5,8339,10520.700000047684,10895,11438.700000047684,11950.700000047684,14452.300000011921,15000.600000023842,21134.700000047684,21882.600000023842,22730.900000035763,28478.5,31160.80000001192,32880.700000047684,44014.90000003576,44702.40000003576,45818.700000047684,48708.700000047684,52274.5,52730.5,55482.40000003576,55972.700000047684,59196.5,59944.5],"mouse_events":[],"straightlining":0.5454545454545454,"zigzagging":0.1,"honeypot":0,"survey":"nfc10","trial_type":"survey-template","trial_index":2,"time_elapsed":80428,"internal_node_id":"0.0-2.0","experiment":"validation","task_version":"2.0","jspsych_version":"6.3.1","infrequency":0},{"rt":44356.80000001192,"response":{"Q1":5,"Q2":5,"Q3":5,"Q7":5,"Q0":5,"Q4":4,"Q5":3,"Q8":0,"Q6":0},"question_order":[1,2,3,7,0,4,5,8,6],"survey":"sns","trial_type":"survey-likert","trial_index":3,"time_elapsed":124788,"internal_node_id":"0.0-3.0","experiment":"validation","task_version":"2.0","jspsych_version":"6.3.1","infrequency":0},{"responses":{"Q04":"3","Q08":"4","Q09":"4","Q02":"4","Q06":"3","Q05":"2","Q03":"3","Q01":"4","Q07":"4"},"rt":33717.60000002384,"item_order":[3,7,8,1,5,4,2,0,6],"radio_events":[7003,10707,13507.100000023842,16271,18334.80000001192,20230.5,21368.80000001192,23710.80000001192,29783,30993.100000023842,32958.80000001192],"key_events":[5965.100000023842,7003,9862.699999988079,10707,12780.699999988079,13507.100000023842,15361.199999988079,16271,18334.80000001192,20230.5,20722.80000001192,21368.80000001192,23710.80000001192,28798.899999976158,29783,30468.69999998808,30993.100000023842,32170.600000023842,32958.80000001192,33716.69999998808],"mouse_events":[],"straightlining":0.4444444444444444,"zigzagging":0.875,"honeypot":0,"survey":"pcf","trial_type":"survey-template","trial_index":4,"time_elapsed":158508,"internal_node_id":"0.0-4.0","experiment":"validation","task_version":"2.0","jspsych_version":"6.3.1","infrequency":0},{"value":0,"trial_type":"call-function","trial_index":5,"time_elapsed":158509,"internal_node_id":"0.0-5.0","experiment":"validation","task_version":"2.0","jspsych_version":"6.3.1","interactions":"[]"}]