[{"view_history":[{"page_index":0,"viewing_time":4258.4000000059605}],"rt":4260,"trial_type":"instructions","trial_index":0,"time_elapsed":4267,"internal_node_id":"0.0-0.0","experiment":"validation","task_version":"2.0","jspsych_version":"6.3.1"},{"rt":25826.69999998808,"responses":{"age":"32","gender-categorical":"Other","gender-free-response":"nonbinary","ethnicity":"Not Hispanic or Latino","race":["White"],"education":"Master degree or higher"},"survey":"demographics","trial_type":"survey-demo","trial_index":1,"time_elapsed":30100,"internal_node_id":"0.0-1.0","experiment":"validation","task_version":"2.0","jspsych_version":"6.3.1"},{"responses":{"Q05":"4","Q06":"4","Q03":"4","Q01":"3","Q07":"0","Q10":"3","Q11":"0","Q08":"4","Q02":"2","Q09":"4","Q04":"2"},"rt":85977.70000000298,"item_order":[4,5,2,0,6,9,10,7,1,8,3],"radio_events":[11604.5,16174.09999999404,18214.5,21195.59999999404,30350.70000000298,31674.59999999404,39720.79999999702,41478.39999999106,55607.39999999106,63603.70000000298,67566.79999999702,69949.5,74549.09999999404,79615.79999999702,83633.09999999404],"key_events":[],"mouse_events":[11604.5,16174.09999999404,18214.5,21195.59999999404,30350.70000000298,31674.59999999404,39720.79999999702,41478.39999999106,55607.39999999106,63603.70000000298,67566.79999999702,69949.5,74549.09999999404,79615.79999999702,83633.09999999404,85975.59999999404],"straightlining":0.36363636363636365,"zigzagging":0.3,"honeypot":0,"survey":"nfc10","trial_type":"survey-template","trial_index":2,"time_elapsed":116091,"internal_node_id":"0.0-2.0","experiment":"validation","task_version":"2.0","jspsych_version":"6.3.1","infrequency":0},{"responses":{"Q01":"1","Q09":"4","Q05":"0","Q04":"0","Q06":"1","Q08":"2","Q07":"3","Q03":"1","Q02":"1"},"rt":45992.59999999404,"item_order":[0,8,4,3,5,7,6,2,1],"radio_events":[4745.0999999940395,8467.29999999702,12019.29999999702,16230.59999999404,22741.19999998808,27906.69999998808,29380.09999999404,34210.39999999106,39805,44029.5,45228.19999998808],"key_events":[],"mouse_events":[4745.0999999940395,8467.29999999702,12019.29999999702,16230.59999999404,22741.19999998808,27906.69999998808,29380.09999999404,34210.39999999106,39805,44029.5,45228.19999998808,45989.19999998808],"straightlining":0.4444444444444444,"zigzagging":0.5,"honeypot":0,"survey":"pcf","trial_type":"survey-template","trial_index":3,"time_elapsed":162090,"internal_node_id":"0.0-3.0","experiment":"validation","task_version":"2.0","jspsych_version":"6.3.1","infrequency":0},{"rt":47468.19999998808,"response":{"Q1":3,"Q5":5,"Q6":0,"Q7":5,"Q3":5,"Q2":5,"Q0":1,"Q8":0,"Q4":5},"question_order":[1,5,6,7,3,2,0,8,4],"survey":"sns","trial_type":"survey-likert","trial_index":4,"time_elapsed":209568,"internal_node_id":"0.0-4.0","experiment":"validation","task_version":"2.0","jspsych_version":"6.3.1","infrequency":0},{"value":0,"trial_type":"call-function","trial_index":5,"time_elapsed":209573,"internal_node_id":"0.0-5.0","experiment":"validation","task_version":"2.0","jspsych_version":"6.3.1","interactions":"[]"}]