[{"view_history":[{"page_index":0,"viewing_time":1980.7000000476837}],"rt":1980.9000000953674,"trial_type":"instructions","trial_index":0,"time_elapsed":1990,"internal_node_id":"0.0-0.0","experiment":"validation","task_version":"2.0","jspsych_version":"6.3.1"},{"rt":10833.100000143051,"responses":{"age":"25","gender-categorical":"Female","gender-free-response":"","ethnicity":"Not Hispanic or Latino","race":["White"],"education":"Master degree or higher"},"survey":"demographics","trial_type":"survey-demo","trial_index":1,"time_elapsed":12826,"internal_node_id":"0.0-1.0","experiment":"validation","task_version":"2.0","jspsych_version":"6.3.1"},{"rt":38541.700000047684,"response":{"Q6":1,"Q2":4,"Q3":4,"Q8":0,"Q5":2,"Q0":2,"Q1":3,"Q4":3,"Q7":3},"question_order":[6,2,3,8,5,0,1,4,7],"survey":"sns","trial_type":"survey-likert","trial_index":2,"time_elapsed":51372,"internal_node_id":"0.0-2.0","experiment":"validation","task_version":"2.0","jspsych_version":"6.3.1","infrequency":0},{"responses":{"Q07":"3","Q06":"2","Q09":"3","Q02":"3","Q05":"1","Q10":"3","Q11":"0","Q08":"3","Q04":"3","Q01":"3","Q03":"3"},"rt":47910,"item_order":[6,5,8,1,4,9,10,7,3,0,2],"radio_events":[10759.200000047684,15932.100000143051,17859.300000190735,23379.60000014305,27595.900000095367,30470.300000190735,34816.800000190735,37064.60000014305,41737.40000009537,44127.5,46789.5],"key_events":[],"mouse_events":[10759.200000047684,15932.100000143051,17859.300000190735,23379.60000014305,26252.900000095367,27595.900000095367,30470.300000190735,34816.800000190735,37064.60000014305,40481.40000009537,41737.40000009537,44127.5,45845.300000190735,46789.5,47908.300000190735],"straightlining":0.6363636363636364,"zigzagging":0.2,"honeypot":0,"survey":"nfc10","trial_type":"survey-template","trial_index":3,"time_elapsed":99288,"internal_node_id":"0.0-3.0","experiment":"validation","task_version":"2.0","jspsych_version":"6.3.1","infrequency":0},{"responses":{"Q04":"3","Q03":"3","Q05":"2","Q01":"2","Q06":"2","Q07":"3","Q08":"3","Q09":"4","Q02":"3"},"rt":33709.40000009537,"item_order":[3,2,4,0,5,6,7,8,1],"radio_events":[8921.299999952316,12839.900000095367,15029.799999952316,17440.200000047684,23754.799999952316,25847.5,26659,29088.400000095367,32524.200000047684],"key_events":[],"mouse_events":[6572,7714.700000047684,8921.299999952316,12839.900000095367,15029.799999952316,16022.200000047684,17440.200000047684,19687.400000095367,21100.299999952316,23158.60000014305,23754.799999952316,24839.5,25847.5,26659,29088.400000095367,32524.200000047684,33708.299999952316],"straightlining":0.5555555555555556,"zigzagging":0.25,"honeypot":0,"survey":"pcf","trial_type":"survey-template","trial_index":4,"time_elapsed":133000,"internal_node_id":"0.0-4.0","experiment":"validation","task_version":"2.0","jspsych_version":"6.3.1","infrequency":0},{"value":0,"trial_type":"call-function","trial_index":5,"time_elapsed":133002,"internal_node_id":"0.0-5.0","experiment":"validation","task_version":"2.0","jspsych_version":"6.3.1","interactions":"[{\"event\":\"blur\",\"trial\":0,\"time\":700},{\"event\":\"focus\",\"trial\":0,\"time\":972}]"}]