[{"view_history":[{"page_index":0,"viewing_time":5439.5}],"rt":5440.900000095367,"trial_type":"instructions","trial_index":0,"time_elapsed":5446,"internal_node_id":"0.0-0.0","experiment":"validation","task_version":"2.0","jspsych_version":"6.3.1"},{"rt":30150.299999952316,"responses":{"age":"41","gender-categorical":"Female","gender-free-response":"","ethnicity":"Not Hispanic or Latino","race":["White"],"education":"Bachelor degree"},"survey":"demographics","trial_type":"survey-demo","trial_index":1,"time_elapsed":35601,"internal_node_id":"0.0-1.0","experiment":"validation","task_version":"2.0","jspsych_version":"6.3.1"},{"responses":{"Q08":"3","Q06":"3","Q07":"4","Q02":"4","Q05":"3","Q03":"4","Q09":"4","Q01":"4","Q04":"4"},"rt":61437.799999952316,"item_order":[7,5,6,1,4,2,8,0,3],"radio_events":[9066.899999856949,16846.099999904633,21333.699999809265,27460.39999985695,31272.599999904633,36731.89999985695,39188.199999809265,42220.299999952316,46628.09999990463],"key_events":[],"mouse_events":[7976.199999809265,9066.899999856949,16192.799999952316,16846.099999904633,21333.699999809265,26218.599999904633,27460.39999985695,30543.199999809265,31272.599999904633,36731.89999985695,39188.199999809265,42220.299999952316,45777.699999809265,46628.09999990463,61435.699999809265],"straightlining":0.5555555555555556,"zigzagging":0.625,"honeypot":0,"survey":"pcf","trial_type":"survey-template","trial_index":2,"time_elapsed":97040,"internal_node_id":"0.0-2.0","experiment":"validation","task_version":"2.0","jspsych_version":"6.3.1","infrequency":0},{"responses":{"Q10":"3","Q09":"2","Q11":"0","Q07":"4","Q03":"3","Q04":"3","Q01":"2","Q05":"3","Q02":"2","Q08":"3","Q06":"1"},"rt":142329.29999995232,"item_order":[9,8,10,6,2,3,0,4,1,7,5],"radio_events":[7235.700000047684,14566.299999952316,20915.5,34394.40000009537,39167.09999990463,49824.59999990463,53762.200000047684,62742.299999952316,65000.700000047684,128436.5,133479.79999995232,137698,141304.20000004768],"key_events":[],"mouse_events":[7235.700000047684,13799.900000095367,14566.299999952316,20915.5,32904.200000047684,33683.5,34394.40000009537,37725.799999952316,38392.09999990463,39167.09999990463,49824.59999990463,53762.200000047684,61792.5,62742.299999952316,65000.700000047684,126333.29999995232,127052.90000009537,127761.5,128436.5,133479.79999995232,137698,139961.40000009537,141304.20000004768,142327.09999990463],"straightlining":0.36363636363636365,"zigzagging":0.6,"honeypot":0,"survey":"nfc10","trial_type":"survey-template","trial_index":3,"time_elapsed":239376,"internal_node_id":"0.0-3.0","experiment":"validation","task_version":"2.0","jspsych_version":"6.3.1","infrequency":0},{"rt":58498,"response":{"Q4":5,"Q7":5,"Q2":5,"Q3":5,"Q0":4,"Q6":0,"Q1":4,"Q5":5,"Q8":0},"question_order":[4,7,2,3,0,6,1,5,8],"survey":"sns","trial_type":"survey-likert","trial_index":4,"time_elapsed":297885,"internal_node_id":"0.0-4.0","experiment":"validation","task_version":"2.0","jspsych_version":"6.3.1","infrequency":0},{"value":0,"trial_type":"call-function","trial_index":5,"time_elapsed":297887,"internal_node_id":"0.0-5.0","experiment":"validation","task_version":"2.0","jspsych_version":"6.3.1","interactions":"[]"}]