[{"view_history":[{"page_index":0,"viewing_time":3366.5999999996275}],"rt":3367.9000000003725,"trial_type":"instructions","trial_index":0,"time_elapsed":3378,"internal_node_id":"0.0-0.0","experiment":"validation","task_version":"2.0","jspsych_version":"6.3.1"},{"rt":9433,"responses":{"age":"43","gender-categorical":"Male","gender-free-response":"","ethnicity":"Not Hispanic or Latino","race":["White"],"education":"High school"},"survey":"demographics","trial_type":"survey-demo","trial_index":1,"time_elapsed":12815,"internal_node_id":"0.0-1.0","experiment":"validation","task_version":"2.0","jspsych_version":"6.3.1"},{"rt":75803,"response":{"Q1":1,"Q3":3,"Q6":1,"Q5":3,"Q0":1,"Q7":5,"Q4":5,"Q8":0,"Q2":1},"question_order":[1,3,6,5,0,7,4,8,2],"survey":"sns","trial_type":"survey-likert","trial_index":2,"time_elapsed":88630,"internal_node_id":"0.0-2.0","experiment":"validation","task_version":"2.0","jspsych_version":"6.3.1","infrequency":0},{"responses":{"Q03":"4","Q02":"4","Q09":"4","Q08":"3","Q06":"4","Q07":"4","Q04":"3","Q01":"4","Q05":"4"},"rt":31845.699999999255,"item_order":[2,1,8,7,5,6,3,0,4],"radio_events":[5889,7249.9000000003725,8302.799999998882,9908.099999999627,17509.299999998882,19264.699999999255,21679.5,24149.199999999255,25513.799999998882,26867.5,29043.799999998882,29948.099999999627],"key_events":[],"mouse_events":[5889,7249.9000000003725,8302.799999998882,9908.099999999627,17509.299999998882,19264.699999999255,21679.5,24149.199999999255,25513.799999998882,26867.5,29043.799999998882,29948.099999999627,31843.699999999255],"straightlining":0.6666666666666666,"zigzagging":0.5,"honeypot":0,"survey":"pcf","trial_type":"survey-template","trial_index":3,"time_elapsed":120490,"internal_node_id":"0.0-3.0","experiment":"validation","task_version":"2.0","jspsych_version":"6.3.1","infrequency":0},{"responses":{"Q09":"4","Q02":"4","Q05":"4","Q04":"4","Q07":"4","Q03":"4","Q06":"4","Q11":"0","Q08":"4","Q01":"4","Q10":"4"},"rt":39557.5,"item_order":[8,1,4,3,6,2,5,10,7,0,9],"radio_events":[9816.400000000373,12907.5,14929.5,17734,19122.5,21987.799999998882,23586.299999998882,25146.199999999255,28845.5,33827.09999999963,35111,38782.40000000037],"key_events":[],"mouse_events":[7037.199999999255,9816.400000000373,12907.5,14929.5,17734,19122.5,21987.799999998882,23586.299999998882,25146.199999999255,28845.5,33827.09999999963,35111,37140.40000000037,38267,38782.40000000037,39555.40000000037],"straightlining":0.6363636363636364,"zigzagging":0.6,"honeypot":0,"survey":"nfc10","trial_type":"survey-template","trial_index":4,"time_elapsed":160058,"internal_node_id":"0.0-4.0","experiment":"validation","task_version":"2.0","jspsych_version":"6.3.1","infrequency":0},{"value":0,"trial_type":"call-function","trial_index":5,"time_elapsed":160067,"internal_node_id":"0.0-5.0","experiment":"validation","task_version":"2.0","jspsych_version":"6.3.1","interactions":"[{\"event\":\"blur\",\"trial\":2,\"time\":31518},{\"event\":\"focus\",\"trial\":2,\"time\":56439},{\"event\":\"blur\",\"trial\":4,\"time\":125657},{\"event\":\"focus\",\"trial\":4,\"time\":127447},{\"event\":\"focus\",\"trial\":4,\"time\":127448}]"}]