[{"view_history":[{"page_index":0,"viewing_time":3660.899999976158}],"rt":3662.199999988079,"trial_type":"instructions","trial_index":0,"time_elapsed":3670,"internal_node_id":"0.0-0.0","experiment":"validation","task_version":"2.0","jspsych_version":"6.3.1"},{"rt":14621.5,"responses":{"age":"23","gender-categorical":"Female","gender-free-response":"","ethnicity":"Not Hispanic or Latino","race":["White"],"education":"Bachelor degree"},"survey":"demographics","trial_type":"survey-demo","trial_index":1,"time_elapsed":18296,"internal_node_id":"0.0-1.0","experiment":"validation","task_version":"2.0","jspsych_version":"6.3.1"},{"rt":55076.19999998808,"response":{"Q7":4,"Q6":0,"Q5":1,"Q2":3,"Q8":0,"Q4":5,"Q0":4,"Q1":4,"Q3":3},"question_order":[7,6,5,2,8,4,0,1,3],"survey":"sns","trial_type":"survey-likert","trial_index":2,"time_elapsed":73380,"internal_node_id":"0.0-2.0","experiment":"validation","task_version":"2.0","jspsych_version":"6.3.1","infrequency":0},{"responses":{"Q09":"4","Q08":"3","Q06":"3","Q02":"3","Q07":"4","Q05":"3","Q04":"4","Q01":"3","Q03":"4"},"rt":46253.59999996424,"item_order":[8,7,5,1,6,4,3,0,2],"radio_events":[10963.599999964237,17202.799999952316,24815.69999998808,28201.599999964237,31661,34189.5,38689.19999998808,40438.39999997616,44708.59999996424],"key_events":[],"mouse_events":[10963.599999964237,15712,17202.799999952316,23554.19999998808,24815.69999998808,28201.599999964237,30834.69999998808,31661,34189.5,37836.5,38689.19999998808,40438.39999997616,43555,44708.59999996424,46252.19999998808],"straightlining":0.5555555555555556,"zigzagging":0.625,"honeypot":0,"survey":"pcf","trial_type":"survey-template","trial_index":3,"time_elapsed":119649,"internal_node_id":"0.0-3.0","experiment":"validation","task_version":"2.0","jspsych_version":"6.3.1","infrequency":0},{"responses":{"Q07":"3","Q06":"1","Q03":"3","Q09":"3","Q04":"3","Q01":"3","Q05":"4","Q08":"1","Q02":"1","Q11":"0","Q10":"2"},"rt":87032.89999997616,"item_order":[6,5,2,8,3,0,4,7,1,10,9],"radio_events":[12142.699999988079,14984.899999976158,22086.099999964237,30841.5,33917.69999998808,38989.59999996424,42214.80000001192,49376.09999996424,53182.59999996424,65626.30000001192,71971.59999996424,85902.69999998808],"key_events":[],"mouse_events":[9366.099999964237,12142.699999988079,13958.699999988079,14984.899999976158,21123.30000001192,22086.099999964237,29813.899999976158,30841.5,33917.69999998808,38989.59999996424,42214.80000001192,48517.69999998808,49376.09999996424,53182.59999996424,63998.30000001192,65626.30000001192,70873.80000001192,71971.59999996424,85077.59999996424,85902.69999998808,87030.80000001192],"straightlining":0.45454545454545453,"zigzagging":0.2,"honeypot":0,"survey":"nfc10","trial_type":"survey-template","trial_index":4,"time_elapsed":206689,"internal_node_id":"0.0-4.0","experiment":"validation","task_version":"2.0","jspsych_version":"6.3.1","infrequency":0},{"value":0,"trial_type":"call-function","trial_index":5,"time_elapsed":206696,"internal_node_id":"0.0-5.0","experiment":"validation","task_version":"2.0","jspsych_version":"6.3.1","interactions":"[]"}]