[{"view_history":[{"page_index":0,"viewing_time":1921.3999999761581}],"rt":1922.1000000238419,"trial_type":"instructions","trial_index":0,"time_elapsed":1924,"internal_node_id":"0.0-0.0","experiment":"validation","task_version":"2.0","jspsych_version":"6.3.1"},{"rt":14081.300000011921,"responses":{"age":"29","gender-categorical":"Female","gender-free-response":"","ethnicity":"Hispanic or Latino","race":["White"],"education":"Bachelor degree"},"survey":"demographics","trial_type":"survey-demo","trial_index":1,"time_elapsed":16009,"internal_node_id":"0.0-1.0","experiment":"validation","task_version":"2.0","jspsych_version":"6.3.1"},{"rt":58013.299999952316,"response":{"Q8":0,"Q0":3,"Q3":4,"Q7":4,"Q5":2,"Q4":4,"Q6":1,"Q1":3,"Q2":4},"question_order":[8,0,3,7,5,4,6,1,2],"survey":"sns","trial_type":"survey-likert","trial_index":2,"time_elapsed":74027,"internal_node_id":"0.0-2.0","experiment":"validation","task_version":"2.0","jspsych_version":"6.3.1","infrequency":0},{"responses":{"Q10":"3","Q09":"3","Q04":"3","Q06":"1","Q02":"2","Q11":"0","Q07":"2","Q05":"3","Q08":"3","Q01":"2","Q03":"3"},"rt":103296.10000002384,"item_order":[9,8,3,5,1,10,6,4,7,0,2],"radio_events":[10706.399999976158,23489.80000001192,27539.899999976158,36323.60000002384,41423.89999997616,46274.10000002384,63640.39999997616,75907.5,89908,94374.69999998808,100291.89999997616,102391.5],"key_events":[],"mouse_events":[6840.100000023842,10706.399999976158,23489.80000001192,27539.899999976158,36323.60000002384,41423.89999997616,45390.5,46274.10000002384,49574.10000002384,62057.60000002384,63640.39999997616,64241.19999998808,70524.39999997616,73090.80000001192,75907.5,89908,93557.39999997616,94374.69999998808,98342.19999998808,99108.5,100291.89999997616,102391.5,103292.5],"straightlining":0.36363636363636365,"zigzagging":0.4,"honeypot":0,"survey":"nfc10","trial_type":"survey-template","trial_index":3,"time_elapsed":177328,"internal_node_id":"0.0-3.0","experiment":"validation","task_version":"2.0","jspsych_version":"6.3.1","infrequency":0},{"responses":{"Q07":"2","Q09":"4","Q02":"2","Q06":"2","Q01":"3","Q05":"2","Q03":"2","Q04":"2","Q08":"3"},"rt":45460.80000001192,"item_order":[6,8,1,5,0,4,2,3,7],"radio_events":[4107.400000035763,6124.300000011921,13107.900000035763,22474.700000047684,32374.80000001192,34725.40000003576,35825.5,38392.40000003576,44258.80000001192],"key_events":[],"mouse_events":[1474.2000000476837,4107.400000035763,6124.300000011921,9058.200000047684,12259,13107.900000035763,22474.700000047684,27275.100000023842,31592.30000001192,32374.80000001192,33492,34725.40000003576,35825.5,37325.60000002384,38392.40000003576,38941.90000003576,41675.5,43675.5,44258.80000001192,45459.10000002384],"straightlining":0.6666666666666666,"zigzagging":0.375,"honeypot":0,"survey":"pcf","trial_type":"survey-template","trial_index":4,"time_elapsed":222792,"internal_node_id":"0.0-4.0","experiment":"validation","task_version":"2.0","jspsych_version":"6.3.1","infrequency":0},{"value":0,"trial_type":"call-function","trial_index":5,"time_elapsed":222795,"internal_node_id":"0.0-5.0","experiment":"validation","task_version":"2.0","jspsych_version":"6.3.1","interactions":"[]"}]