[{"success":true,"timeout":false,"failed_images":[],"failed_audio":[],"failed_video":[],"trial_type":"preload","trial_index":0,"time_elapsed":618,"internal_node_id":"0.0-0.0","experiment":"validation-B","task_version":"2.0","jspsych_version":"6.3.1"},{"success":true,"trial_type":"fullscreen","trial_index":1,"time_elapsed":3276,"internal_node_id":"0.0-1.0","experiment":"validation-B","task_version":"2.0","jspsych_version":"6.3.1"},{"view_history":[{"page_index":0,"viewing_time":2196.400000035763},{"page_index":1,"viewing_time":9833.399999976158},{"page_index":2,"viewing_time":2233.699999988079},{"page_index":3,"viewing_time":1166.5}],"rt":15431.5,"trial_type":"instructions","trial_index":2,"time_elapsed":18708,"internal_node_id":"0.0-3.0","experiment":"validation-B","task_version":"2.0","jspsych_version":"6.3.1"},{"item":5,"shape_set":1,"distractor":"pd","choice_order":[3,2,1,0],"correct":0,"choice":0,"accuracy":1,"rt":6596.300000011921,"screen_resolution":[1440,900],"minimum_resolution":1,"all_loaded":true,"item_set":"practice","trial_type":"mars","trial_index":3,"time_elapsed":26061,"internal_node_id":"0.0-4.0-0.0","experiment":"validation-B","task_version":"2.0","jspsych_version":"6.3.1"},{"item":2,"shape_set":1,"distractor":"pd","choice_order":[1,3,2,0],"correct":0,"choice":0,"accuracy":1,"rt":2408.5,"screen_resolution":[1440,900],"minimum_resolution":1,"all_loaded":true,"item_set":"practice","trial_type":"mars","trial_index":4,"time_elapsed":29224,"internal_node_id":"0.0-5.0-0.0","experiment":"validation-B","task_version":"2.0","jspsych_version":"6.3.1"},{"item":8,"shape_set":1,"distractor":"pd","choice_order":[1,3,0,2],"correct":0,"choice":1,"accuracy":0,"rt":7462.800000011921,"screen_resolution":[1440,900],"minimum_resolution":1,"all_loaded":true,"item_set":"practice","trial_type":"mars","trial_index":5,"time_elapsed":37444,"internal_node_id":"0.0-6.0-0.0","experiment":"validation-B","task_version":"2.0","jspsych_version":"6.3.1"},{"item":8,"shape_set":1,"distractor":"pd","choice_order":[1,2,3,0],"correct":0,"choice":3,"accuracy":0,"rt":18708.30000001192,"screen_resolution":[1440,900],"minimum_resolution":1,"all_loaded":true,"item_set":"practice","trial_type":"mars","trial_index":6,"time_elapsed":56910,"internal_node_id":"0.0-6.1-0.1","experiment":"validation-B","task_version":"2.0","jspsych_version":"6.3.1"},{"item":8,"shape_set":1,"distractor":"pd","choice_order":[3,2,0,1],"correct":0,"choice":2,"accuracy":0,"rt":2076.400000035763,"screen_resolution":[1440,900],"minimum_resolution":1,"all_loaded":true,"item_set":"practice","trial_type":"mars","trial_index":7,"time_elapsed":59745,"internal_node_id":"0.0-6.2-0.2","experiment":"validation-B","task_version":"2.0","jspsych_version":"6.3.1"},{"item":8,"shape_set":1,"distractor":"pd","choice_order":[0,1,2,3],"correct":0,"choice":0,"accuracy":1,"rt":1991.800000011921,"screen_resolution":[1440,900],"minimum_resolution":1,"all_loaded":true,"item_set":"practice","trial_type":"mars","trial_index":8,"time_elapsed":62494,"internal_node_id":"0.0-6.3-0.3","experiment":"validation-B","task_version":"2.0","jspsych_version":"6.3.1"},{"view_history":[{"page_index":0,"viewing_time":1510.0999999642372},{"page_index":1,"viewing_time":2516.800000011921}],"rt":4028.099999964237,"trial_type":"instructions","trial_index":9,"time_elapsed":66525,"internal_node_id":"0.0-7.0","experiment":"validation-B","task_version":"2.0","jspsych_version":"6.3.1"},{"rt":null,"stimulus":"<div style=\"font-size:24px;\">Loading puzzle:<br>1 / 24</div>","response":null,"trial_type":"html-keyboard-response","trial_index":10,"time_elapsed":67732,"internal_node_id":"0.0-8.0-1.0","experiment":"validation-B","task_version":"2.0","jspsych_version":"6.3.1"},{"item":55,"shape_set":1,"distractor":"pd","choice_order":[1,2,3,0],"correct":0,"choice":0,"accuracy":1,"rt":10290,"screen_resolution":[1440,900],"minimum_resolution":1,"all_loaded":true,"item_set":3,"long_form":1,"trial_type":"mars","trial_index":11,"time_elapsed":78024,"internal_node_id":"0.0-8.0-2.0","experiment":"validation-B","task_version":"2.0","jspsych_version":"6.3.1","browser_interactions":0},{"rt":null,"stimulus":"<div style=\"font-size:24px;\">Loading puzzle:<br>2 / 24</div>","response":null,"trial_type":"html-keyboard-response","trial_index":12,"time_elapsed":79229,"internal_node_id":"0.0-9.0-1.0","experiment":"validation-B","task_version":"2.0","jspsych_version":"6.3.1"},{"item":30,"shape_set":3,"distractor":"pd","choice_order":[2,1,0,3],"correct":0,"choice":3,"accuracy":0,"rt":6442.200000047684,"screen_resolution":[1440,900],"minimum_resolution":1,"all_loaded":true,"item_set":3,"long_form":1,"trial_type":"mars","trial_index":13,"time_elapsed":85674,"internal_node_id":"0.0-9.0-2.0","experiment":"validation-B","task_version":"2.0","jspsych_version":"6.3.1","browser_interactions":0},{"rt":null,"stimulus":"<div style=\"font-size:24px;\">Loading puzzle:<br>3 / 24</div>","response":null,"trial_type":"html-keyboard-response","trial_index":14,"time_elapsed":86877,"internal_node_id":"0.0-10.0-1.0","experiment":"validation-B","task_version":"2.0","jspsych_version":"6.3.1"},{"item":64,"shape_set":1,"distractor":"pd","choice_order":[0,3,2,1],"correct":0,"choice":0,"accuracy":1,"rt":8777.300000011921,"screen_resolution":[1440,900],"minimum_resolution":1,"all_loaded":true,"item_set":3,"long_form":1,"trial_type":"mars","trial_index":15,"time_elapsed":95657,"internal_node_id":"0.0-10.0-2.0","experiment":"validation-B","task_version":"2.0","jspsych_version":"6.3.1","browser_interactions":0},{"rt":null,"stimulus":"<div style=\"font-size:24px;\">Loading puzzle:<br>4 / 24</div>","response":null,"trial_type":"html-keyboard-response","trial_index":16,"time_elapsed":96861,"internal_node_id":"0.0-11.0-1.0","experiment":"validation-B","task_version":"2.0","jspsych_version":"6.3.1"},{"item":45,"shape_set":3,"distractor":"pd","choice_order":[3,1,0,2],"correct":0,"choice":0,"accuracy":1,"rt":10494.399999976158,"screen_resolution":[1440,900],"minimum_resolution":1,"all_loaded":true,"item_set":3,"long_form":1,"trial_type":"mars","trial_index":17,"time_elapsed":107357,"internal_node_id":"0.0-11.0-2.0","experiment":"validation-B","task_version":"2.0","jspsych_version":"6.3.1","browser_interactions":0},{"rt":null,"stimulus":"<div style=\"font-size:24px;\">Loading puzzle:<br>5 / 24</div>","response":null,"trial_type":"html-keyboard-response","trial_index":18,"time_elapsed":108562,"internal_node_id":"0.0-12.0-1.0","experiment":"validation-B","task_version":"2.0","jspsych_version":"6.3.1"},{"item":35,"shape_set":1,"distractor":"pd","choice_order":[3,2,1,0],"correct":0,"choice":3,"accuracy":0,"rt":11059.799999952316,"screen_resolution":[1440,900],"minimum_resolution":1,"all_loaded":true,"item_set":3,"long_form":1,"trial_type":"mars","trial_index":19,"time_elapsed":119623,"internal_node_id":"0.0-12.0-2.0","experiment":"validation-B","task_version":"2.0","jspsych_version":"6.3.1","browser_interactions":0},{"rt":null,"stimulus":"<div style=\"font-size:24px;\">Loading puzzle:<br>6 / 24</div>","response":null,"trial_type":"html-keyboard-response","trial_index":20,"time_elapsed":120828,"internal_node_id":"0.0-13.0-1.0","experiment":"validation-B","task_version":"2.0","jspsych_version":"6.3.1"},{"item":72,"shape_set":1,"distractor":"pd","choice_order":[3,1,0,2],"correct":0,"choice":0,"accuracy":1,"rt":11393.199999988079,"screen_resolution":[1440,900],"minimum_resolution":1,"all_loaded":true,"item_set":3,"long_form":1,"trial_type":"mars","trial_index":21,"time_elapsed":132224,"internal_node_id":"0.0-13.0-2.0","experiment":"validation-B","task_version":"2.0","jspsych_version":"6.3.1","browser_interactions":0},{"rt":null,"stimulus":"<div style=\"font-size:24px;\">Loading puzzle:<br>7 / 24</div>","response":null,"trial_type":"html-keyboard-response","trial_index":22,"time_elapsed":133430,"internal_node_id":"0.0-14.0-1.0","experiment":"validation-B","task_version":"2.0","jspsych_version":"6.3.1"},{"item":27,"shape_set":1,"distractor":"pd","choice_order":[0,1,2,3],"correct":0,"choice":0,"accuracy":1,"rt":5907.600000023842,"screen_resolution":[1440,900],"minimum_resolution":1,"all_loaded":true,"item_set":3,"long_form":1,"trial_type":"mars","trial_index":23,"time_elapsed":139340,"internal_node_id":"0.0-14.0-2.0","experiment":"validation-B","task_version":"2.0","jspsych_version":"6.3.1","browser_interactions":0},{"rt":null,"stimulus":"<div style=\"font-size:24px;\">Loading puzzle:<br>8 / 24</div>","response":null,"trial_type":"html-keyboard-response","trial_index":24,"time_elapsed":140545,"internal_node_id":"0.0-15.0-1.0","experiment":"validation-B","task_version":"2.0","jspsych_version":"6.3.1"},{"item":79,"shape_set":3,"distractor":"pd","choice_order":[3,1,0,2],"correct":0,"choice":1,"accuracy":0,"rt":8426,"screen_resolution":[1440,900],"minimum_resolution":1,"all_loaded":true,"item_set":3,"long_form":1,"trial_type":"mars","trial_index":25,"time_elapsed":148973,"internal_node_id":"0.0-15.0-2.0","experiment":"validation-B","task_version":"2.0","jspsych_version":"6.3.1","browser_interactions":0},{"rt":null,"stimulus":"<div style=\"font-size:24px;\">Loading puzzle:<br>9 / 24</div>","response":null,"trial_type":"html-keyboard-response","trial_index":26,"time_elapsed":150177,"internal_node_id":"0.0-16.0-1.0","experiment":"validation-B","task_version":"2.0","jspsych_version":"6.3.1"},{"item":29,"shape_set":2,"distractor":"pd","choice_order":[1,2,3,0],"correct":0,"choice":3,"accuracy":0,"rt":7261.300000011921,"screen_resolution":[1440,900],"minimum_resolution":1,"all_loaded":true,"item_set":3,"long_form":1,"trial_type":"mars","trial_index":27,"time_elapsed":157440,"internal_node_id":"0.0-16.0-2.0","experiment":"validation-B","task_version":"2.0","jspsych_version":"6.3.1","browser_interactions":0},{"rt":null,"stimulus":"<div style=\"font-size:24px;\">Loading puzzle:<br>10 / 24</div>","response":null,"trial_type":"html-keyboard-response","trial_index":28,"time_elapsed":158645,"internal_node_id":"0.0-17.0-1.0","experiment":"validation-B","task_version":"2.0","jspsych_version":"6.3.1"},{"item":24,"shape_set":3,"distractor":"pd","choice_order":[3,2,1,0],"correct":0,"choice":3,"accuracy":0,"rt":18092.400000035763,"screen_resolution":[1440,900],"minimum_resolution":1,"all_loaded":true,"item_set":3,"long_form":1,"trial_type":"mars","trial_index":29,"time_elapsed":176740,"internal_node_id":"0.0-17.0-2.0","experiment":"validation-B","task_version":"2.0","jspsych_version":"6.3.1","browser_interactions":0},{"rt":null,"stimulus":"<div style=\"font-size:24px;\">Loading puzzle:<br>11 / 24</div>","response":null,"trial_type":"html-keyboard-response","trial_index":30,"time_elapsed":177946,"internal_node_id":"0.0-18.0-1.0","experiment":"validation-B","task_version":"2.0","jspsych_version":"6.3.1"},{"item":42,"shape_set":3,"distractor":"pd","choice_order":[1,0,2,3],"correct":0,"choice":0,"accuracy":1,"rt":16293,"screen_resolution":[1440,900],"minimum_resolution":1,"all_loaded":true,"item_set":3,"long_form":1,"trial_type":"mars","trial_index":31,"time_elapsed":194240,"internal_node_id":"0.0-18.0-2.0","experiment":"validation-B","task_version":"2.0","jspsych_version":"6.3.1","browser_interactions":0},{"rt":null,"stimulus":"<div style=\"font-size:24px;\">Loading puzzle:<br>12 / 24</div>","response":null,"trial_type":"html-keyboard-response","trial_index":32,"time_elapsed":195442,"internal_node_id":"0.0-19.0-1.0","experiment":"validation-B","task_version":"2.0","jspsych_version":"6.3.1"},{"item":54,"shape_set":1,"distractor":"pd","choice_order":[3,0,2,1],"correct":0,"choice":0,"accuracy":1,"rt":10679.099999964237,"screen_resolution":[1440,900],"minimum_resolution":1,"all_loaded":true,"item_set":3,"long_form":1,"trial_type":"mars","trial_index":33,"time_elapsed":206123,"internal_node_id":"0.0-19.0-2.0","experiment":"validation-B","task_version":"2.0","jspsych_version":"6.3.1","browser_interactions":0},{"view_history":[{"page_index":0,"viewing_time":1581},{"page_index":1,"viewing_time":1782.699999988079}],"rt":3364.2999999523163,"trial_type":"instructions","trial_index":34,"time_elapsed":209489,"internal_node_id":"0.0-20.0","experiment":"validation-B","task_version":"2.0","jspsych_version":"6.3.1"},{"rt":null,"stimulus":"<div style=\"font-size:24px;\">Loading puzzle:<br>13 / 24</div>","response":null,"trial_type":"html-keyboard-response","trial_index":35,"time_elapsed":210697,"internal_node_id":"0.0-21.0-1.0","experiment":"validation-B","task_version":"2.0","jspsych_version":"6.3.1"},{"item":17,"shape_set":3,"distractor":"pd","choice_order":[1,3,2,0],"correct":0,"choice":2,"accuracy":0,"rt":18423.899999976158,"screen_resolution":[1440,900],"minimum_resolution":1,"all_loaded":true,"item_set":3,"long_form":1,"trial_type":"mars","trial_index":36,"time_elapsed":229124,"internal_node_id":"0.0-21.0-2.0","experiment":"validation-B","task_version":"2.0","jspsych_version":"6.3.1","browser_interactions":0},{"rt":null,"stimulus":"<div style=\"font-size:24px;\">Loading puzzle:<br>14 / 24</div>","response":null,"trial_type":"html-keyboard-response","trial_index":37,"time_elapsed":230329,"internal_node_id":"0.0-22.0-1.0","experiment":"validation-B","task_version":"2.0","jspsych_version":"6.3.1"},{"item":58,"shape_set":3,"distractor":"md","choice_order":[2,0,1,3],"correct":0,"choice":1,"accuracy":0,"rt":11878.199999988079,"screen_resolution":[1440,900],"minimum_resolution":1,"all_loaded":true,"item_set":3,"long_form":1,"trial_type":"mars","trial_index":38,"time_elapsed":242217,"internal_node_id":"0.0-22.0-2.0","experiment":"validation-B","task_version":"2.0","jspsych_version":"6.3.1","browser_interactions":0},{"rt":null,"stimulus":"<div style=\"font-size:24px;\">Loading puzzle:<br>15 / 24</div>","response":null,"trial_type":"html-keyboard-response","trial_index":39,"time_elapsed":243421,"internal_node_id":"0.0-23.0-1.0","experiment":"validation-B","task_version":"2.0","jspsych_version":"6.3.1"},{"item":73,"shape_set":2,"distractor":"pd","choice_order":[2,3,0,1],"correct":0,"choice":0,"accuracy":1,"rt":13161.600000023842,"screen_resolution":[1440,900],"minimum_resolution":1,"all_loaded":true,"item_set":3,"long_form":1,"trial_type":"mars","trial_index":40,"time_elapsed":256588,"internal_node_id":"0.0-23.0-2.0","experiment":"validation-B","task_version":"2.0","jspsych_version":"6.3.1","browser_interactions":0},{"rt":null,"stimulus":"<div style=\"font-size:24px;\">Loading puzzle:<br>16 / 24</div>","response":null,"trial_type":"html-keyboard-response","trial_index":41,"time_elapsed":257794,"internal_node_id":"0.0-24.0-1.0","experiment":"validation-B","task_version":"2.0","jspsych_version":"6.3.1"},{"item":36,"shape_set":3,"distractor":"pd","choice_order":[3,2,0,1],"correct":0,"choice":3,"accuracy":0,"rt":8909.5,"screen_resolution":[1440,900],"minimum_resolution":1,"all_loaded":true,"item_set":3,"long_form":1,"trial_type":"mars","trial_index":42,"time_elapsed":266707,"internal_node_id":"0.0-24.0-2.0","experiment":"validation-B","task_version":"2.0","jspsych_version":"6.3.1","browser_interactions":0},{"rt":null,"stimulus":"<div style=\"font-size:24px;\">Loading puzzle:<br>17 / 24</div>","response":null,"trial_type":"html-keyboard-response","trial_index":43,"time_elapsed":267913,"internal_node_id":"0.0-25.0-1.0","experiment":"validation-B","task_version":"2.0","jspsych_version":"6.3.1"},{"item":63,"shape_set":3,"distractor":"pd","choice_order":[1,2,0,3],"correct":0,"choice":3,"accuracy":0,"rt":8891.400000035763,"screen_resolution":[1440,900],"minimum_resolution":1,"all_loaded":true,"item_set":3,"long_form":1,"trial_type":"mars","trial_index":44,"time_elapsed":276807,"internal_node_id":"0.0-25.0-2.0","experiment":"validation-B","task_version":"2.0","jspsych_version":"6.3.1","browser_interactions":0},{"rt":null,"stimulus":"<div style=\"font-size:24px;\">Loading puzzle:<br>18 / 24</div>","response":null,"trial_type":"html-keyboard-response","trial_index":45,"time_elapsed":278014,"internal_node_id":"0.0-26.0-1.0","experiment":"validation-B","task_version":"2.0","jspsych_version":"6.3.1"},{"item":75,"shape_set":2,"distractor":"pd","choice_order":[2,3,0,1],"correct":0,"choice":0,"accuracy":1,"rt":9423.900000035763,"screen_resolution":[1440,900],"minimum_resolution":1,"all_loaded":true,"item_set":3,"long_form":1,"trial_type":"mars","trial_index":46,"time_elapsed":287441,"internal_node_id":"0.0-26.0-2.0","experiment":"validation-B","task_version":"2.0","jspsych_version":"6.3.1","browser_interactions":0},{"rt":null,"stimulus":"<div style=\"font-size:24px;\">Loading puzzle:<br>19 / 24</div>","response":null,"trial_type":"html-keyboard-response","trial_index":47,"time_elapsed":288643,"internal_node_id":"0.0-27.0-1.0","experiment":"validation-B","task_version":"2.0","jspsych_version":"6.3.1"},{"item":74,"shape_set":3,"distractor":"pd","choice_order":[2,0,3,1],"correct":0,"choice":3,"accuracy":0,"rt":7911.5,"screen_resolution":[1440,900],"minimum_resolution":1,"all_loaded":true,"item_set":3,"long_form":1,"trial_type":"mars","trial_index":48,"time_elapsed":296557,"internal_node_id":"0.0-27.0-2.0","experiment":"validation-B","task_version":"2.0","jspsych_version":"6.3.1","browser_interactions":0},{"rt":null,"stimulus":"<div style=\"font-size:24px;\">Loading puzzle:<br>20 / 24</div>","response":null,"trial_type":"html-keyboard-response","trial_index":49,"time_elapsed":297763,"internal_node_id":"0.0-28.0-1.0","experiment":"validation-B","task_version":"2.0","jspsych_version":"6.3.1"},{"item":76,"shape_set":1,"distractor":"pd","choice_order":[2,1,0,3],"correct":0,"choice":3,"accuracy":0,"rt":4691.100000023842,"screen_resolution":[1440,900],"minimum_resolution":1,"all_loaded":true,"item_set":3,"long_form":1,"trial_type":"mars","trial_index":50,"time_elapsed":302456,"internal_node_id":"0.0-28.0-2.0","experiment":"validation-B","task_version":"2.0","jspsych_version":"6.3.1","browser_interactions":0},{"rt":null,"stimulus":"<div style=\"font-size:24px;\">Loading puzzle:<br>21 / 24</div>","response":null,"trial_type":"html-keyboard-response","trial_index":51,"time_elapsed":303662,"internal_node_id":"0.0-29.0-1.0","experiment":"validation-B","task_version":"2.0","jspsych_version":"6.3.1"},{"item":80,"shape_set":2,"distractor":"pd","choice_order":[0,2,3,1],"correct":0,"choice":0,"accuracy":1,"rt":11360.300000011921,"screen_resolution":[1440,900],"minimum_resolution":1,"all_loaded":true,"item_set":3,"long_form":1,"trial_type":"mars","trial_index":52,"time_elapsed":315024,"internal_node_id":"0.0-29.0-2.0","experiment":"validation-B","task_version":"2.0","jspsych_version":"6.3.1","browser_interactions":0},{"rt":null,"stimulus":"<div style=\"font-size:24px;\">Loading puzzle:<br>22 / 24</div>","response":null,"trial_type":"html-keyboard-response","trial_index":53,"time_elapsed":316227,"internal_node_id":"0.0-30.0-1.0","experiment":"validation-B","task_version":"2.0","jspsych_version":"6.3.1"},{"item":66,"shape_set":2,"distractor":"pd","choice_order":[3,0,1,2],"correct":0,"choice":3,"accuracy":0,"rt":13261.5,"screen_resolution":[1440,900],"minimum_resolution":1,"all_loaded":true,"item_set":3,"long_form":1,"trial_type":"mars","trial_index":54,"time_elapsed":329491,"internal_node_id":"0.0-30.0-2.0","experiment":"validation-B","task_version":"2.0","jspsych_version":"6.3.1","browser_interactions":0},{"rt":null,"stimulus":"<div style=\"font-size:24px;\">Loading puzzle:<br>23 / 24</div>","response":null,"trial_type":"html-keyboard-response","trial_index":55,"time_elapsed":330696,"internal_node_id":"0.0-31.0-1.0","experiment":"validation-B","task_version":"2.0","jspsych_version":"6.3.1"},{"item":21,"shape_set":1,"distractor":"pd","choice_order":[0,1,2,3],"correct":0,"choice":0,"accuracy":1,"rt":8826.300000011921,"screen_resolution":[1440,900],"minimum_resolution":1,"all_loaded":true,"item_set":3,"long_form":1,"trial_type":"mars","trial_index":56,"time_elapsed":339525,"internal_node_id":"0.0-31.0-2.0","experiment":"validation-B","task_version":"2.0","jspsych_version":"6.3.1","browser_interactions":0},{"rt":null,"stimulus":"<div style=\"font-size:24px;\">Loading puzzle:<br>24 / 24</div>","response":null,"trial_type":"html-keyboard-response","trial_index":57,"time_elapsed":340728,"internal_node_id":"0.0-32.0-1.0","experiment":"validation-B","task_version":"2.0","jspsych_version":"6.3.1"},{"item":78,"shape_set":1,"distractor":"pd","choice_order":[3,2,1,0],"correct":0,"choice":3,"accuracy":0,"rt":8394.099999964237,"screen_resolution":[1440,900],"minimum_resolution":1,"all_loaded":true,"item_set":3,"long_form":1,"trial_type":"mars","trial_index":58,"time_elapsed":349125,"internal_node_id":"0.0-32.0-2.0","experiment":"validation-B","task_version":"2.0","jspsych_version":"6.3.1","browser_interactions":0},{"value":[0,0,0],"trial_type":"call-function","trial_index":59,"time_elapsed":349127,"internal_node_id":"0.0-33.0","experiment":"validation-B","task_version":"2.0","jspsych_version":"6.3.1","interactions":"[{\"event\":\"fullscreenenter\",\"trial\":1,\"time\":2284}]"}]