[{"view_history":[{"page_index":0,"viewing_time":1197.6000000238419}],"rt":1197.9000000357628,"trial_type":"instructions","trial_index":0,"time_elapsed":1206,"internal_node_id":"0.0-0.0","experiment":"validation","task_version":"2.0","jspsych_version":"6.3.1"},{"rt":7119.300000011921,"responses":{"age":"24","gender-categorical":"Female","gender-free-response":"","ethnicity":"Not Hispanic or Latino","race":["Asian"],"education":"Bachelor degree"},"survey":"demographics","trial_type":"survey-demo","trial_index":1,"time_elapsed":8328,"internal_node_id":"0.0-1.0","experiment":"validation","task_version":"2.0","jspsych_version":"6.3.1"},{"rt":30226.30000001192,"response":{"Q7":3,"Q2":2,"Q5":3,"Q6":3,"Q3":3,"Q0":3,"Q1":3,"Q4":3,"Q8":0},"question_order":[7,2,5,6,3,0,1,4,8],"survey":"sns","trial_type":"survey-likert","trial_index":2,"time_elapsed":38560,"internal_node_id":"0.0-2.0","experiment":"validation","task_version":"2.0","jspsych_version":"6.3.1","infrequency":0},{"responses":{"Q03":"3","Q01":"2","Q02":"2","Q10":"2","Q11":"0","Q04":"3","Q09":"2","Q06":"2","Q08":"2","Q07":"3","Q05":"1"},"rt":49451,"item_order":[2,0,1,9,10,3,8,5,7,6,4],"radio_events":[20438.100000023842,24221.69999998808,28346.5,28951.19999998808,30522,35753.39999997616,40921.89999997616,42601.5,45983.5,47948.89999997616,48838.19999998808],"key_events":[],"mouse_events":[20438.100000023842,24221.69999998808,27239.899999976158,28346.5,28951.19999998808,30004.100000023842,30522,35336.5,35753.39999997616,40921.89999997616,42160.60000002384,42601.5,43847.5,45326.89999997616,45983.5,47143.69999998808,47948.89999997616,48838.19999998808,49449.89999997616],"straightlining":0.5454545454545454,"zigzagging":0.4,"honeypot":0,"survey":"nfc10","trial_type":"survey-template","trial_index":3,"time_elapsed":88017,"internal_node_id":"0.0-3.0","experiment":"validation","task_version":"2.0","jspsych_version":"6.3.1","infrequency":0},{"responses":{"Q04":"3","Q03":"3","Q08":"3","Q07":"3","Q02":"3","Q05":"2","Q09":"4","Q01":"3","Q06":"3"},"rt":130818.40000003576,"item_order":[3,2,7,6,1,4,8,0,5],"radio_events":[2747.900000035763,6036.900000035763,8018.400000035763,8838.600000023842,9526.600000023842,11802.100000023842,12916.699999988079,127418.40000003576,129640.60000002384],"key_events":[],"mouse_events":[2747.900000035763,6036.900000035763,7390.699999988079,8018.400000035763,8838.600000023842,9526.600000023842,11183.5,11802.100000023842,12916.699999988079,127418.40000003576,128218.5,128564.69999998808,129640.60000002384,130817.10000002384],"straightlining":0.7777777777777778,"zigzagging":0.125,"honeypot":0,"survey":"pcf","trial_type":"survey-template","trial_index":4,"time_elapsed":218840,"internal_node_id":"0.0-4.0","experiment":"validation","task_version":"2.0","jspsych_version":"6.3.1","infrequency":0},{"value":0,"trial_type":"call-function","trial_index":5,"time_elapsed":218844,"internal_node_id":"0.0-5.0","experiment":"validation","task_version":"2.0","jspsych_version":"6.3.1","interactions":"[{\"event\":\"blur\",\"trial\":3,\"time\":43056},{\"event\":\"focus\",\"trial\":3,\"time\":58852}]"}]