[{"view_history":[{"page_index":0,"viewing_time":2705.0999999996275}],"rt":2705.4000000003725,"trial_type":"instructions","trial_index":0,"time_elapsed":2715,"internal_node_id":"0.0-0.0","experiment":"validation","task_version":"2.0","jspsych_version":"6.3.1"},{"rt":6826.5,"responses":{"age":"25","gender-categorical":"Male","gender-free-response":"","ethnicity":"Not Hispanic or Latino","race":["White"],"education":"High school"},"survey":"demographics","trial_type":"survey-demo","trial_index":1,"time_elapsed":9543,"internal_node_id":"0.0-1.0","experiment":"validation","task_version":"2.0","jspsych_version":"6.3.1"},{"responses":{"Q04":"3","Q06":"2","Q08":"2","Q05":"3","Q07":"3","Q03":"3","Q10":"3","Q11":"0","Q02":"2","Q01":"3","Q09":"2"},"rt":48647.90000000037,"item_order":[3,5,7,4,6,2,9,10,1,0,8],"radio_events":[6299.0999999996275,8731.300000000745,12080.699999999255,14258.099999999627,21988,23554.199999999255,32045.300000000745,34733.59999999963,41602.90000000037,43430.90000000037,46268.199999999255],"key_events":[],"mouse_events":[6299.0999999996275,8731.300000000745,12080.699999999255,14258.099999999627,20049.800000000745,21492.099999999627,21988,23109.099999999627,23554.199999999255,24125.699999999255,32045.300000000745,34733.59999999963,40486.699999999255,40931.59999999963,41602.90000000037,42843.90000000037,43430.90000000037,46018.40000000037,46268.199999999255,48646.699999999255],"straightlining":0.36363636363636365,"zigzagging":0.4,"honeypot":0,"survey":"nfc10","trial_type":"survey-template","trial_index":2,"time_elapsed":58195,"internal_node_id":"0.0-2.0","experiment":"validation","task_version":"2.0","jspsych_version":"6.3.1","infrequency":0},{"responses":{"Q02":"2","Q05":"1","Q03":"3","Q07":"2","Q06":"2","Q04":"1","Q09":"4","Q01":"2","Q08":"4"},"rt":305739.19999999925,"item_order":[1,4,2,6,5,3,8,0,7],"radio_events":[4437,5438.199999999255,8992.599999999627,16156.5,18399.89999999851,298143.2999999989,298663.3999999985,302223.19999999925,305107.2999999989],"key_events":[293461.5999999996],"mouse_events":[4437,5438.199999999255,8992.599999999627,11511.099999999627,16156.5,18399.89999999851,296501.0999999996,298143.2999999989,298663.3999999985,301627.69999999925,302223.19999999925,304792.2999999989,305107.2999999989,305738.3999999985],"straightlining":0.4444444444444444,"zigzagging":0.5,"honeypot":0,"survey":"pcf","trial_type":"survey-template","trial_index":3,"time_elapsed":363936,"internal_node_id":"0.0-3.0","experiment":"validation","task_version":"2.0","jspsych_version":"6.3.1","infrequency":0},{"rt":138926.59999999963,"response":{"Q7":3,"Q6":2,"Q4":4,"Q2":2,"Q8":0,"Q3":4,"Q5":1,"Q0":2,"Q1":3},"question_order":[7,6,4,2,8,3,5,0,1],"survey":"sns","trial_type":"survey-likert","trial_index":4,"time_elapsed":502867,"internal_node_id":"0.0-4.0","experiment":"validation","task_version":"2.0","jspsych_version":"6.3.1","infrequency":0},{"value":0,"trial_type":"call-function","trial_index":5,"time_elapsed":502868,"internal_node_id":"0.0-5.0","experiment":"validation","task_version":"2.0","jspsych_version":"6.3.1","interactions":"[{\"event\":\"blur\",\"trial\":3,\"time\":79031},{\"event\":\"focus\",\"trial\":3,\"time\":344254},{\"event\":\"blur\",\"trial\":3,\"time\":347120},{\"event\":\"focus\",\"trial\":3,\"time\":351586},{\"event\":\"blur\",\"trial\":4,\"time\":390225},{\"event\":\"focus\",\"trial\":4,\"time\":402375},{\"event\":\"blur\",\"trial\":4,\"time\":429459},{\"event\":\"focus\",\"trial\":4,\"time\":489024},{\"event\":\"blur\",\"trial\":4,\"time\":491043},{\"event\":\"focus\",\"trial\":4,\"time\":500108}]"}]