[{"view_history":[{"page_index":0,"viewing_time":9803.59999999404}],"rt":9804,"trial_type":"instructions","trial_index":0,"time_elapsed":9813,"internal_node_id":"0.0-0.0","experiment":"validation","task_version":"2.0","jspsych_version":"6.3.1"},{"rt":24073.20000001788,"responses":{"age":"32","gender-categorical":"Male","gender-free-response":"","ethnicity":"Not Hispanic or Latino","race":["White"],"education":"Bachelor degree"},"survey":"demographics","trial_type":"survey-demo","trial_index":1,"time_elapsed":33890,"internal_node_id":"0.0-1.0","experiment":"validation","task_version":"2.0","jspsych_version":"6.3.1"},{"responses":{"Q05":"4","Q09":"4","Q11":"0","Q03":"4","Q02":"4","Q07":"4","Q04":"4","Q10":"4","Q08":"4","Q01":"4","Q06":"3"},"rt":165885.90000000596,"item_order":[4,8,10,2,1,6,3,9,7,0,5],"radio_events":[120037.30000001192,125064.80000001192,128899.60000002384,131725.5,136579.70000001788,140856.90000000596,148479.80000001192,151863.10000002384,157497.10000002384,158294.90000000596,165027.10000002384],"key_events":[],"mouse_events":[15707.700000017881,119200.70000001788,120037.30000001192,124420.90000000596,125064.80000001192,128899.60000002384,131725.5,136579.70000001788,139068.90000000596,139868.20000001788,140856.90000000596,141443.20000001788,143490.70000001788,148479.80000001192,151863.10000002384,154372.30000001192,157497.10000002384,158294.90000000596,165027.10000002384,165883.60000002384],"straightlining":0.5454545454545454,"zigzagging":0.6,"honeypot":0,"survey":"nfc10","trial_type":"survey-template","trial_index":2,"time_elapsed":199785,"internal_node_id":"0.0-2.0","experiment":"validation","task_version":"2.0","jspsych_version":"6.3.1","infrequency":0},{"rt":72548.70000001788,"response":{"Q2":4,"Q0":4,"Q7":4,"Q1":3,"Q8":0,"Q3":3,"Q5":4,"Q4":2,"Q6":5},"question_order":[2,0,7,1,8,3,5,4,6],"survey":"sns","trial_type":"survey-likert","trial_index":3,"time_elapsed":272341,"internal_node_id":"0.0-3.0","experiment":"validation","task_version":"2.0","jspsych_version":"6.3.1","infrequency":0},{"responses":{"Q08":"4","Q05":"4","Q09":"4","Q06":"4","Q01":"4","Q07":"4","Q04":"3","Q02":"4","Q03":"4"},"rt":82164.5,"item_order":[7,4,8,5,0,6,3,1,2],"radio_events":[54929.69999998808,55968,57534.89999997616,59130.89999997616,63217.89999997616,67477.59999999404,68641.69999998808,72401,73478.19999998808,76825.39999997616,79508.59999999404],"key_events":[],"mouse_events":[53209.29999998212,54016.69999998808,54929.69999998808,55968,57534.89999997616,59130.89999997616,63217.89999997616,65362.59999999404,67477.59999999404,68641.69999998808,72401,73478.19999998808,76825.39999997616,79508.59999999404,82163],"straightlining":0.7777777777777778,"zigzagging":0.5,"honeypot":0,"survey":"pcf","trial_type":"survey-template","trial_index":4,"time_elapsed":354511,"internal_node_id":"0.0-4.0","experiment":"validation","task_version":"2.0","jspsych_version":"6.3.1","infrequency":0},{"value":0,"trial_type":"call-function","trial_index":5,"time_elapsed":354513,"internal_node_id":"0.0-5.0","experiment":"validation","task_version":"2.0","jspsych_version":"6.3.1","interactions":"[{\"event\":\"blur\",\"trial\":0,\"time\":6491},{\"event\":\"focus\",\"trial\":0,\"time\":8029},{\"event\":\"blur\",\"trial\":3,\"time\":236756},{\"event\":\"focus\",\"trial\":3,\"time\":237014}]"}]