[{"view_history":[{"page_index":0,"viewing_time":2472.7000000029802}],"rt":2474.7999999970198,"trial_type":"instructions","trial_index":0,"time_elapsed":2496,"internal_node_id":"0.0-0.0","experiment":"validation","task_version":"2.0","jspsych_version":"6.3.1"},{"rt":28866.60000000894,"responses":{"age":"58","gender-categorical":"Male","gender-free-response":"","ethnicity":"Not Hispanic or Latino","race":["Asian"],"education":"Bachelor degree"},"survey":"demographics","trial_type":"survey-demo","trial_index":1,"time_elapsed":31374,"internal_node_id":"0.0-1.0","experiment":"validation","task_version":"2.0","jspsych_version":"6.3.1"},{"responses":{"Q02":"4","Q07":"4","Q01":"4","Q04":"4","Q05":"4","Q03":"3","Q09":"4","Q06":"3","Q08":"4"},"rt":51582.5,"item_order":[1,6,0,3,4,2,8,5,7],"radio_events":[5218.79999999702,7479.70000000298,10475.89999999106,12530.70000000298,15067.59999999404,25192,27243.70000000298,32079.09999999404,46461.39999999106,48968.59999999404],"key_events":[],"mouse_events":[5218.79999999702,7479.70000000298,9362.5,10475.89999999106,12530.70000000298,15067.59999999404,19138.5,25192,27243.70000000298,32079.09999999404,46461.39999999106,48968.59999999404,51572.59999999404],"straightlining":0.6666666666666666,"zigzagging":0.25,"honeypot":0,"survey":"pcf","trial_type":"survey-template","trial_index":2,"time_elapsed":82972,"internal_node_id":"0.0-2.0","experiment":"validation","task_version":"2.0","jspsych_version":"6.3.1","infrequency":0},{"responses":{"Q05":"2","Q02":"2","Q11":"0","Q04":"2","Q07":"2","Q10":"2","Q06":"2","Q03":"2","Q08":"1","Q09":"0","Q01":"2"},"rt":97588,"item_order":[4,1,10,3,6,9,5,2,7,8,0],"radio_events":[9988.09999999404,16582.5,19795.19999998808,31453.5,34378.09999999404,41127.89999999106,52101.79999999702,54591.39999999106,61051,63333.09999999404,68347.69999998808,71177.69999998808,88106.69999998808],"key_events":[],"mouse_events":[9988.09999999404,16582.5,19795.19999998808,24244.59999999404,29727.39999999106,31453.5,34378.09999999404,41127.89999999106,42212.79999999702,52101.79999999702,54591.39999999106,61051,63333.09999999404,68347.69999998808,71177.69999998808,72525.39999999106,81755,88106.69999998808,89824,97571.79999999702],"straightlining":0.7272727272727273,"zigzagging":0.2,"honeypot":0,"survey":"nfc10","trial_type":"survey-template","trial_index":3,"time_elapsed":180573,"internal_node_id":"0.0-3.0","experiment":"validation","task_version":"2.0","jspsych_version":"6.3.1","infrequency":0},{"rt":103717.29999999702,"response":{"Q6":0,"Q2":5,"Q3":5,"Q5":5,"Q1":5,"Q8":0,"Q7":4,"Q0":4,"Q4":4},"question_order":[6,2,3,5,1,8,7,0,4],"survey":"sns","trial_type":"survey-likert","trial_index":4,"time_elapsed":284306,"internal_node_id":"0.0-4.0","experiment":"validation","task_version":"2.0","jspsych_version":"6.3.1","infrequency":0},{"value":0,"trial_type":"call-function","trial_index":5,"time_elapsed":284311,"internal_node_id":"0.0-5.0","experiment":"validation","task_version":"2.0","jspsych_version":"6.3.1","interactions":"[]"}]