[{"view_history":[{"page_index":0,"viewing_time":2476.7999999523163}],"rt":2477.199999988079,"trial_type":"instructions","trial_index":0,"time_elapsed":2483,"internal_node_id":"0.0-0.0","experiment":"validation","task_version":"2.0","jspsych_version":"6.3.1"},{"rt":12756.5,"responses":{"age":"69","gender-categorical":"Female","gender-free-response":"","ethnicity":"Not Hispanic or Latino","race":["White"],"education":"Some college"},"survey":"demographics","trial_type":"survey-demo","trial_index":1,"time_elapsed":15243,"internal_node_id":"0.0-1.0","experiment":"validation","task_version":"2.0","jspsych_version":"6.3.1"},{"responses":{"Q01":"3","Q05":"3","Q02":"3","Q06":"4","Q03":"4","Q07":"4","Q09":"0","Q04":"3","Q08":"4"},"rt":31109.69999998808,"item_order":[0,4,1,5,2,6,8,3,7],"radio_events":[3935.800000011921,5980.399999976158,10805.599999964237,15422.099999964237,18350.099999964237,20216.19999998808,22142,24907.899999976158,26556.099999964237,29900.19999998808],"key_events":[],"mouse_events":[2918.099999964237,3935.800000011921,5980.399999976158,10805.599999964237,15422.099999964237,18350.099999964237,20216.19999998808,22142,24907.899999976158,26556.099999964237,29174.19999998808,29900.19999998808,31107.80000001192],"straightlining":0.5555555555555556,"zigzagging":0.375,"honeypot":0,"survey":"pcf","trial_type":"survey-template","trial_index":2,"time_elapsed":46357,"internal_node_id":"0.0-2.0","experiment":"validation","task_version":"2.0","jspsych_version":"6.3.1","infrequency":1},{"responses":{"Q05":"3","Q01":"2","Q03":"3","Q06":"2","Q09":"2","Q04":"2","Q08":"3","Q07":"3","Q10":"3","Q02":"3","Q11":"0"},"rt":90140.60000002384,"item_order":[4,0,2,5,8,3,7,6,9,1,10],"radio_events":[8272.300000011921,11870.800000011921,13654.300000011921,16208.800000011921,19154.400000035763,22790.69999998808,26928.600000023842,31186.69999998808,80802.5,84786.69999998808,88516.60000002384],"key_events":[],"mouse_events":[8272.300000011921,11870.800000011921,13654.300000011921,16208.800000011921,18533,19154.400000035763,22790.69999998808,26344.100000023842,26928.600000023842,30626.80000001192,31186.69999998808,80802.5,84786.69999998808,88516.60000002384,90138.69999998808],"straightlining":0.36363636363636365,"zigzagging":0.4,"honeypot":0,"survey":"nfc10","trial_type":"survey-template","trial_index":3,"time_elapsed":136501,"internal_node_id":"0.0-3.0","experiment":"validation","task_version":"2.0","jspsych_version":"6.3.1","infrequency":0},{"rt":36109.40000003576,"response":{"Q6":0,"Q5":5,"Q4":5,"Q0":4,"Q7":5,"Q3":5,"Q8":0,"Q1":4,"Q2":5},"question_order":[6,5,4,0,7,3,8,1,2],"survey":"sns","trial_type":"survey-likert","trial_index":4,"time_elapsed":172615,"internal_node_id":"0.0-4.0","experiment":"validation","task_version":"2.0","jspsych_version":"6.3.1","infrequency":0},{"value":1,"trial_type":"call-function","trial_index":5,"time_elapsed":172617,"internal_node_id":"0.0-5.0","experiment":"validation","task_version":"2.0","jspsych_version":"6.3.1","interactions":"[]"}]