[{"view_history":[{"page_index":0,"viewing_time":1924.5}],"rt":1924.8999999761581,"trial_type":"instructions","trial_index":0,"time_elapsed":1934,"internal_node_id":"0.0-0.0","experiment":"validation","task_version":"2.0","jspsych_version":"6.3.1"},{"rt":7896.399999976158,"responses":{"age":"28","gender-categorical":"Male","gender-free-response":"","ethnicity":"Not Hispanic or Latino","race":["White"],"education":"Bachelor degree"},"survey":"demographics","trial_type":"survey-demo","trial_index":1,"time_elapsed":9834,"internal_node_id":"0.0-1.0","experiment":"validation","task_version":"2.0","jspsych_version":"6.3.1"},{"responses":{"Q04":"3","Q08":"3","Q10":"2","Q05":"1","Q02":"2","Q11":"0","Q09":"1","Q03":"3","Q01":"2","Q06":"3","Q07":"3"},"rt":29433.300000071526,"item_order":[3,7,9,4,1,10,8,2,0,5,6],"radio_events":[3188.9000000953674,7859.600000023842,9686.800000071526,12729.600000023842,15563,17889.5,20947.800000071526,22785.700000047684,24462.700000047684,26772.800000071526,28493.900000095367],"key_events":[],"mouse_events":[3188.9000000953674,7106.800000071526,7488.800000071526,7859.600000023842,9686.800000071526,12014,12729.600000023842,15022.900000095367,15563,17889.5,20947.800000071526,22536,22785.700000047684,24462.700000047684,26341,26772.800000071526,28493.900000095367,29431.600000023842],"straightlining":0.36363636363636365,"zigzagging":0.6,"honeypot":0,"survey":"nfc10","trial_type":"survey-template","trial_index":2,"time_elapsed":39272,"internal_node_id":"0.0-2.0","experiment":"validation","task_version":"2.0","jspsych_version":"6.3.1","infrequency":0},{"responses":{"Q03":"3","Q08":"4","Q02":"4","Q04":"3","Q01":"3","Q09":"4","Q07":"4","Q05":"3","Q06":"3"},"rt":23060.5,"item_order":[2,7,1,3,0,8,6,4,5],"radio_events":[3892.399999976158,5058.800000071526,7771.700000047684,10586.700000047684,12929.600000023842,15079.600000023842,16554.399999976158,18463.600000023842,19906.700000047684,22091.5],"key_events":[],"mouse_events":[3892.399999976158,5058.800000071526,7771.700000047684,10586.700000047684,12929.600000023842,14631.300000071526,15079.600000023842,16308.700000047684,16554.399999976158,18463.600000023842,19906.700000047684,22091.5,23059.600000023842],"straightlining":0.5555555555555556,"zigzagging":0.5,"honeypot":0,"survey":"pcf","trial_type":"survey-template","trial_index":3,"time_elapsed":62335,"internal_node_id":"0.0-3.0","experiment":"validation","task_version":"2.0","jspsych_version":"6.3.1","infrequency":0},{"rt":24858.899999976158,"response":{"Q7":4,"Q0":5,"Q8":0,"Q5":3,"Q1":5,"Q4":4,"Q2":5,"Q6":1,"Q3":5},"question_order":[7,0,8,5,1,4,2,6,3],"survey":"sns","trial_type":"survey-likert","trial_index":4,"time_elapsed":87197,"internal_node_id":"0.0-4.0","experiment":"validation","task_version":"2.0","jspsych_version":"6.3.1","infrequency":0},{"value":0,"trial_type":"call-function","trial_index":5,"time_elapsed":87199,"internal_node_id":"0.0-5.0","experiment":"validation","task_version":"2.0","jspsych_version":"6.3.1","interactions":"[]"}]