[{"view_history":[{"page_index":0,"viewing_time":2198.5}],"rt":2198.7999999998137,"trial_type":"instructions","trial_index":0,"time_elapsed":2206,"internal_node_id":"0.0-0.0","experiment":"validation","task_version":"2.0","jspsych_version":"6.3.1"},{"rt":15381.600000000559,"responses":{"age":"35","gender-categorical":"Male","gender-free-response":"","ethnicity":"Not Hispanic or Latino","race":["White"],"education":"Some college"},"survey":"demographics","trial_type":"survey-demo","trial_index":1,"time_elapsed":17590,"internal_node_id":"0.0-1.0","experiment":"validation","task_version":"2.0","jspsych_version":"6.3.1"},{"responses":{"Q01":"2","Q02":"2","Q05":"2","Q09":"4","Q06":"3","Q03":"2","Q08":"3","Q07":"2","Q04":"3"},"rt":67412.70000000019,"item_order":[0,1,4,8,5,2,7,6,3],"radio_events":[10299.799999999814,15748.299999999814,16592.900000000373,23888.200000000186,27139.700000000186,40029.700000000186,46660.09999999963,55083.5,58327.09999999963,65245.5],"key_events":[],"mouse_events":[7048.200000000186,10299.799999999814,14213.099999999627,14911.200000000186,15748.299999999814,16592.900000000373,23888.200000000186,27139.700000000186,40029.700000000186,46274.200000000186,46660.09999999963,55083.5,58327.09999999963,65245.5,67411.79999999981],"straightlining":0.5555555555555556,"zigzagging":0.5,"honeypot":0,"survey":"pcf","trial_type":"survey-template","trial_index":2,"time_elapsed":85007,"internal_node_id":"0.0-2.0","experiment":"validation","task_version":"2.0","jspsych_version":"6.3.1","infrequency":0},{"rt":94800.60000000056,"response":{"Q2":4,"Q7":4,"Q3":4,"Q4":4,"Q6":1,"Q1":4,"Q0":1,"Q5":4,"Q8":0},"question_order":[2,7,3,4,6,1,0,5,8],"survey":"sns","trial_type":"survey-likert","trial_index":3,"time_elapsed":179810,"internal_node_id":"0.0-3.0","experiment":"validation","task_version":"2.0","jspsych_version":"6.3.1","infrequency":0},{"responses":{"Q03":"0","Q04":"0","Q01":"4","Q11":"0","Q08":"3","Q10":"1","Q09":"3","Q06":"3","Q05":"1","Q02":"4","Q07":"4"},"rt":151587.7999999998,"item_order":[2,3,0,10,7,9,8,5,4,1,6],"radio_events":[12304,17816.60000000056,18301.5,23772.900000000373,37203.5,92627.79999999981,99161.79999999981,100721.40000000037,115285.90000000037,127981.79999999981,136210.90000000037,144584.90000000037,149871.90000000037,150612],"key_events":[],"mouse_events":[12304,17816.60000000056,18301.5,23045.299999999814,23772.900000000373,37203.5,91818.79999999981,92627.79999999981,98569.90000000037,99161.79999999981,100721.40000000037,115285.90000000037,127981.79999999981,136210.90000000037,144584.90000000037,149871.90000000037,150612,151586.2999999998],"straightlining":0.45454545454545453,"zigzagging":0.2,"honeypot":0,"survey":"nfc10","trial_type":"survey-template","trial_index":4,"time_elapsed":331400,"internal_node_id":"0.0-4.0","experiment":"validation","task_version":"2.0","jspsych_version":"6.3.1","infrequency":0},{"value":0,"trial_type":"call-function","trial_index":5,"time_elapsed":331402,"internal_node_id":"0.0-5.0","experiment":"validation","task_version":"2.0","jspsych_version":"6.3.1","interactions":"[]"}]