[{"view_history":[{"page_index":0,"viewing_time":2623.9999999816064}],"rt":2625.8300000044983,"trial_type":"instructions","trial_index":0,"time_elapsed":2645,"internal_node_id":"0.0-0.0","experiment":"validation","task_version":"2.0","jspsych_version":"6.3.1"},{"rt":330912.4149999989,"responses":{"age":"38","gender-categorical":"Female","gender-free-response":"","ethnicity":"Not Hispanic or Latino","race":["White"],"education":"Some college"},"survey":"demographics","trial_type":"survey-demo","trial_index":1,"time_elapsed":333574,"internal_node_id":"0.0-1.0","experiment":"validation","task_version":"2.0","jspsych_version":"6.3.1"},{"responses":{"Q03":"0","Q11":"0","Q07":"0","Q02":"0","Q08":"0","Q01":"0","Q09":"0","Q04":"0","Q10":"0","Q05":"3","Q06":"1"},"rt":44311.34499999462,"item_order":[2,10,6,1,7,0,8,3,9,4,5],"radio_events":[6285.8999999880325,10405.239999992773,12380.609999992885,14774.47000000393,16145.264999999199,17595.184999983758,20255.810000002384,21639.549999992596,23480.25999998208,24676.199999987148,42471.78999998141],"key_events":[],"mouse_events":[4266.279999981634,6285.8999999880325,9627.609999995911,10405.239999992773,12380.609999992885,14774.47000000393,16145.264999999199,17595.184999983758,20255.810000002384,21639.549999992596,23480.25999998208,24676.199999987148,25455.950000003213,38845.054999983404,41773.60499999486,42471.78999998141,44299.8249999946],"straightlining":0.6363636363636364,"zigzagging":0.4,"honeypot":0,"survey":"nfc10","trial_type":"survey-template","trial_index":2,"time_elapsed":377913,"internal_node_id":"0.0-2.0","experiment":"validation","task_version":"2.0","jspsych_version":"6.3.1","infrequency":0},{"rt":170203.03000000422,"response":{"Q0":3,"Q8":0,"Q2":4,"Q7":4,"Q1":4,"Q3":4,"Q6":1,"Q5":5,"Q4":4},"question_order":[0,8,2,7,1,3,6,5,4],"survey":"sns","trial_type":"survey-likert","trial_index":3,"time_elapsed":548136,"internal_node_id":"0.0-3.0","experiment":"validation","task_version":"2.0","jspsych_version":"6.3.1","infrequency":0},{"responses":{"Q07":"4","Q06":"4","Q03":"4","Q08":"4","Q01":"4","Q09":"4","Q05":"3","Q04":"4","Q02":"4"},"rt":16264.750000002095,"item_order":[6,5,2,7,0,8,4,3,1],"radio_events":[3052.5550000020303,4194.05000002007,6367.280000005849,7449.764999997569,8473.910000000615,10439.540000021225,11830.279999994673,13016.960000008112,14180.655000003753,15145.510000002105],"key_events":[],"mouse_events":[3052.5550000020303,4194.05000002007,6367.280000005849,7449.764999997569,8473.910000000615,10439.540000021225,11830.279999994673,13016.960000008112,14180.655000003753,15145.510000002105,16253.055000008317],"straightlining":0.7777777777777778,"zigzagging":0.25,"honeypot":0,"survey":"pcf","trial_type":"survey-template","trial_index":4,"time_elapsed":564418,"internal_node_id":"0.0-4.0","experiment":"validation","task_version":"2.0","jspsych_version":"6.3.1","infrequency":0},{"value":0,"trial_type":"call-function","trial_index":5,"time_elapsed":564426,"internal_node_id":"0.0-5.0","experiment":"validation","task_version":"2.0","jspsych_version":"6.3.1","interactions":"[]"}]