[{"view_history":[{"page_index":0,"viewing_time":9514.19999999553}],"rt":9514.79999999702,"trial_type":"instructions","trial_index":0,"time_elapsed":9535,"internal_node_id":"0.0-0.0","experiment":"validation","task_version":"2.0","jspsych_version":"6.3.1"},{"rt":16387.89999999851,"responses":{"age":"50","gender-categorical":"Female","gender-free-response":"","ethnicity":"Not Hispanic or Latino","race":["Black or African American"],"education":"Bachelor degree"},"survey":"demographics","trial_type":"survey-demo","trial_index":1,"time_elapsed":25966,"internal_node_id":"0.0-1.0","experiment":"validation","task_version":"2.0","jspsych_version":"6.3.1"},{"responses":{"Q03":"3","Q01":"3","Q02":"3","Q06":"3","Q07":"3","Q08":"4","Q05":"3","Q04":"4","Q09":"4"},"rt":30656.5,"item_order":[2,0,1,5,6,7,4,3,8],"radio_events":[5999.89999999851,9061.19999999553,13397.5,15062.29999999702,16602.10000000149,19731.39999999851,22196.19999999553,25004.5,29922.29999999702],"key_events":[],"mouse_events":[5159.10000000149,5999.89999999851,7896.5,8605.39999999851,9061.19999999553,13397.5,14596.60000000149,15062.29999999702,16236.19999999553,16602.10000000149,19731.39999999851,21372,22196.19999999553,25004.5,29922.29999999702,30653],"straightlining":0.6666666666666666,"zigzagging":0.5,"honeypot":0,"survey":"pcf","trial_type":"survey-template","trial_index":2,"time_elapsed":56634,"internal_node_id":"0.0-2.0","experiment":"validation","task_version":"2.0","jspsych_version":"6.3.1","infrequency":0},{"rt":29889.20000000298,"response":{"Q6":1,"Q1":2,"Q8":0,"Q3":3,"Q7":1,"Q2":1,"Q5":4,"Q0":2,"Q4":1},"question_order":[6,1,8,3,7,2,5,0,4],"survey":"sns","trial_type":"survey-likert","trial_index":3,"time_elapsed":86533,"internal_node_id":"0.0-3.0","experiment":"validation","task_version":"2.0","jspsych_version":"6.3.1","infrequency":0},{"responses":{"Q06":"0","Q11":"0","Q05":"1","Q01":"0","Q07":"3","Q10":"1","Q09":"0","Q02":"1","Q03":"4","Q08":"3","Q04":"3"},"rt":63796,"item_order":[5,10,4,0,6,9,8,1,2,7,3],"radio_events":[6369.29999999702,8981.79999999702,14666.10000000149,14669,17716.5,22914.89999999851,32281.20000000298,37099.10000000149,40246.79999999702,44233.20000000298,47623.10000000149,52993,55945.29999999702,61261.29999999702],"key_events":[],"mouse_events":[5374.10000000149,6369.29999999702,7808,8981.79999999702,14666.10000000149,14669,17716.5,21369.20000000298,22914.89999999851,32281.20000000298,37099.10000000149,39571.39999999851,40246.79999999702,42072.29999999702,44233.20000000298,47623.10000000149,51842.89999999851,52993,55945.29999999702,61261.29999999702,63793.29999999702],"straightlining":0.45454545454545453,"zigzagging":0.3,"honeypot":0,"survey":"nfc10","trial_type":"survey-template","trial_index":4,"time_elapsed":150336,"internal_node_id":"0.0-4.0","experiment":"validation","task_version":"2.0","jspsych_version":"6.3.1","infrequency":0},{"value":0,"trial_type":"call-function","trial_index":5,"time_elapsed":150341,"internal_node_id":"0.0-5.0","experiment":"validation","task_version":"2.0","jspsych_version":"6.3.1","interactions":"[{\"event\":\"focus\",\"trial\":0,\"time\":8086}]"}]