[{"view_history":[{"page_index":0,"viewing_time":1392.2000000476837}],"rt":1392.7000000476837,"trial_type":"instructions","trial_index":0,"time_elapsed":1407,"internal_node_id":"0.0-0.0","experiment":"validation","task_version":"2.0","jspsych_version":"6.3.1"},{"rt":9164.300000011921,"responses":{"age":"24","gender-categorical":"Female","gender-free-response":"","ethnicity":"Not Hispanic or Latino","race":["White"],"education":"Bachelor degree"},"survey":"demographics","trial_type":"survey-demo","trial_index":1,"time_elapsed":10575,"internal_node_id":"0.0-1.0","experiment":"validation","task_version":"2.0","jspsych_version":"6.3.1"},{"responses":{"Q09":"1","Q08":"3","Q10":"2","Q07":"3","Q03":"3","Q01":"1","Q02":"2","Q05":"3","Q11":"0","Q04":"2","Q06":"1"},"rt":41936.90000003576,"item_order":[8,7,9,6,2,0,1,4,10,3,5],"radio_events":[3146,4753.199999988079,7253.199999988079,11220.900000035763,14448.800000011921,16345.699999988079,18717.19999998808,21878.900000035763,25316.100000023842,26155.100000023842,32747.900000035763,38868.80000001192,41017.19999998808],"key_events":[],"mouse_events":[3146,4753.199999988079,7253.199999988079,10825.600000023842,11220.900000035763,13537.400000035763,14448.800000011921,16345.699999988079,18717.19999998808,21878.900000035763,25316.100000023842,26155.100000023842,32747.900000035763,38868.80000001192,41017.19999998808,41935.10000002384],"straightlining":0.45454545454545453,"zigzagging":0.6,"honeypot":0,"survey":"nfc10","trial_type":"survey-template","trial_index":2,"time_elapsed":52518,"internal_node_id":"0.0-2.0","experiment":"validation","task_version":"2.0","jspsych_version":"6.3.1","infrequency":0},{"responses":{"Q04":"2","Q02":"3","Q03":"2","Q07":"3","Q05":"2","Q09":"4","Q06":"2","Q01":"3","Q08":"3"},"rt":23908.19999998808,"item_order":[3,1,2,6,4,8,5,0,7],"radio_events":[5264.399999976158,6455.899999976158,10029.599999964237,11530,12515.399999976158,14902,18412.399999976158,20218.899999976158,22462.30000001192],"key_events":[],"mouse_events":[3793.800000011921,5264.399999976158,6455.899999976158,10029.599999964237,11530,12515.399999976158,14902,18412.399999976158,20218.899999976158,22462.30000001192,23490.599999964237,23906.19999998808],"straightlining":0.4444444444444444,"zigzagging":0.625,"honeypot":0,"survey":"pcf","trial_type":"survey-template","trial_index":3,"time_elapsed":76431,"internal_node_id":"0.0-3.0","experiment":"validation","task_version":"2.0","jspsych_version":"6.3.1","infrequency":0},{"rt":31988.69999998808,"response":{"Q5":2,"Q4":4,"Q1":2,"Q6":1,"Q3":3,"Q8":0,"Q7":4,"Q0":1,"Q2":3},"question_order":[5,4,1,6,3,8,7,0,2],"survey":"sns","trial_type":"survey-likert","trial_index":4,"time_elapsed":108426,"internal_node_id":"0.0-4.0","experiment":"validation","task_version":"2.0","jspsych_version":"6.3.1","infrequency":0},{"value":0,"trial_type":"call-function","trial_index":5,"time_elapsed":108429,"internal_node_id":"0.0-5.0","experiment":"validation","task_version":"2.0","jspsych_version":"6.3.1","interactions":"[]"}]