[{"view_history":[{"page_index":0,"viewing_time":2190.100000000559}],"rt":2190.4000000003725,"trial_type":"instructions","trial_index":0,"time_elapsed":2195,"internal_node_id":"0.0-0.0","experiment":"validation","task_version":"2.0","jspsych_version":"6.3.1"},{"rt":12406,"responses":{"age":"30","gender-categorical":"Female","gender-free-response":"","ethnicity":"Not Hispanic or Latino","race":["White"],"education":"Bachelor degree"},"survey":"demographics","trial_type":"survey-demo","trial_index":1,"time_elapsed":14605,"internal_node_id":"0.0-1.0","experiment":"validation","task_version":"2.0","jspsych_version":"6.3.1"},{"responses":{"Q05":"3","Q09":"1","Q07":"1","Q04":"1","Q10":"1","Q08":"2","Q11":"0","Q06":"0","Q02":"1","Q03":"2","Q01":"1"},"rt":74163.79999999981,"item_order":[4,8,6,3,9,7,10,5,1,2,0],"radio_events":[9785,19593.200000000186,20561.200000000186,23776.900000000373,43896.700000000186,47896.90000000037,53641,63433.09999999963,65360.299999999814,70002,73488.20000000019],"key_events":[],"mouse_events":[9785,15433.5,16017.299999999814,18752.700000000186,19593.200000000186,20561.200000000186,23776.900000000373,43896.700000000186,47167.59999999963,47896.90000000037,51928,52105,53641,60321.200000000186,60960.40000000037,62569.200000000186,63433.09999999963,65360.299999999814,70002,73488.20000000019,74161.20000000019],"straightlining":0.5454545454545454,"zigzagging":0.4,"honeypot":0,"survey":"nfc10","trial_type":"survey-template","trial_index":2,"time_elapsed":88774,"internal_node_id":"0.0-2.0","experiment":"validation","task_version":"2.0","jspsych_version":"6.3.1","infrequency":0},{"responses":{"Q03":"3","Q09":"4","Q06":"3","Q05":"3","Q07":"2","Q02":"2","Q01":"2","Q04":"2","Q08":"4"},"rt":31994.900000000373,"item_order":[2,8,5,4,6,1,0,3,7],"radio_events":[4792.700000000186,15057.200000000186,16720.10000000056,19584.400000000373,22239.900000000373,24776.700000000186,26128,29448.10000000056,31288.799999999814],"key_events":[],"mouse_events":[307.20000000018626,4792.700000000186,7702.700000000186,7911.200000000186,14265,15057.200000000186,16720.10000000056,18737.200000000186,19584.400000000373,22239.900000000373,24776.700000000186,26128,29448.10000000056,31288.799999999814,31992.5],"straightlining":0.4444444444444444,"zigzagging":0.125,"honeypot":0,"survey":"pcf","trial_type":"survey-template","trial_index":3,"time_elapsed":120773,"internal_node_id":"0.0-3.0","experiment":"validation","task_version":"2.0","jspsych_version":"6.3.1","infrequency":0},{"rt":41547.09999999963,"response":{"Q6":1,"Q3":4,"Q1":4,"Q4":5,"Q7":3,"Q5":1,"Q8":0,"Q2":4,"Q0":4},"question_order":[6,3,1,4,7,5,8,2,0],"survey":"sns","trial_type":"survey-likert","trial_index":4,"time_elapsed":162325,"internal_node_id":"0.0-4.0","experiment":"validation","task_version":"2.0","jspsych_version":"6.3.1","infrequency":0},{"value":0,"trial_type":"call-function","trial_index":5,"time_elapsed":162328,"internal_node_id":"0.0-5.0","experiment":"validation","task_version":"2.0","jspsych_version":"6.3.1","interactions":"[]"}]