[{"view_history":[{"page_index":0,"viewing_time":1272}],"rt":1272.300000011921,"trial_type":"instructions","trial_index":0,"time_elapsed":1282,"internal_node_id":"0.0-0.0","experiment":"validation","task_version":"2.0","jspsych_version":"6.3.1"},{"rt":9086.100000023842,"responses":{"age":"42","gender-categorical":"Female","gender-free-response":"","ethnicity":"Not Hispanic or Latino","race":["Asian"],"education":"Bachelor degree"},"survey":"demographics","trial_type":"survey-demo","trial_index":1,"time_elapsed":10370,"internal_node_id":"0.0-1.0","experiment":"validation","task_version":"2.0","jspsych_version":"6.3.1"},{"responses":{"Q06":"3","Q08":"3","Q09":"2","Q03":"2","Q02":"2","Q07":"3","Q11":"0","Q05":"3","Q04":"2","Q10":"2","Q01":"2"},"rt":79127.39999997616,"item_order":[5,7,8,2,1,6,10,4,3,9,0],"radio_events":[4373.899999976158,6901.599999964237,9845.5,13901.5,15845.599999964237,20469.599999964237,25405.099999964237,37309.5,58301.5,59445.39999997616,68549.39999997616,77293.39999997616,78629.59999996424],"key_events":[],"mouse_events":[4373.899999976158,6901.599999964237,9109.599999964237,9845.5,13901.5,15845.599999964237,20469.599999964237,24389.599999964237,25061.69999998808,25405.099999964237,37309.5,56765.5,58301.5,59445.39999997616,67437.59999996424,68549.39999997616,77293.39999997616,78629.59999996424,79125.59999996424],"straightlining":0.5454545454545454,"zigzagging":0.4,"honeypot":0,"survey":"nfc10","trial_type":"survey-template","trial_index":2,"time_elapsed":89506,"internal_node_id":"0.0-2.0","experiment":"validation","task_version":"2.0","jspsych_version":"6.3.1","infrequency":0},{"responses":{"Q06":"2","Q01":"3","Q04":"3","Q09":"4","Q05":"3","Q03":"3","Q08":"4","Q07":"4","Q02":"4"},"rt":41384,"item_order":[5,0,3,8,4,2,7,6,1],"radio_events":[12286.699999988079,13958.599999964237,16246.399999976158,18822.5,19694.5,21910.599999964237,25022.599999964237,27822.5,29429.80000001192,30398.599999964237,32766.599999964237,36270.09999996424,39382.59999996424],"key_events":[],"mouse_events":[12286.699999988079,13958.599999964237,14862.699999988079,16246.399999976158,18822.5,19694.5,21910.599999964237,25022.599999964237,27822.5,29429.80000001192,30398.599999964237,32766.599999964237,36270.09999996424,39382.59999996424,41382.5],"straightlining":0.4444444444444444,"zigzagging":0.25,"honeypot":0,"survey":"pcf","trial_type":"survey-template","trial_index":3,"time_elapsed":130896,"internal_node_id":"0.0-3.0","experiment":"validation","task_version":"2.0","jspsych_version":"6.3.1","infrequency":0},{"rt":48046.5,"response":{"Q6":2,"Q2":4,"Q1":4,"Q8":0,"Q4":4,"Q7":4,"Q5":4,"Q3":4,"Q0":4},"question_order":[6,2,1,8,4,7,5,3,0],"survey":"sns","trial_type":"survey-likert","trial_index":4,"time_elapsed":178950,"internal_node_id":"0.0-4.0","experiment":"validation","task_version":"2.0","jspsych_version":"6.3.1","infrequency":0},{"value":0,"trial_type":"call-function","trial_index":5,"time_elapsed":178955,"internal_node_id":"0.0-5.0","experiment":"validation","task_version":"2.0","jspsych_version":"6.3.1","interactions":"[]"}]