[{"view_history":[{"page_index":0,"viewing_time":1747.8999999761581}],"rt":1748.199999988079,"trial_type":"instructions","trial_index":0,"time_elapsed":1757,"internal_node_id":"0.0-0.0","experiment":"validation","task_version":"2.0","jspsych_version":"6.3.1"},{"rt":9636,"responses":{"age":"29","gender-categorical":"Male","gender-free-response":"","ethnicity":"Not Hispanic or Latino","race":["White"],"education":"Bachelor degree"},"survey":"demographics","trial_type":"survey-demo","trial_index":1,"time_elapsed":11395,"internal_node_id":"0.0-1.0","experiment":"validation","task_version":"2.0","jspsych_version":"6.3.1"},{"responses":{"Q04":"3","Q06":"3","Q08":"3","Q01":"3","Q05":"3","Q09":"3","Q07":"3","Q10":"3","Q03":"3","Q11":"0","Q02":"3"},"rt":241911.80000001192,"item_order":[3,5,7,0,4,8,6,9,2,10,1],"radio_events":[9911.300000011921,120460,123664.19999998808,130675.5,135945.09999996424,138912.19999998808,142404,181429.09999996424,218777.39999997616,223479.89999997616,240892.69999998808],"key_events":[],"mouse_events":[9251.5,9911.300000011921,119906.89999997616,120460,123664.19999998808,125056.19999998808,130675.5,135099.39999997616,135945.09999996424,138912.19999998808,142404,179443.19999998808,181429.09999996424,218777.39999997616,222967.19999998808,223479.89999997616,237954.30000001192,238377.19999998808,240892.69999998808,241910.30000001192],"straightlining":0.6363636363636364,"zigzagging":0.1,"honeypot":0,"survey":"nfc10","trial_type":"survey-template","trial_index":2,"time_elapsed":253311,"internal_node_id":"0.0-2.0","experiment":"validation","task_version":"2.0","jspsych_version":"6.3.1","infrequency":0},{"responses":{"Q03":"3","Q09":"4","Q06":"3","Q02":"4","Q01":"4","Q05":"3","Q08":"4","Q07":"3","Q04":"3"},"rt":42428.10000002384,"item_order":[2,8,5,1,0,4,7,6,3],"radio_events":[6613.600000023842,8448.5,19379.30000001192,24202.399999976158,26054.399999976158,27482.5,28493.100000023842,31229.600000023842,34975.69999998808,41245.39999997616],"key_events":[],"mouse_events":[6613.600000023842,8448.5,19379.30000001192,24202.399999976158,25424.399999976158,26054.399999976158,27482.5,28084.399999976158,28493.100000023842,31229.600000023842,34975.69999998808,40924.69999998808,41245.39999997616,42427.10000002384],"straightlining":0.5555555555555556,"zigzagging":0.5,"honeypot":0,"survey":"pcf","trial_type":"survey-template","trial_index":3,"time_elapsed":295742,"internal_node_id":"0.0-3.0","experiment":"validation","task_version":"2.0","jspsych_version":"6.3.1","infrequency":0},{"rt":37859.5,"response":{"Q4":5,"Q2":4,"Q6":0,"Q7":5,"Q0":4,"Q3":4,"Q1":5,"Q5":5,"Q8":0},"question_order":[4,2,6,7,0,3,1,5,8],"survey":"sns","trial_type":"survey-likert","trial_index":4,"time_elapsed":333607,"internal_node_id":"0.0-4.0","experiment":"validation","task_version":"2.0","jspsych_version":"6.3.1","infrequency":0},{"value":0,"trial_type":"call-function","trial_index":5,"time_elapsed":333608,"internal_node_id":"0.0-5.0","experiment":"validation","task_version":"2.0","jspsych_version":"6.3.1","interactions":"[]"}]