[{"view_history":[{"page_index":0,"viewing_time":11445.099999904633}],"rt":11445.899999976158,"trial_type":"instructions","trial_index":0,"time_elapsed":11456,"internal_node_id":"0.0-0.0","experiment":"validation","task_version":"2.0","jspsych_version":"6.3.1"},{"rt":11763.100000023842,"responses":{"age":"35","gender-categorical":"Female","gender-free-response":"","ethnicity":"Not Hispanic or Latino","race":["Asian","White"],"education":"Bachelor degree"},"survey":"demographics","trial_type":"survey-demo","trial_index":1,"time_elapsed":23221,"internal_node_id":"0.0-1.0","experiment":"validation","task_version":"2.0","jspsych_version":"6.3.1"},{"responses":{"Q03":"1","Q04":"2","Q08":"2","Q06":"0","Q07":"1","Q02":"2","Q05":"1","Q01":"2","Q09":"4"},"rt":33374.200000047684,"item_order":[2,3,7,5,6,1,4,0,8],"radio_events":[6417,9129.700000047684,14671.300000071526,18022.700000047684,19168.600000023842,21752.900000095367,27534.900000095367,29007,30591.100000023842,32863],"key_events":[],"mouse_events":[6417,8548.700000047684,9129.700000047684,13346.900000095367,13896.800000071526,14671.300000071526,18022.700000047684,18600.700000047684,18834.700000047684,19168.600000023842,21033.100000023842,21752.900000095367,26419,27534.900000095367,29007,30591.100000023842,32476.900000095367,32863,33372.5],"straightlining":0.4444444444444444,"zigzagging":0.625,"honeypot":0,"survey":"pcf","trial_type":"survey-template","trial_index":2,"time_elapsed":56601,"internal_node_id":"0.0-2.0","experiment":"validation","task_version":"2.0","jspsych_version":"6.3.1","infrequency":0},{"rt":48422.89999997616,"response":{"Q5":3,"Q2":1,"Q6":1,"Q4":2,"Q3":1,"Q0":1,"Q7":3,"Q8":0,"Q1":1},"question_order":[5,2,6,4,3,0,7,8,1],"survey":"sns","trial_type":"survey-likert","trial_index":3,"time_elapsed":105030,"internal_node_id":"0.0-3.0","experiment":"validation","task_version":"2.0","jspsych_version":"6.3.1","infrequency":0},{"responses":{"Q10":"3","Q05":"3","Q09":"3","Q03":"3","Q11":"0","Q01":"2","Q06":"3","Q04":"3","Q07":"3","Q02":"3","Q08":"3"},"rt":60595.5,"item_order":[9,4,8,2,10,0,5,3,6,1,7],"radio_events":[23601.400000095367,28937.300000071526,32309.5,34471.300000071526,37667.5,42641.300000071526,48025.40000009537,51382,56239.5,58621.40000009537,60055.200000047684],"key_events":[],"mouse_events":[23601.400000095367,27244.100000023842,27861,28937.300000071526,30485.400000095367,31353.100000023842,32309.5,33744.5,34471.300000071526,36911.200000047684,37667.5,42641.300000071526,48025.40000009537,51382,55418,56239.5,57505,58621.40000009537,59327.40000009537,60055.200000047684,60593],"straightlining":0.5454545454545454,"zigzagging":0.2,"honeypot":0,"survey":"nfc10","trial_type":"survey-template","trial_index":4,"time_elapsed":165631,"internal_node_id":"0.0-4.0","experiment":"validation","task_version":"2.0","jspsych_version":"6.3.1","infrequency":0},{"value":0,"trial_type":"call-function","trial_index":5,"time_elapsed":165635,"internal_node_id":"0.0-5.0","experiment":"validation","task_version":"2.0","jspsych_version":"6.3.1","interactions":"[]"}]