[{"view_history":[{"page_index":0,"viewing_time":9651.299999952316}],"rt":9652,"trial_type":"instructions","trial_index":0,"time_elapsed":9658,"internal_node_id":"0.0-0.0","experiment":"validation","task_version":"2.0","jspsych_version":"6.3.1"},{"rt":23477.600000023842,"responses":{"age":"69","gender-categorical":"Male","gender-free-response":"","ethnicity":"Not Hispanic or Latino","race":["White"],"education":"Master degree or higher"},"survey":"demographics","trial_type":"survey-demo","trial_index":1,"time_elapsed":33138,"internal_node_id":"0.0-1.0","experiment":"validation","task_version":"2.0","jspsych_version":"6.3.1"},{"responses":{"Q04":"4","Q08":"4","Q01":"3","Q07":"4","Q02":"4","Q06":"3","Q11":"0","Q05":"4","Q03":"4","Q09":"3","Q10":"4"},"rt":52820.299999952316,"item_order":[3,7,0,6,1,5,10,4,2,8,9],"radio_events":[7220.099999904633,11651.899999976158,14819.799999952316,17835.599999904633,26371.399999976158,32627.299999952316,37051.299999952316,42819.799999952316,44227.299999952316,46339.09999990463,51779],"key_events":[],"mouse_events":[7220.099999904633,10811.899999976158,11651.899999976158,14819.799999952316,17835.599999904633,26371.399999976158,32627.299999952316,37051.299999952316,42819.799999952316,44227.299999952316,46339.09999990463,51779,52819.199999928474],"straightlining":0.36363636363636365,"zigzagging":0.5,"honeypot":0,"survey":"nfc10","trial_type":"survey-template","trial_index":2,"time_elapsed":85961,"internal_node_id":"0.0-2.0","experiment":"validation","task_version":"2.0","jspsych_version":"6.3.1","infrequency":0},{"responses":{"Q09":"4","Q05":"4","Q03":"4","Q04":"3","Q02":"4","Q06":"4","Q08":"4","Q01":"4","Q07":"4"},"rt":42771.5,"item_order":[8,4,2,3,1,5,7,0,6],"radio_events":[5499.600000023842,8875.299999952316,12555.299999952316,17083.399999976158,22331.299999952316,36171,38410.799999952316,40138.700000047684,41786.700000047684],"key_events":[],"mouse_events":[5499.600000023842,8875.299999952316,12555.299999952316,17083.399999976158,22331.299999952316,36171,38410.799999952316,40138.700000047684,41786.700000047684,42770.799999952316],"straightlining":0.7777777777777778,"zigzagging":0.375,"honeypot":0,"survey":"pcf","trial_type":"survey-template","trial_index":3,"time_elapsed":128735,"internal_node_id":"0.0-3.0","experiment":"validation","task_version":"2.0","jspsych_version":"6.3.1","infrequency":0},{"rt":54795.60000002384,"response":{"Q3":5,"Q0":4,"Q5":4,"Q1":5,"Q8":0,"Q4":5,"Q7":4,"Q6":1,"Q2":5},"question_order":[3,0,5,1,8,4,7,6,2],"survey":"sns","trial_type":"survey-likert","trial_index":4,"time_elapsed":183535,"internal_node_id":"0.0-4.0","experiment":"validation","task_version":"2.0","jspsych_version":"6.3.1","infrequency":0},{"value":0,"trial_type":"call-function","trial_index":5,"time_elapsed":183536,"internal_node_id":"0.0-5.0","experiment":"validation","task_version":"2.0","jspsych_version":"6.3.1","interactions":"[{\"event\":\"blur\",\"trial\":0,\"time\":3548},{\"event\":\"focus\",\"trial\":0,\"time\":4688}]"}]