[{"view_history":[{"page_index":0,"viewing_time":4062.9000000059605}],"rt":4063.4000000059605,"trial_type":"instructions","trial_index":0,"time_elapsed":4071,"internal_node_id":"0.0-0.0","experiment":"validation","task_version":"2.0","jspsych_version":"6.3.1"},{"rt":18365.70000001788,"responses":{"age":"34","gender-categorical":"Female","gender-free-response":"","ethnicity":"Not Hispanic or Latino","race":["White"],"education":"Bachelor degree"},"survey":"demographics","trial_type":"survey-demo","trial_index":1,"time_elapsed":22439,"internal_node_id":"0.0-1.0","experiment":"validation","task_version":"2.0","jspsych_version":"6.3.1"},{"rt":68244.40000000596,"response":{"Q3":1,"Q6":1,"Q2":0,"Q4":3,"Q0":1,"Q7":3,"Q1":2,"Q5":3,"Q8":0},"question_order":[3,6,2,4,0,7,1,5,8],"survey":"sns","trial_type":"survey-likert","trial_index":2,"time_elapsed":90687,"internal_node_id":"0.0-2.0","experiment":"validation","task_version":"2.0","jspsych_version":"6.3.1","infrequency":0},{"responses":{"Q01":"3","Q02":"4","Q08":"3","Q06":"4","Q04":"4","Q05":"4","Q09":"4","Q07":"4","Q03":"4"},"rt":89556.40000000596,"item_order":[0,1,7,5,3,4,8,6,2],"radio_events":[6555.0999999940395,9147.40000000596,14483.59999999404,18379.09999999404,30371.40000000596,35099.20000001788,45923.59999999404,51474.90000000596,55427.09999999404,59954.90000000596,64818.80000001192,67691.40000000596,71163,82746.80000001192],"key_events":[],"mouse_events":[6059.5,6555.0999999940395,9147.40000000596,14483.59999999404,18379.09999999404,30371.40000000596,35099.20000001788,44267,44803.09999999404,45923.59999999404,51474.90000000596,55427.09999999404,59954.90000000596,64259,64818.80000001192,67691.40000000596,71163,81322.80000001192,81874.90000000596,82338.80000001192,82746.80000001192,89555.30000001192],"straightlining":0.6666666666666666,"zigzagging":0.625,"honeypot":0,"survey":"pcf","trial_type":"survey-template","trial_index":3,"time_elapsed":180247,"internal_node_id":"0.0-3.0","experiment":"validation","task_version":"2.0","jspsych_version":"6.3.1","infrequency":0},{"responses":{"Q06":"1","Q09":"1","Q11":"0","Q08":"1","Q01":"0","Q04":"1","Q05":"3","Q03":"2","Q02":"1","Q10":"1","Q07":"1"},"rt":143308,"item_order":[5,8,10,7,0,3,4,2,1,9,6],"radio_events":[6723.5,10995.5,16515.69999998808,23115.69999998808,33811.89999997616,35963.29999998212,42539.39999997616,75051.29999998212,78835.5,86394.89999997616,93299.39999997616,104082.79999998212,120346.79999998212],"key_events":[],"mouse_events":[6723.5,10995.5,16515.69999998808,23115.69999998808,33331.39999997616,33811.89999997616,35963.29999998212,42539.39999997616,74523.39999997616,75051.29999998212,78411.19999998808,78835.5,86394.89999997616,93299.39999997616,104082.79999998212,119891.19999998808,120346.79999998212,143306.89999997616],"straightlining":0.6363636363636364,"zigzagging":0.5,"honeypot":0,"survey":"nfc10","trial_type":"survey-template","trial_index":4,"time_elapsed":323558,"internal_node_id":"0.0-4.0","experiment":"validation","task_version":"2.0","jspsych_version":"6.3.1","infrequency":0},{"value":0,"trial_type":"call-function","trial_index":5,"time_elapsed":323560,"internal_node_id":"0.0-5.0","experiment":"validation","task_version":"2.0","jspsych_version":"6.3.1","interactions":"[]"}]