[{"view_history":[{"page_index":0,"viewing_time":1095.9000000357628}],"rt":1096.199999988079,"trial_type":"instructions","trial_index":0,"time_elapsed":1103,"internal_node_id":"0.0-0.0","experiment":"validation","task_version":"2.0","jspsych_version":"6.3.1"},{"rt":8462.800000011921,"responses":{"age":"36","gender-categorical":"Male","gender-free-response":"","ethnicity":"Not Hispanic or Latino","race":["White"],"education":"Master degree or higher"},"survey":"demographics","trial_type":"survey-demo","trial_index":1,"time_elapsed":9567,"internal_node_id":"0.0-1.0","experiment":"validation","task_version":"2.0","jspsych_version":"6.3.1"},{"responses":{"Q07":"3","Q10":"2","Q06":"2","Q03":"2","Q01":"3","Q05":"2","Q08":"3","Q09":"3","Q04":"3","Q11":"0","Q02":"3"},"rt":258005,"item_order":[6,9,5,2,0,4,7,8,3,10,1],"radio_events":[2502.199999988079,6555.899999976158,7770.099999964237,10664.800000011921,13504.5,14289.699999988079,15052.099999964237,16718,18150.099999964237,243237.80000001192,245703.59999996424,249897.5,254424],"key_events":[],"mouse_events":[2502.199999988079,3794.199999988079,6555.899999976158,7770.099999964237,8820.099999964237,9286,9660.199999988079,9910.399999976158,10112.399999976158,10664.800000011921,13504.5,14289.699999988079,14750.699999988079,15052.099999964237,16492,16718,18150.099999964237,242771.89999997616,243237.80000001192,245399.39999997616,245703.59999996424,249133.89999997616,249647.69999998808,249897.5,251585.89999997616,254105.5,254424,255568.59999996424,256891.69999998808,258003.80000001192],"straightlining":0.45454545454545453,"zigzagging":0.5,"honeypot":0,"survey":"nfc10","trial_type":"survey-template","trial_index":2,"time_elapsed":267576,"internal_node_id":"0.0-2.0","experiment":"validation","task_version":"2.0","jspsych_version":"6.3.1","infrequency":0},{"rt":19017.899999976158,"response":{"Q5":5,"Q7":5,"Q0":3,"Q2":3,"Q8":0,"Q6":0,"Q1":3,"Q4":4,"Q3":3},"question_order":[5,7,0,2,8,6,1,4,3],"survey":"sns","trial_type":"survey-likert","trial_index":3,"time_elapsed":286597,"internal_node_id":"0.0-3.0","experiment":"validation","task_version":"2.0","jspsych_version":"6.3.1","infrequency":0},{"responses":{"Q09":"4","Q06":"3","Q01":"3","Q05":"3","Q04":"3","Q02":"3","Q08":"3","Q03":"4","Q07":"3"},"rt":22055.799999952316,"item_order":[8,5,0,4,3,1,7,2,6],"radio_events":[2813.199999988079,5768.899999976158,8788.899999976158,9271,10974.599999964237,12888.899999976158,14194.799999952316,16903.19999998808,17152.69999998808,21422.899999976158],"key_events":[],"mouse_events":[2813.199999988079,5396.899999976158,5768.899999976158,7612.899999976158,8002.899999976158,8788.899999976158,9271,10974.599999964237,12888.899999976158,13681,14194.799999952316,16281.699999988079,16590.899999976158,16903.19999998808,17152.69999998808,21166.69999998808,21422.899999976158,22054.899999976158],"straightlining":0.7777777777777778,"zigzagging":0.25,"honeypot":0,"survey":"pcf","trial_type":"survey-template","trial_index":4,"time_elapsed":308655,"internal_node_id":"0.0-4.0","experiment":"validation","task_version":"2.0","jspsych_version":"6.3.1","infrequency":0},{"value":0,"trial_type":"call-function","trial_index":5,"time_elapsed":308657,"internal_node_id":"0.0-5.0","experiment":"validation","task_version":"2.0","jspsych_version":"6.3.1","interactions":"[{\"event\":\"blur\",\"trial\":2,\"time\":29136},{\"event\":\"focus\",\"trial\":2,\"time\":71532},{\"event\":\"blur\",\"trial\":2,\"time\":73003},{\"event\":\"focus\",\"trial\":2,\"time\":249459}]"}]