[{"view_history":[{"page_index":0,"viewing_time":1337.0999999046326}],"rt":1337.2999999523163,"trial_type":"instructions","trial_index":0,"time_elapsed":1341,"internal_node_id":"0.0-0.0","experiment":"validation","task_version":"2.0","jspsych_version":"6.3.1"},{"rt":14479.399999856949,"responses":{"age":"36","gender-categorical":"Male","gender-free-response":"","ethnicity":"Not Hispanic or Latino","race":["White"],"education":"Bachelor degree"},"survey":"demographics","trial_type":"survey-demo","trial_index":1,"time_elapsed":15822,"internal_node_id":"0.0-1.0","experiment":"validation","task_version":"2.0","jspsych_version":"6.3.1"},{"responses":{"Q08":"2","Q04":"2","Q01":"2","Q09":"4","Q02":"3","Q06":"3","Q03":"3","Q05":"3","Q07":"3"},"rt":123716.89999985695,"item_order":[7,3,0,8,1,5,2,4,6],"radio_events":[111126.59999990463,111776.69999980927,112912.59999990463,114158.5,114473.39999985695,117701.5,118517.29999995232,120914.19999980927,121834.29999995232,122890.19999980927],"key_events":[],"mouse_events":[108533.69999980927,108934.5,109344.5,110300.39999985695,111126.59999990463,111486.39999985695,111776.69999980927,112662.39999985695,112912.59999990463,114158.5,114473.39999985695,117701.5,118517.29999995232,119137.19999980927,119493.09999990463,120503.19999980927,120914.19999980927,121284.29999995232,121834.29999995232,122550.29999995232,122890.19999980927,123716.29999995232],"straightlining":0.5555555555555556,"zigzagging":0,"honeypot":0,"survey":"pcf","trial_type":"survey-template","trial_index":2,"time_elapsed":139541,"internal_node_id":"0.0-2.0","experiment":"validation","task_version":"2.0","jspsych_version":"6.3.1","infrequency":0},{"responses":{"Q10":"3","Q07":"3","Q01":"2","Q02":"2","Q06":"3","Q08":"2","Q04":"3","Q11":"0","Q03":"2","Q09":"3","Q05":"3"},"rt":30998.400000095367,"item_order":[9,6,0,1,5,7,3,10,2,8,4],"radio_events":[2814.5,5086.700000047684,6096.400000095367,7052.300000190735,7943.300000190735,13743.200000047684,16946.300000190735,20058,21313.900000095367,21618.900000095367,22810,25097.900000095367,27109.800000190735,27664.800000190735,28240.700000047684,30281.700000047684],"key_events":[],"mouse_events":[1783.5,2178.4000000953674,2434.5,2814.5,3525.2000000476837,4670.5,5086.700000047684,6096.400000095367,6742.400000095367,7052.300000190735,7447.400000095367,7943.300000190735,12882.100000143051,13388,13743.200000047684,16616.200000047684,16946.300000190735,17646,18115.900000095367,18452,20058,20629,20989,21313.900000095367,21618.900000095367,22810,25097.900000095367,27109.800000190735,27664.800000190735,28240.700000047684,28835.900000095367,29271.800000190735,29621.800000190735,29986.900000095367,30281.700000047684,30757.700000047684,30997.800000190735],"straightlining":0.36363636363636365,"zigzagging":0.6,"honeypot":0,"survey":"nfc10","trial_type":"survey-template","trial_index":3,"time_elapsed":170541,"internal_node_id":"0.0-3.0","experiment":"validation","task_version":"2.0","jspsych_version":"6.3.1","infrequency":0},{"rt":21897.5,"response":{"Q4":4,"Q8":0,"Q0":4,"Q3":5,"Q2":5,"Q1":5,"Q6":1,"Q5":4,"Q7":4},"question_order":[4,8,0,3,2,1,6,5,7],"survey":"sns","trial_type":"survey-likert","trial_index":4,"time_elapsed":192440,"internal_node_id":"0.0-4.0","experiment":"validation","task_version":"2.0","jspsych_version":"6.3.1","infrequency":0},{"value":0,"trial_type":"call-function","trial_index":5,"time_elapsed":192442,"internal_node_id":"0.0-5.0","experiment":"validation","task_version":"2.0","jspsych_version":"6.3.1","interactions":"[{\"event\":\"blur\",\"trial\":2,\"time\":85424},{\"event\":\"focus\",\"trial\":2,\"time\":124262}]"}]