[{"success":true,"timeout":false,"failed_images":[],"failed_audio":[],"failed_video":[],"trial_type":"preload","trial_index":0,"time_elapsed":3194,"internal_node_id":"0.0-0.0","experiment":"validation","task_version":"2.0","jspsych_version":"6.3.1"},{"success":true,"trial_type":"fullscreen","trial_index":1,"time_elapsed":42354,"internal_node_id":"0.0-1.0","experiment":"validation","task_version":"2.0","jspsych_version":"6.3.1"},{"view_history":[{"page_index":0,"viewing_time":6101},{"page_index":1,"viewing_time":5368}],"rt":11469,"trial_type":"instructions","trial_index":2,"time_elapsed":53824,"internal_node_id":"0.0-2.0","experiment":"validation","task_version":"2.0","jspsych_version":"6.3.1"},{"min_width":700,"min_height":600,"inner_width":1440,"inner_height":810,"trial_type":"screen-check","trial_index":3,"time_elapsed":53826,"internal_node_id":"0.0-3.0-0.0-0.0","experiment":"validation","task_version":"2.0","jspsych_version":"6.3.1"},{"rt":null,"stimulus":"<div style=\"font-size:24px;\">Loading puzzle:<br>1 / 9</div>","response":null,"trial_type":"html-keyboard-response","trial_index":4,"time_elapsed":55029,"internal_node_id":"0.0-3.0-0.0-1.0","experiment":"validation","task_version":"2.0","jspsych_version":"6.3.1"},{"stimulus":"../static/img/rpm/a11.png","choice_order":[5,2,1,3,4,0],"correct":4,"choice":0,"accuracy":0,"rt":9597,"screen_resolution":[1440,810],"minimum_resolution":1,"all_loaded":true,"test_form":"a","trial_type":"rpm","trial_index":5,"time_elapsed":64628,"internal_node_id":"0.0-3.0-0.0-2.0","experiment":"validation","task_version":"2.0","jspsych_version":"6.3.1"},{"min_width":700,"min_height":600,"inner_width":1440,"inner_height":810,"trial_type":"screen-check","trial_index":6,"time_elapsed":64629,"internal_node_id":"0.0-3.0-0.0-0.1","experiment":"validation","task_version":"2.0","jspsych_version":"6.3.1"},{"rt":null,"stimulus":"<div style=\"font-size:24px;\">Loading puzzle:<br>2 / 9</div>","response":null,"trial_type":"html-keyboard-response","trial_index":7,"time_elapsed":65830,"internal_node_id":"0.0-3.0-0.0-1.1","experiment":"validation","task_version":"2.0","jspsych_version":"6.3.1"},{"stimulus":"../static/img/rpm/a24.png","choice_order":[4,3,0,2,1,5],"correct":4,"choice":4,"accuracy":1,"rt":10226,"screen_resolution":[1440,810],"minimum_resolution":1,"all_loaded":true,"test_form":"a","trial_type":"rpm","trial_index":8,"time_elapsed":76057,"internal_node_id":"0.0-3.0-0.0-2.1","experiment":"validation","task_version":"2.0","jspsych_version":"6.3.1"},{"min_width":700,"min_height":600,"inner_width":1440,"inner_height":810,"trial_type":"screen-check","trial_index":9,"time_elapsed":76058,"internal_node_id":"0.0-3.0-0.0-0.2","experiment":"validation","task_version":"2.0","jspsych_version":"6.3.1"},{"rt":null,"stimulus":"<div style=\"font-size:24px;\">Loading puzzle:<br>3 / 9</div>","response":null,"trial_type":"html-keyboard-response","trial_index":10,"time_elapsed":77259,"internal_node_id":"0.0-3.0-0.0-1.2","experiment":"validation","task_version":"2.0","jspsych_version":"6.3.1"},{"stimulus":"../static/img/rpm/a28.png","choice_order":[6,3,1,7,0,2,5,4],"correct":7,"choice":7,"accuracy":1,"rt":10117,"screen_resolution":[1440,810],"minimum_resolution":1,"all_loaded":true,"test_form":"a","trial_type":"rpm","trial_index":11,"time_elapsed":87379,"internal_node_id":"0.0-3.0-0.0-2.2","experiment":"validation","task_version":"2.0","jspsych_version":"6.3.1"},{"min_width":700,"min_height":600,"inner_width":1440,"inner_height":810,"trial_type":"screen-check","trial_index":12,"time_elapsed":87379,"internal_node_id":"0.0-3.0-0.0-0.3","experiment":"validation","task_version":"2.0","jspsych_version":"6.3.1"},{"rt":null,"stimulus":"<div style=\"font-size:24px;\">Loading puzzle:<br>4 / 9</div>","response":null,"trial_type":"html-keyboard-response","trial_index":13,"time_elapsed":88579,"internal_node_id":"0.0-3.0-0.0-1.3","experiment":"validation","task_version":"2.0","jspsych_version":"6.3.1"},{"stimulus":"../static/img/rpm/a36.png","choice_order":[0,3,1,6,4,2,5,7],"correct":1,"choice":2,"accuracy":0,"rt":9816,"screen_resolution":[1440,810],"minimum_resolution":1,"all_loaded":true,"test_form":"a","trial_type":"rpm","trial_index":14,"time_elapsed":98397,"internal_node_id":"0.0-3.0-0.0-2.3","experiment":"validation","task_version":"2.0","jspsych_version":"6.3.1"},{"min_width":700,"min_height":600,"inner_width":1440,"inner_height":810,"trial_type":"screen-check","trial_index":15,"time_elapsed":98397,"internal_node_id":"0.0-3.0-0.0-0.4","experiment":"validation","task_version":"2.0","jspsych_version":"6.3.1"},{"rt":null,"stimulus":"<div style=\"font-size:24px;\">Loading puzzle:<br>5 / 9</div>","response":null,"trial_type":"html-keyboard-response","trial_index":16,"time_elapsed":99598,"internal_node_id":"0.0-3.0-0.0-1.4","experiment":"validation","task_version":"2.0","jspsych_version":"6.3.1"},{"stimulus":"../static/img/rpm/a43.png","choice_order":[6,5,4,3,1,7,2,0],"correct":4,"choice":4,"accuracy":1,"rt":14423,"screen_resolution":[1440,810],"minimum_resolution":1,"all_loaded":true,"test_form":"a","trial_type":"rpm","trial_index":17,"time_elapsed":114023,"internal_node_id":"0.0-3.0-0.0-2.4","experiment":"validation","task_version":"2.0","jspsych_version":"6.3.1"},{"min_width":700,"min_height":600,"inner_width":1440,"inner_height":810,"trial_type":"screen-check","trial_index":18,"time_elapsed":114023,"internal_node_id":"0.0-3.0-0.0-0.5","experiment":"validation","task_version":"2.0","jspsych_version":"6.3.1"},{"rt":null,"stimulus":"<div style=\"font-size:24px;\">Loading puzzle:<br>6 / 9</div>","response":null,"trial_type":"html-keyboard-response","trial_index":19,"time_elapsed":115227,"internal_node_id":"0.0-3.0-0.0-1.5","experiment":"validation","task_version":"2.0","jspsych_version":"6.3.1"},{"stimulus":"../static/img/rpm/a48.png","choice_order":[1,6,5,0,2,7,3,4],"correct":5,"choice":null,"accuracy":null,"rt":null,"screen_resolution":[1440,810],"minimum_resolution":1,"all_loaded":true,"test_form":"a","trial_type":"rpm","trial_index":20,"time_elapsed":145230,"internal_node_id":"0.0-3.0-0.0-2.5","experiment":"validation","task_version":"2.0","jspsych_version":"6.3.1"},{"min_width":700,"min_height":600,"inner_width":1440,"inner_height":810,"trial_type":"screen-check","trial_index":21,"time_elapsed":145231,"internal_node_id":"0.0-3.0-0.0-0.6","experiment":"validation","task_version":"2.0","jspsych_version":"6.3.1"},{"rt":null,"stimulus":"<div style=\"font-size:24px;\">Loading puzzle:<br>7 / 9</div>","response":null,"trial_type":"html-keyboard-response","trial_index":22,"time_elapsed":146432,"internal_node_id":"0.0-3.0-0.0-1.6","experiment":"validation","task_version":"2.0","jspsych_version":"6.3.1"},{"stimulus":"../static/img/rpm/a49.png","choice_order":[1,6,2,3,5,7,0,4],"correct":6,"choice":6,"accuracy":1,"rt":9446,"screen_resolution":[1440,810],"minimum_resolution":1,"all_loaded":true,"test_form":"a","trial_type":"rpm","trial_index":23,"time_elapsed":155877,"internal_node_id":"0.0-3.0-0.0-2.6","experiment":"validation","task_version":"2.0","jspsych_version":"6.3.1"},{"min_width":700,"min_height":600,"inner_width":1440,"inner_height":810,"trial_type":"screen-check","trial_index":24,"time_elapsed":155878,"internal_node_id":"0.0-3.0-0.0-0.7","experiment":"validation","task_version":"2.0","jspsych_version":"6.3.1"},{"rt":null,"stimulus":"<div style=\"font-size:24px;\">Loading puzzle:<br>8 / 9</div>","response":null,"trial_type":"html-keyboard-response","trial_index":25,"time_elapsed":157083,"internal_node_id":"0.0-3.0-0.0-1.7","experiment":"validation","task_version":"2.0","jspsych_version":"6.3.1"},{"stimulus":"../static/img/rpm/a53.png","choice_order":[1,0,2,7,4,5,3,6],"correct":0,"choice":0,"accuracy":1,"rt":18508,"screen_resolution":[1440,810],"minimum_resolution":1,"all_loaded":true,"test_form":"a","trial_type":"rpm","trial_index":26,"time_elapsed":175591,"internal_node_id":"0.0-3.0-0.0-2.7","experiment":"validation","task_version":"2.0","jspsych_version":"6.3.1"},{"min_width":700,"min_height":600,"inner_width":1440,"inner_height":810,"trial_type":"screen-check","trial_index":27,"time_elapsed":175592,"internal_node_id":"0.0-3.0-0.0-0.8","experiment":"validation","task_version":"2.0","jspsych_version":"6.3.1"},{"rt":null,"stimulus":"<div style=\"font-size:24px;\">Loading puzzle:<br>9 / 9</div>","response":null,"trial_type":"html-keyboard-response","trial_index":28,"time_elapsed":176796,"internal_node_id":"0.0-3.0-0.0-1.8","experiment":"validation","task_version":"2.0","jspsych_version":"6.3.1"},{"stimulus":"../static/img/rpm/a55.png","choice_order":[2,6,7,5,1,3,4,0],"correct":1,"choice":7,"accuracy":0,"rt":12718,"screen_resolution":[1440,810],"minimum_resolution":1,"all_loaded":true,"test_form":"a","trial_type":"rpm","trial_index":29,"time_elapsed":189514,"internal_node_id":"0.0-3.0-0.0-2.8","experiment":"validation","task_version":"2.0","jspsych_version":"6.3.1"},{"value":{"rpm_raw":5,"rpm_err":4,"rpm_adj":46.455166627306824,"rpm_rt":94851},"trial_type":"call-function","trial_index":30,"time_elapsed":189515,"internal_node_id":"0.0-3.0-1.0","experiment":"validation","task_version":"2.0","jspsych_version":"6.3.1"},{"view_history":[{"page_index":0,"viewing_time":3758}],"rt":3758,"trial_type":"instructions","trial_index":31,"time_elapsed":193274,"internal_node_id":"0.0-4.0","experiment":"validation","task_version":"2.0","jspsych_version":"6.3.1","interactions":"[{\"event\":\"focus\",\"trial\":0,\"time\":1},{\"event\":\"fullscreenenter\",\"trial\":1,\"time\":41592}]"}]