[{"view_history":[{"page_index":0,"viewing_time":1643.5}],"rt":1644,"trial_type":"instructions","trial_index":0,"time_elapsed":1650,"internal_node_id":"0.0-0.0","experiment":"validation","task_version":"2.0","jspsych_version":"6.3.1"},{"rt":11853,"responses":{"age":"53","gender-categorical":"Female","gender-free-response":"","ethnicity":"Not Hispanic or Latino","race":["White"],"education":"Bachelor degree"},"survey":"demographics","trial_type":"survey-demo","trial_index":1,"time_elapsed":13506,"internal_node_id":"0.0-1.0","experiment":"validation","task_version":"2.0","jspsych_version":"6.3.1"},{"rt":47197,"response":{"Q7":3,"Q0":3,"Q4":4,"Q5":2,"Q3":4,"Q8":0,"Q2":4,"Q6":1,"Q1":4},"question_order":[7,0,4,5,3,8,2,6,1],"survey":"sns","trial_type":"survey-likert","trial_index":2,"time_elapsed":60708,"internal_node_id":"0.0-2.0","experiment":"validation","task_version":"2.0","jspsych_version":"6.3.1","infrequency":0},{"responses":{"Q08":"2","Q04":"3","Q02":"3","Q01":"3","Q03":"3","Q06":"2","Q09":"4","Q07":"3","Q05":"3"},"rt":49433.89999961853,"item_order":[7,3,1,0,2,5,8,6,4],"radio_events":[6623.89999961853,11472,16069.800000190735,18007.599999427795,24622.800000190735,31407.599999427795,34959.5,41887.699999809265,44502.599999427795],"key_events":[],"mouse_events":[6623.89999961853,11472,16069.800000190735,18007.599999427795,23504.099999427795,24622.800000190735,31407.599999427795,34959.5,41887.699999809265,43968.699999809265,44502.599999427795,49432],"straightlining":0.6666666666666666,"zigzagging":0.25,"honeypot":0,"survey":"pcf","trial_type":"survey-template","trial_index":3,"time_elapsed":110147,"internal_node_id":"0.0-3.0","experiment":"validation","task_version":"2.0","jspsych_version":"6.3.1","infrequency":0},{"responses":{"Q10":"3","Q08":"3","Q04":"3","Q01":"3","Q07":"3","Q05":"3","Q06":"3","Q03":"3","Q11":"0","Q09":"2","Q02":"3"},"rt":46985.89999961853,"item_order":[9,7,3,0,6,4,5,2,10,8,1],"radio_events":[6953.39999961853,9897.300000190735,13313.199999809265,15065.39999961853,19816.10000038147,25513.39999961853,27345.10000038147,28481.300000190735,30441.39999961853,32233.300000190735,38233.60000038147,41800.39999961853,46144.199999809265],"key_events":[],"mouse_events":[6073.39999961853,6953.39999961853,8881.60000038147,9897.300000190735,12497.300000190735,13313.199999809265,15065.39999961853,19816.10000038147,24993.699999809265,25513.39999961853,27345.10000038147,28481.300000190735,30441.39999961853,32233.300000190735,38233.60000038147,41209.89999961853,41800.39999961853,46144.199999809265,46983.800000190735],"straightlining":0.5454545454545454,"zigzagging":0.2,"honeypot":0,"survey":"nfc10","trial_type":"survey-template","trial_index":4,"time_elapsed":157138,"internal_node_id":"0.0-4.0","experiment":"validation","task_version":"2.0","jspsych_version":"6.3.1","infrequency":0},{"value":0,"trial_type":"call-function","trial_index":5,"time_elapsed":157140,"internal_node_id":"0.0-5.0","experiment":"validation","task_version":"2.0","jspsych_version":"6.3.1","interactions":"[]"}]