[{"view_history":[{"page_index":0,"viewing_time":25569.79999999702}],"rt":25570.69999998808,"trial_type":"instructions","trial_index":0,"time_elapsed":25577,"internal_node_id":"0.0-0.0","experiment":"validation","task_version":"2.0","jspsych_version":"6.3.1"},{"rt":10533.39999999106,"responses":{"age":"62","gender-categorical":"Male","gender-free-response":"","ethnicity":"Not Hispanic or Latino","race":["White"],"education":"Bachelor degree"},"survey":"demographics","trial_type":"survey-demo","trial_index":1,"time_elapsed":36113,"internal_node_id":"0.0-1.0","experiment":"validation","task_version":"2.0","jspsych_version":"6.3.1"},{"responses":{"Q07":"4","Q03":"4","Q10":"4","Q08":"4","Q02":"4","Q05":"4","Q04":"4","Q01":"4","Q11":"0","Q09":"3","Q06":"3"},"rt":38560.5,"item_order":[6,2,9,7,1,4,3,0,10,8,5],"radio_events":[3801.7999999970198,6370.0999999940395,8469.59999999404,10978.199999988079,13710.5,17535.09999999404,23733.89999999106,25758.59999999404,29826.09999999404,31833.39999999106,37313.09999999404],"key_events":[],"mouse_events":[3801.7999999970198,6370.0999999940395,8469.59999999404,10978.199999988079,13710.5,16698.29999999702,17535.09999999404,23733.89999999106,25758.59999999404,29826.09999999404,31833.39999999106,37313.09999999404,38559],"straightlining":0.45454545454545453,"zigzagging":0.5,"honeypot":0,"survey":"nfc10","trial_type":"survey-template","trial_index":2,"time_elapsed":74679,"internal_node_id":"0.0-2.0","experiment":"validation","task_version":"2.0","jspsych_version":"6.3.1","infrequency":0},{"rt":53305,"response":{"Q8":0,"Q4":4,"Q0":5,"Q5":4,"Q3":5,"Q2":5,"Q1":5,"Q7":5,"Q6":1},"question_order":[8,4,0,5,3,2,1,7,6],"survey":"sns","trial_type":"survey-likert","trial_index":3,"time_elapsed":127988,"internal_node_id":"0.0-3.0","experiment":"validation","task_version":"2.0","jspsych_version":"6.3.1","infrequency":0},{"responses":{"Q08":"3","Q04":"4","Q03":"4","Q01":"4","Q02":"4","Q09":"4","Q06":"2","Q07":"4","Q05":"3"},"rt":49285.09999999404,"item_order":[7,3,2,0,1,8,5,6,4],"radio_events":[4254.5999999940395,16000.79999999702,16957.09999999404,18268.29999999702,20898,23975.90000000596,29607.70000000298,35738.5,36786.29999999702],"key_events":[],"mouse_events":[1084.5999999940395,4254.5999999940395,7315.5999999940395,8605.90000000596,9805.90000000596,11561.20000000298,13589.59999999404,14736.90000000596,16000.79999999702,16957.09999999404,18268.29999999702,20898,23975.90000000596,29607.70000000298,32689.09999999404,33674.20000000298,35738.5,36786.29999999702,49284.5],"straightlining":0.5555555555555556,"zigzagging":0.375,"honeypot":0,"survey":"pcf","trial_type":"survey-template","trial_index":4,"time_elapsed":177277,"internal_node_id":"0.0-4.0","experiment":"validation","task_version":"2.0","jspsych_version":"6.3.1","infrequency":0},{"value":0,"trial_type":"call-function","trial_index":5,"time_elapsed":177279,"internal_node_id":"0.0-5.0","experiment":"validation","task_version":"2.0","jspsych_version":"6.3.1","interactions":"[]"}]