[{"view_history":[{"page_index":0,"viewing_time":4108.300000011921}],"rt":4110.199999988079,"trial_type":"instructions","trial_index":0,"time_elapsed":4137,"internal_node_id":"0.0-0.0","experiment":"validation","task_version":"2.0","jspsych_version":"6.3.1"},{"rt":12061.399999976158,"responses":{"age":"50","gender-categorical":"Female","gender-free-response":"","ethnicity":"Not Hispanic or Latino","race":["Black or African American"],"education":"Associate degree"},"survey":"demographics","trial_type":"survey-demo","trial_index":1,"time_elapsed":16205,"internal_node_id":"0.0-1.0","experiment":"validation","task_version":"2.0","jspsych_version":"6.3.1"},{"rt":24029.599999964237,"response":{"Q7":5,"Q5":3,"Q2":5,"Q3":5,"Q1":5,"Q0":5,"Q4":5,"Q8":0,"Q6":2},"question_order":[7,5,2,3,1,0,4,8,6],"survey":"sns","trial_type":"survey-likert","trial_index":2,"time_elapsed":40247,"internal_node_id":"0.0-2.0","experiment":"validation","task_version":"2.0","jspsych_version":"6.3.1","infrequency":0},{"responses":{"Q10":"2","Q03":"3","Q11":"0","Q06":"2","Q08":"2","Q07":"2","Q01":"2","Q02":"2","Q04":"2","Q09":"1","Q05":"2"},"rt":191059.89999997616,"item_order":[9,2,10,5,7,6,0,1,3,8,4],"radio_events":[115158.19999998808,117945.19999998808,126913,145848.19999998808,152465.19999998808,159939,163795,167382.30000001192,171956.5,176980.89999997616,190196.39999997616],"key_events":[],"mouse_events":[13825,114177.10000002384,114848.89999997616,115158.19999998808,117945.19999998808,125740.5,126913,144088.60000002384,145451.80000001192,145848.19999998808,150235.60000002384,152465.19999998808,159939,163355.10000002384,163795,167382.30000001192,171956.5,176498.60000002384,176980.89999997616,187548.5,189919.5,190196.39999997616,191056.89999997616],"straightlining":0.7272727272727273,"zigzagging":0.4,"honeypot":0,"survey":"nfc10","trial_type":"survey-template","trial_index":3,"time_elapsed":231320,"internal_node_id":"0.0-3.0","experiment":"validation","task_version":"2.0","jspsych_version":"6.3.1","infrequency":0},{"responses":{"Q03":"4","Q07":"4","Q08":"4","Q09":"4","Q06":"3","Q04":"4","Q05":"4","Q01":"4","Q02":"4"},"rt":82904.30000001192,"item_order":[2,6,7,8,5,3,4,0,1],"radio_events":[15032.400000035763,16597,18239.900000035763,19746.200000047684,20990.200000047684,29927.200000047684,32419,63869.30000001192,64952.30000001192,69488.20000004768,71562.10000002384,81205.10000002384],"key_events":[],"mouse_events":[14272.400000035763,15032.400000035763,16012.900000035763,16597,18239.900000035763,19746.200000047684,20990.200000047684,28655.400000035763,29317.900000035763,29927.200000047684,32419,52050.200000047684,63045.40000003576,63869.30000001192,64952.30000001192,66734.80000001192,67738.30000001192,68380.40000003576,69488.20000004768,71562.10000002384,80838.60000002384,81205.10000002384,82902.30000001192],"straightlining":0.7777777777777778,"zigzagging":0.25,"honeypot":0,"survey":"pcf","trial_type":"survey-template","trial_index":4,"time_elapsed":314231,"internal_node_id":"0.0-4.0","experiment":"validation","task_version":"2.0","jspsych_version":"6.3.1","infrequency":0},{"value":0,"trial_type":"call-function","trial_index":5,"time_elapsed":314234,"internal_node_id":"0.0-5.0","experiment":"validation","task_version":"2.0","jspsych_version":"6.3.1","interactions":"[{\"event\":\"blur\",\"trial\":3,\"time\":46912},{\"event\":\"focus\",\"trial\":3,\"time\":48406},{\"event\":\"blur\",\"trial\":4,\"time\":279578},{\"event\":\"focus\",\"trial\":4,\"time\":281837},{\"event\":\"blur\",\"trial\":4,\"time\":281950},{\"event\":\"focus\",\"trial\":4,\"time\":283329}]"}]