[{"view_history":[{"page_index":0,"viewing_time":1800.3999999910593}],"rt":1801.0999999940395,"trial_type":"instructions","trial_index":0,"time_elapsed":1806,"internal_node_id":"0.0-0.0","experiment":"validation","task_version":"2.0","jspsych_version":"6.3.1"},{"rt":13396.59999999404,"responses":{"age":"46","gender-categorical":"Male","gender-free-response":"","ethnicity":"Not Hispanic or Latino","race":["Black or African American"],"education":"Bachelor degree"},"survey":"demographics","trial_type":"survey-demo","trial_index":1,"time_elapsed":15207,"internal_node_id":"0.0-1.0","experiment":"validation","task_version":"2.0","jspsych_version":"6.3.1"},{"responses":{"Q09":"3","Q08":"3","Q11":"0","Q06":"1","Q07":"3","Q02":"3","Q03":"3","Q04":"3","Q01":"3","Q10":"3","Q05":"3"},"rt":358975.89999999106,"item_order":[8,7,10,5,6,1,2,3,0,9,4],"radio_events":[27969.79999999702,32075.09999999404,33142.39999999106,39038.69999998808,43730,257382.79999999702,260296.5,265438.1999999881,338170.5,346720.299999997,357993.299999997],"key_events":[],"mouse_events":[24977,27969.79999999702,28608.89999999106,32075.09999999404,33142.39999999106,39038.69999998808,43730,257382.79999999702,260296.5,264728.799999997,265438.1999999881,336022.1999999881,337271.09999999404,338170.5,346720.299999997,357993.299999997,358973],"straightlining":0.5454545454545454,"zigzagging":0.1,"honeypot":0,"survey":"nfc10","trial_type":"survey-template","trial_index":2,"time_elapsed":374181,"internal_node_id":"0.0-2.0","experiment":"validation","task_version":"2.0","jspsych_version":"6.3.1","infrequency":0},{"rt":132428.29999999702,"response":{"Q3":5,"Q5":5,"Q6":1,"Q2":5,"Q1":4,"Q8":0,"Q7":5,"Q0":4,"Q4":4},"question_order":[3,5,6,2,1,8,7,0,4],"survey":"sns","trial_type":"survey-likert","trial_index":3,"time_elapsed":506614,"internal_node_id":"0.0-3.0","experiment":"validation","task_version":"2.0","jspsych_version":"6.3.1","infrequency":0},{"responses":{"Q03":"2","Q01":"3","Q08":"4","Q04":"2","Q02":"3","Q07":"3","Q09":"0","Q05":"3","Q06":"3"},"rt":152061,"item_order":[2,0,7,3,1,6,8,4,5],"radio_events":[6906.4000000059605,8719.40000000596,16662.59999999404,18519.29999999702,131539.5,136409.40000000596,137084.79999999702,145006.09999999404,149572.40000000596,150506.29999999702],"key_events":[],"mouse_events":[6906.4000000059605,8719.40000000596,11655.59999999404,15334.40000000596,16054.5,16662.59999999404,17776.29999999702,18519.29999999702,124967.29999999702,131539.5,133270.09999999404,135464.79999999702,136409.40000000596,137084.79999999702,143969.79999999702,145006.09999999404,146039,148514,149572.40000000596,150506.29999999702,152059.20000000298],"straightlining":0.5555555555555556,"zigzagging":0.625,"honeypot":0,"survey":"pcf","trial_type":"survey-template","trial_index":4,"time_elapsed":658678,"internal_node_id":"0.0-4.0","experiment":"validation","task_version":"2.0","jspsych_version":"6.3.1","infrequency":1},{"value":1,"trial_type":"call-function","trial_index":5,"time_elapsed":658685,"internal_node_id":"0.0-5.0","experiment":"validation","task_version":"2.0","jspsych_version":"6.3.1","interactions":"[]"}]