[{"view_history":[{"page_index":0,"viewing_time":6822.399999999441}],"rt":6824,"trial_type":"instructions","trial_index":0,"time_elapsed":6837,"internal_node_id":"0.0-0.0","experiment":"validation","task_version":"2.0","jspsych_version":"6.3.1"},{"rt":15581.700000000186,"responses":{"age":"41","gender-categorical":"Male","gender-free-response":"","ethnicity":"Not Hispanic or Latino","race":["White"],"education":"High school"},"survey":"demographics","trial_type":"survey-demo","trial_index":1,"time_elapsed":22429,"internal_node_id":"0.0-1.0","experiment":"validation","task_version":"2.0","jspsych_version":"6.3.1"},{"responses":{"Q07":"4","Q06":"2","Q03":"4","Q10":"2","Q04":"1","Q02":"2","Q01":"0","Q11":"0","Q09":"0","Q05":"1","Q08":"3"},"rt":103639.79999999981,"item_order":[6,5,2,9,3,1,0,10,8,4,7],"radio_events":[9250,13462,18174.099999999627,24724.299999999814,30440.099999999627,36857.09999999963,46583.09999999963,51646.799999999814,59867.699999999255,69578.29999999981,84566.89999999944],"key_events":[],"mouse_events":[8464.899999999441,9250,13462,17455.299999999814,18174.099999999627,24724.299999999814,30440.099999999627,36857.09999999963,46583.09999999963,51646.799999999814,59867.699999999255,69578.29999999981,84566.89999999944,103636.19999999925],"straightlining":0.36363636363636365,"zigzagging":0.2,"honeypot":0,"survey":"nfc10","trial_type":"survey-template","trial_index":2,"time_elapsed":126079,"internal_node_id":"0.0-2.0","experiment":"validation","task_version":"2.0","jspsych_version":"6.3.1","infrequency":0},{"responses":{"Q01":"4","Q05":"4","Q03":"4","Q07":"4","Q02":"4","Q08":"4","Q09":"4","Q06":"4","Q04":"4"},"rt":61691.299999999814,"item_order":[0,4,2,6,1,7,8,5,3],"radio_events":[2949.2000000001863,5305.5,12173.900000000373,14664.299999999814,17355.099999999627,20529.900000000373,24991.5,31943.299999999814,37543.09999999963,46181.40000000037,47034.40000000037,48019.59999999963,48638,56141.5],"key_events":[],"mouse_events":[2949.2000000001863,5305.5,12173.900000000373,14664.299999999814,17355.099999999627,20529.900000000373,24991.5,31943.299999999814,37543.09999999963,45664.09999999963,46181.40000000037,47034.40000000037,48019.59999999963,48638,55189.09999999963,56141.5,56877.200000000186,57611.90000000037,61689.5],"straightlining":0.8888888888888888,"zigzagging":0.25,"honeypot":0,"survey":"pcf","trial_type":"survey-template","trial_index":3,"time_elapsed":187776,"internal_node_id":"0.0-3.0","experiment":"validation","task_version":"2.0","jspsych_version":"6.3.1","infrequency":0},{"rt":78016.90000000037,"response":{"Q2":0,"Q1":1,"Q6":1,"Q7":3,"Q4":5,"Q0":2,"Q8":0,"Q5":3,"Q3":2},"question_order":[2,1,6,7,4,0,8,5,3],"survey":"sns","trial_type":"survey-likert","trial_index":4,"time_elapsed":265805,"internal_node_id":"0.0-4.0","experiment":"validation","task_version":"2.0","jspsych_version":"6.3.1","infrequency":0},{"value":0,"trial_type":"call-function","trial_index":5,"time_elapsed":265809,"internal_node_id":"0.0-5.0","experiment":"validation","task_version":"2.0","jspsych_version":"6.3.1","interactions":"[]"}]