[{"view_history":[{"page_index":0,"viewing_time":1958.699999999255}],"rt":1958.8999999985099,"trial_type":"instructions","trial_index":0,"time_elapsed":1967,"internal_node_id":"0.0-0.0","experiment":"validation","task_version":"2.0","jspsych_version":"6.3.1"},{"rt":11433.400000000373,"responses":{"age":"44","gender-categorical":"Male","gender-free-response":"","ethnicity":"Not Hispanic or Latino","race":["White"],"education":"High school"},"survey":"demographics","trial_type":"survey-demo","trial_index":1,"time_elapsed":13404,"internal_node_id":"0.0-1.0","experiment":"validation","task_version":"2.0","jspsych_version":"6.3.1"},{"responses":{"Q07":"3","Q03":"3","Q05":"2","Q01":"3","Q09":"4","Q06":"3","Q08":"3","Q02":"3","Q04":"3"},"rt":38031.40000000037,"item_order":[6,2,4,0,8,5,7,1,3],"radio_events":[6733.5,9352.700000001118,11069.200000001118,19269.10000000149,24512.300000000745,25997.300000000745,28865.300000000745,31417.200000001118,36237.10000000149],"key_events":[],"mouse_events":[2525.2000000011176,6733.5,9352.700000001118,11069.200000001118,12289.200000001118,19269.10000000149,24512.300000000745,25997.300000000745,28865.300000000745,30745.200000001118,31417.200000001118,32921.300000000745,36237.10000000149,38029.20000000112],"straightlining":0.7777777777777778,"zigzagging":0.25,"honeypot":0,"survey":"pcf","trial_type":"survey-template","trial_index":2,"time_elapsed":51442,"internal_node_id":"0.0-2.0","experiment":"validation","task_version":"2.0","jspsych_version":"6.3.1","infrequency":0},{"responses":{"Q03":"3","Q11":"0","Q04":"2","Q02":"3","Q01":"1","Q05":"3","Q09":"1","Q06":"1","Q07":"3","Q08":"3","Q10":"1"},"rt":56303.5,"item_order":[2,10,3,1,0,4,8,5,6,7,9],"radio_events":[10945.800000000745,12885.300000000745,23125.700000001118,26557.60000000149,32102.10000000149,35557.5,38257.5,41557.60000000149,46544.60000000149,50033.60000000149,55057.5],"key_events":[],"mouse_events":[7881.300000000745,10945.800000000745,12885.300000000745,23125.700000001118,26557.60000000149,31377.5,32102.10000000149,34941.60000000149,35557.5,38257.5,41557.60000000149,45889.60000000149,46544.60000000149,49281.5,50033.60000000149,53969.40000000037,55057.5,56301.60000000149],"straightlining":0.5454545454545454,"zigzagging":0.2,"honeypot":0,"survey":"nfc10","trial_type":"survey-template","trial_index":3,"time_elapsed":107750,"internal_node_id":"0.0-3.0","experiment":"validation","task_version":"2.0","jspsych_version":"6.3.1","infrequency":0},{"rt":35131.70000000112,"response":{"Q1":3,"Q3":3,"Q8":0,"Q7":4,"Q5":3,"Q0":4,"Q4":4,"Q2":4,"Q6":1},"question_order":[1,3,8,7,5,0,4,2,6],"survey":"sns","trial_type":"survey-likert","trial_index":4,"time_elapsed":142886,"internal_node_id":"0.0-4.0","experiment":"validation","task_version":"2.0","jspsych_version":"6.3.1","infrequency":0},{"value":0,"trial_type":"call-function","trial_index":5,"time_elapsed":142889,"internal_node_id":"0.0-5.0","experiment":"validation","task_version":"2.0","jspsych_version":"6.3.1","interactions":"[]"}]