[{"view_history":[{"page_index":0,"viewing_time":3927.399999976158}],"rt":3928.5,"trial_type":"instructions","trial_index":0,"time_elapsed":3940,"internal_node_id":"0.0-0.0","experiment":"validation","task_version":"2.0","jspsych_version":"6.3.1"},{"rt":11265.400000095367,"responses":{"age":"49","gender-categorical":"Female","gender-free-response":"","ethnicity":"Not Hispanic or Latino","race":["White"],"education":"Less than high school"},"survey":"demographics","trial_type":"survey-demo","trial_index":1,"time_elapsed":15209,"internal_node_id":"0.0-1.0","experiment":"validation","task_version":"2.0","jspsych_version":"6.3.1"},{"rt":73360,"response":{"Q4":2,"Q5":3,"Q2":5,"Q6":1,"Q7":5,"Q3":5,"Q8":0,"Q0":1,"Q1":4},"question_order":[4,5,2,6,7,3,8,0,1],"survey":"sns","trial_type":"survey-likert","trial_index":2,"time_elapsed":88579,"internal_node_id":"0.0-2.0","experiment":"validation","task_version":"2.0","jspsych_version":"6.3.1","infrequency":0},{"responses":{"Q09":"1","Q03":"1","Q06":"1","Q02":"1","Q08":"1","Q07":"1","Q05":"0","Q01":"1","Q10":"1","Q11":"0","Q04":"0"},"rt":43769.89999997616,"item_order":[8,2,5,1,7,6,4,0,9,10,3],"radio_events":[6526.200000047684,10273.899999976158,13385.299999952316,15811.799999952316,21995.5,22758.600000023842,29138.399999976158,31417.899999976158,32973.5,37376.200000047684,42855.799999952316],"key_events":[],"mouse_events":[6526.200000047684,10273.899999976158,13385.299999952316,15811.799999952316,18160.200000047684,21995.5,22758.600000023842,24823.299999952316,29138.399999976158,31417.899999976158,32973.5,37376.200000047684,42855.799999952316,43766.299999952316],"straightlining":0.6363636363636364,"zigzagging":0.2,"honeypot":0,"survey":"nfc10","trial_type":"survey-template","trial_index":3,"time_elapsed":132356,"internal_node_id":"0.0-3.0","experiment":"validation","task_version":"2.0","jspsych_version":"6.3.1","infrequency":0},{"responses":{"Q06":"4","Q05":"4","Q07":"4","Q01":"4","Q09":"4","Q02":"4","Q08":"4","Q04":"4","Q03":"4"},"rt":40881.200000047684,"item_order":[5,4,6,0,8,1,7,3,2],"radio_events":[10605.800000071526,12974.200000047684,14540,15841,19040.399999976158,21790.200000047684,25146.300000071526,31858.399999976158,35282,38530.10000002384],"key_events":[],"mouse_events":[10605.800000071526,12974.200000047684,14540,15841,19040.399999976158,21790.200000047684,25146.300000071526,31056.399999976158,31858.399999976158,34392.300000071526,35282,36905.89999997616,37786.5,38530.10000002384,40878.200000047684],"straightlining":0.8888888888888888,"zigzagging":0.25,"honeypot":0,"survey":"pcf","trial_type":"survey-template","trial_index":4,"time_elapsed":173243,"internal_node_id":"0.0-4.0","experiment":"validation","task_version":"2.0","jspsych_version":"6.3.1","infrequency":0},{"value":0,"trial_type":"call-function","trial_index":5,"time_elapsed":173246,"internal_node_id":"0.0-5.0","experiment":"validation","task_version":"2.0","jspsych_version":"6.3.1","interactions":"[{\"event\":\"blur\",\"trial\":2,\"time\":18232},{\"event\":\"focus\",\"trial\":2,\"time\":35548}]"}]