[{"view_history":[{"page_index":0,"viewing_time":2187.899999976158}],"rt":2188.199999988079,"trial_type":"instructions","trial_index":0,"time_elapsed":2197,"internal_node_id":"0.0-0.0","experiment":"validation","task_version":"2.0","jspsych_version":"6.3.1"},{"rt":40210.700000047684,"responses":{"age":"49","gender-categorical":"Male","gender-free-response":"","ethnicity":"Not Hispanic or Latino","race":["Asian"],"education":"Bachelor degree"},"survey":"demographics","trial_type":"survey-demo","trial_index":1,"time_elapsed":42411,"internal_node_id":"0.0-1.0","experiment":"validation","task_version":"2.0","jspsych_version":"6.3.1"},{"responses":{"Q07":"3","Q03":"3","Q06":"3","Q02":"3","Q09":"4","Q01":"3","Q05":"3","Q08":"3","Q04":"3"},"rt":27122.900000035763,"item_order":[6,2,5,1,8,0,4,7,3],"radio_events":[4828.400000035763,6823.300000011921,9075.400000035763,10418.400000035763,12955.400000035763,20463.600000023842,21587.80000001192,23367.69999998808,24363.80000001192],"key_events":[],"mouse_events":[3652.199999988079,4828.400000035763,6184.300000011921,6823.300000011921,8078.300000011921,9075.400000035763,10418.400000035763,12955.400000035763,20463.600000023842,21587.80000001192,23367.69999998808,24363.80000001192,27121.900000035763],"straightlining":0.8888888888888888,"zigzagging":0,"honeypot":0,"survey":"pcf","trial_type":"survey-template","trial_index":2,"time_elapsed":69537,"internal_node_id":"0.0-2.0","experiment":"validation","task_version":"2.0","jspsych_version":"6.3.1","infrequency":0},{"responses":{"Q03":"2","Q02":"1","Q08":"2","Q10":"2","Q01":"1","Q05":"1","Q07":"2","Q09":"1","Q04":"1","Q11":"0","Q06":"1"},"rt":44858.69999998808,"item_order":[2,1,7,9,0,4,6,8,3,10,5],"radio_events":[8178.599999964237,11527.699999988079,15869.800000011921,19364.899999976158,22967,26669.19999998808,30823.19999998808,32923.5,35647.5,38705.39999997616,43676.59999996424],"key_events":[],"mouse_events":[8178.599999964237,11527.699999988079,15167.800000011921,15869.800000011921,19364.899999976158,21308,22134.899999976158,22967,26236.19999998808,26669.19999998808,30823.19999998808,32923.5,35647.5,38705.39999997616,43676.59999996424,44857.69999998808],"straightlining":0.36363636363636365,"zigzagging":0.6,"honeypot":0,"survey":"nfc10","trial_type":"survey-template","trial_index":3,"time_elapsed":114399,"internal_node_id":"0.0-3.0","experiment":"validation","task_version":"2.0","jspsych_version":"6.3.1","infrequency":0},{"rt":37193.19999998808,"response":{"Q4":4,"Q6":0,"Q5":4,"Q2":5,"Q0":4,"Q8":0,"Q3":4,"Q1":4,"Q7":4},"question_order":[4,6,5,2,0,8,3,1,7],"survey":"sns","trial_type":"survey-likert","trial_index":4,"time_elapsed":151595,"internal_node_id":"0.0-4.0","experiment":"validation","task_version":"2.0","jspsych_version":"6.3.1","infrequency":0},{"value":0,"trial_type":"call-function","trial_index":5,"time_elapsed":151597,"internal_node_id":"0.0-5.0","experiment":"validation","task_version":"2.0","jspsych_version":"6.3.1","interactions":"[{\"event\":\"blur\",\"trial\":1,\"time\":38897},{\"event\":\"focus\",\"trial\":1,\"time\":39070}]"}]