[{"view_history":[{"page_index":0,"viewing_time":1690.1000003814697}],"rt":1691,"trial_type":"instructions","trial_index":0,"time_elapsed":1700,"internal_node_id":"0.0-0.0","experiment":"validation","task_version":"2.0","jspsych_version":"6.3.1"},{"rt":10277.799999713898,"responses":{"age":"24","gender-categorical":"Male","gender-free-response":"","ethnicity":"Not Hispanic or Latino","race":["White"],"education":"High school"},"survey":"demographics","trial_type":"survey-demo","trial_index":1,"time_elapsed":11980,"internal_node_id":"0.0-1.0","experiment":"validation","task_version":"2.0","jspsych_version":"6.3.1"},{"responses":{"Q03":"3","Q02":"3","Q05":"3","Q06":"2","Q07":"4","Q04":"3","Q01":"4","Q09":"4","Q08":"2"},"rt":30192.300000190735,"item_order":[2,1,4,5,6,3,0,8,7],"radio_events":[7812.599999904633,11484.099999904633,12904.800000190735,14698.900000095367,16142.5,17615.5,18810.300000190735,21001.5,22760.400000095367,24367.800000190735,25999.099999904633,29607.800000190735],"key_events":[],"mouse_events":[7510,7812.599999904633,10169.700000286102,11484.099999904633,12904.800000190735,14698.900000095367,16142.5,17615.5,18810.300000190735,21001.5,22760.400000095367,24367.800000190735,25340,25680.200000286102,25999.099999904633,29607.800000190735,30191.5],"straightlining":0.4444444444444444,"zigzagging":0.5,"honeypot":0,"survey":"pcf","trial_type":"survey-template","trial_index":2,"time_elapsed":42176,"internal_node_id":"0.0-2.0","experiment":"validation","task_version":"2.0","jspsych_version":"6.3.1","infrequency":0},{"responses":{"Q04":"1","Q11":"0","Q01":"3","Q03":"4","Q09":"2","Q06":"3","Q02":"4","Q07":"4","Q08":"3","Q05":"4","Q10":"4"},"rt":57890.09999990463,"item_order":[3,10,0,2,8,5,1,6,7,4,9],"radio_events":[7160.89999961853,10415.39999961853,13051,13863.199999809265,14921,16939.299999713898,19543.599999904633,21883.699999809265,25594.599999904633,26793.599999904633,29436.89999961853,37194.59999990463,41550.699999809265,52024.699999809265,55938.699999809265],"key_events":[],"mouse_events":[7160.89999961853,10415.39999961853,13051,13863.199999809265,14921,16939.299999713898,19543.599999904633,21883.699999809265,25594.599999904633,26365.39999961853,26793.599999904633,29436.89999961853,36657.59999990463,37194.59999990463,41550.699999809265,51745.7999997139,52024.699999809265,55938.699999809265,57889.39999961853],"straightlining":0.36363636363636365,"zigzagging":0.4,"honeypot":0,"survey":"nfc10","trial_type":"survey-template","trial_index":3,"time_elapsed":100069,"internal_node_id":"0.0-3.0","experiment":"validation","task_version":"2.0","jspsych_version":"6.3.1","infrequency":0},{"rt":38695.10000038147,"response":{"Q8":0,"Q1":4,"Q2":4,"Q7":3,"Q4":2,"Q3":4,"Q5":4,"Q0":4,"Q6":2},"question_order":[8,1,2,7,4,3,5,0,6],"survey":"sns","trial_type":"survey-likert","trial_index":4,"time_elapsed":138770,"internal_node_id":"0.0-4.0","experiment":"validation","task_version":"2.0","jspsych_version":"6.3.1","infrequency":0},{"value":0,"trial_type":"call-function","trial_index":5,"time_elapsed":138773,"internal_node_id":"0.0-5.0","experiment":"validation","task_version":"2.0","jspsych_version":"6.3.1","interactions":"[]"}]