[{"view_history":[{"page_index":0,"viewing_time":1959.7000000011176}],"rt":1959.9000000003725,"trial_type":"instructions","trial_index":0,"time_elapsed":1964,"internal_node_id":"0.0-0.0","experiment":"validation","task_version":"2.0","jspsych_version":"6.3.1"},{"rt":18216.89999999851,"responses":{"age":"53","gender-categorical":"Male","gender-free-response":"","ethnicity":"Hispanic or Latino","race":["White"],"education":"High school"},"survey":"demographics","trial_type":"survey-demo","trial_index":1,"time_elapsed":20183,"internal_node_id":"0.0-1.0","experiment":"validation","task_version":"2.0","jspsych_version":"6.3.1"},{"responses":{"Q05":"3","Q07":"2","Q06":"3","Q08":"3","Q11":"0","Q10":"2","Q09":"2","Q01":"2","Q02":"3","Q04":"2","Q03":"3"},"rt":51710.09999999963,"item_order":[4,6,5,7,10,9,8,0,1,3,2],"radio_events":[9238.199999999255,11870.199999999255,13828.099999999627,17079.199999999255,20823.199999999255,26371.199999999255,28986.300000000745,32841.199999999255,37407.199999999255,45496,50441.09999999963],"key_events":[8154.300000000745,9238.199999999255,11870.199999999255,13828.099999999627,16478.099999999627,17079.199999999255,19995.199999999255,20823.199999999255,25731.199999999255,26371.199999999255,28986.300000000745,32841.199999999255,35860.199999999255,37407.199999999255,45496,48334,49488.199999999255,50441.09999999963,51709.40000000037],"mouse_events":[],"straightlining":0.45454545454545453,"zigzagging":0.5,"honeypot":0,"survey":"nfc10","trial_type":"survey-template","trial_index":2,"time_elapsed":71895,"internal_node_id":"0.0-2.0","experiment":"validation","task_version":"2.0","jspsych_version":"6.3.1","infrequency":0},{"rt":39379.20000000112,"response":{"Q8":0,"Q4":4,"Q7":3,"Q2":3,"Q5":4,"Q1":3,"Q0":1,"Q6":1,"Q3":4},"question_order":[8,4,7,2,5,1,0,6,3],"survey":"sns","trial_type":"survey-likert","trial_index":3,"time_elapsed":111276,"internal_node_id":"0.0-3.0","experiment":"validation","task_version":"2.0","jspsych_version":"6.3.1","infrequency":0},{"responses":{"Q06":"3","Q08":"3","Q01":"4","Q07":"4","Q03":"4","Q04":"3","Q09":"4","Q05":"3","Q02":"3"},"rt":40822.199999999255,"item_order":[5,7,0,6,2,3,8,4,1],"radio_events":[7363.5,10216.5,15970.699999999255,16461.5,20091.5,26582.699999999255,31053.400000000373,33360.5,40046.59999999963],"key_events":[7363.5,10216.5,15345.699999999255,15970.699999999255,16461.5,19313.5,20091.5,22676.599999999627,26582.699999999255,30299.400000000373,31053.400000000373,32865.5,33360.5,34148.59999999963,38753.59999999963,40046.59999999963,40821.59999999963],"mouse_events":[],"straightlining":0.5555555555555556,"zigzagging":0.25,"honeypot":0,"survey":"pcf","trial_type":"survey-template","trial_index":4,"time_elapsed":152100,"internal_node_id":"0.0-4.0","experiment":"validation","task_version":"2.0","jspsych_version":"6.3.1","infrequency":0},{"value":0,"trial_type":"call-function","trial_index":5,"time_elapsed":152101,"internal_node_id":"0.0-5.0","experiment":"validation","task_version":"2.0","jspsych_version":"6.3.1","interactions":"[]"}]