[{"view_history":[{"page_index":0,"viewing_time":2336}],"rt":2336.2000000178814,"trial_type":"instructions","trial_index":0,"time_elapsed":2342,"internal_node_id":"0.0-0.0","experiment":"validation","task_version":"2.0","jspsych_version":"6.3.1"},{"rt":11230.399999976158,"responses":{"age":"34","gender-categorical":"Female","gender-free-response":"","ethnicity":"Not Hispanic or Latino","race":["Asian"],"education":"Associate degree"},"survey":"demographics","trial_type":"survey-demo","trial_index":1,"time_elapsed":13575,"internal_node_id":"0.0-1.0","experiment":"validation","task_version":"2.0","jspsych_version":"6.3.1"},{"responses":{"Q03":"3","Q10":"3","Q09":"4","Q01":"3","Q11":"0","Q05":"1","Q04":"3","Q02":"3","Q06":"3","Q08":"3","Q07":"3"},"rt":32390.59999999404,"item_order":[2,9,8,0,10,4,3,1,5,7,6],"radio_events":[4436.799999982119,8195.799999982119,11818.59999999404,13482.5,15678.299999982119,22176.79999998212,22566.59999999404,22802.59999999404,25447.09999999404,27494.40000000596,28168.5,31580.69999998808],"key_events":[],"mouse_events":[4436.799999982119,7220.699999988079,7590.5999999940395,8195.799999982119,11264,11818.59999999404,12926.699999988079,13482.5,15678.299999982119,18809.79999998212,20663.69999998808,21734.29999998212,22176.79999998212,22566.59999999404,22802.59999999404,24630.5,25076.5,25447.09999999404,26497.90000000596,27494.40000000596,28168.5,30418.5,30784.29999998212,31242.59999999404,31580.69999998808,32388.69999998808],"straightlining":0.6363636363636364,"zigzagging":0.2,"honeypot":0,"survey":"nfc10","trial_type":"survey-template","trial_index":2,"time_elapsed":45968,"internal_node_id":"0.0-2.0","experiment":"validation","task_version":"2.0","jspsych_version":"6.3.1","infrequency":0},{"rt":26359.69999998808,"response":{"Q4":4,"Q3":5,"Q8":0,"Q2":5,"Q0":4,"Q6":1,"Q7":4,"Q1":4,"Q5":4},"question_order":[4,3,8,2,0,6,7,1,5],"survey":"sns","trial_type":"survey-likert","trial_index":3,"time_elapsed":72332,"internal_node_id":"0.0-3.0","experiment":"validation","task_version":"2.0","jspsych_version":"6.3.1","infrequency":0},{"responses":{"Q07":"4","Q04":"4","Q09":"4","Q01":"3","Q05":"3","Q06":"3","Q02":"4","Q03":"4","Q08":"4"},"rt":67531.59999999404,"item_order":[6,3,8,0,4,5,1,2,7],"radio_events":[53174.90000000596,55594.09999999404,58094.59999999404,59404.80000001192,60548.59999999404,60920,63184.80000001192,64354.30000001192,65036.59999999404,65821],"key_events":[],"mouse_events":[52337.09999999404,53174.90000000596,55594.09999999404,58094.59999999404,59404.80000001192,60548.59999999404,60920,62906.80000001192,63184.80000001192,64009,64354.30000001192,65036.59999999404,65821,67530.80000001192],"straightlining":0.5555555555555556,"zigzagging":0.25,"honeypot":0,"survey":"pcf","trial_type":"survey-template","trial_index":4,"time_elapsed":139866,"internal_node_id":"0.0-4.0","experiment":"validation","task_version":"2.0","jspsych_version":"6.3.1","infrequency":0},{"value":0,"trial_type":"call-function","trial_index":5,"time_elapsed":139867,"internal_node_id":"0.0-5.0","experiment":"validation","task_version":"2.0","jspsych_version":"6.3.1","interactions":"[{\"event\":\"blur\",\"trial\":4,\"time\":75136},{\"event\":\"focus\",\"trial\":4,\"time\":78731},{\"event\":\"blur\",\"trial\":4,\"time\":79971},{\"event\":\"focus\",\"trial\":4,\"time\":80138},{\"event\":\"blur\",\"trial\":4,\"time\":80608},{\"event\":\"focus\",\"trial\":4,\"time\":121783}]"}]