[{"view_history":[{"page_index":0,"viewing_time":1977.3999999761581}],"rt":1977.6000000238419,"trial_type":"instructions","trial_index":0,"time_elapsed":1984,"internal_node_id":"0.0-0.0","experiment":"validation","task_version":"2.0","jspsych_version":"6.3.1"},{"rt":9174.399999976158,"responses":{"age":"60","gender-categorical":"Male","gender-free-response":"","ethnicity":"Not Hispanic or Latino","race":["White"],"education":"Master degree or higher"},"survey":"demographics","trial_type":"survey-demo","trial_index":1,"time_elapsed":11160,"internal_node_id":"0.0-1.0","experiment":"validation","task_version":"2.0","jspsych_version":"6.3.1"},{"responses":{"Q05":"4","Q02":"4","Q04":"4","Q01":"4","Q08":"4","Q06":"4","Q07":"4","Q09":"4","Q03":"4"},"rt":21831.30000001192,"item_order":[4,1,3,0,7,5,6,8,2],"radio_events":[4434.399999976158,5119.800000011921,6112.5,6894.399999976158,7690.399999976158,9194.399999976158,11772.399999976158,13948.199999988079,20280.399999976158],"key_events":[],"mouse_events":[2148.399999976158,3260.300000011921,4434.399999976158,5119.800000011921,6112.5,6894.399999976158,7690.399999976158,8398.399999976158,9194.399999976158,9786.800000011921,11772.399999976158,13948.199999988079,15746.699999988079,17794,20280.399999976158,21830.399999976158],"straightlining":0.8888888888888888,"zigzagging":0.25,"honeypot":0,"survey":"pcf","trial_type":"survey-template","trial_index":2,"time_elapsed":32994,"internal_node_id":"0.0-2.0","experiment":"validation","task_version":"2.0","jspsych_version":"6.3.1","infrequency":0},{"rt":18767.700000047684,"response":{"Q0":4,"Q6":1,"Q8":0,"Q5":4,"Q3":4,"Q1":4,"Q4":4,"Q7":4,"Q2":4},"question_order":[0,6,8,5,3,1,4,7,2],"survey":"sns","trial_type":"survey-likert","trial_index":3,"time_elapsed":51776,"internal_node_id":"0.0-3.0","experiment":"validation","task_version":"2.0","jspsych_version":"6.3.1","infrequency":0},{"responses":{"Q07":"3","Q11":"0","Q02":"3","Q05":"1","Q01":"3","Q06":"3","Q09":"3","Q08":"3","Q03":"3","Q04":"3","Q10":"3"},"rt":29417,"item_order":[6,10,1,4,0,5,8,7,2,3,9],"radio_events":[3103.5,5222.899999976158,6712.699999988079,7722.899999976158,8827.300000011921,9464.800000011921,11404.800000011921,13192.800000011921,15976.800000011921,23827.899999976158,27871.19999998808],"key_events":[],"mouse_events":[3103.5,5222.899999976158,6712.699999988079,7722.899999976158,8827.300000011921,9464.800000011921,11404.800000011921,12051.100000023842,13192.800000011921,14864.899999976158,15976.800000011921,16638.600000023842,19523.399999976158,20965.19999998808,23827.899999976158,24971.30000001192,27871.19999998808,29415.100000023842],"straightlining":0.7272727272727273,"zigzagging":0,"honeypot":0,"survey":"nfc10","trial_type":"survey-template","trial_index":4,"time_elapsed":81196,"internal_node_id":"0.0-4.0","experiment":"validation","task_version":"2.0","jspsych_version":"6.3.1","infrequency":0},{"value":0,"trial_type":"call-function","trial_index":5,"time_elapsed":81198,"internal_node_id":"0.0-5.0","experiment":"validation","task_version":"2.0","jspsych_version":"6.3.1","interactions":"[]"}]