[{"view_history":[{"page_index":0,"viewing_time":1680.6000000238419}],"rt":1681,"trial_type":"instructions","trial_index":0,"time_elapsed":1694,"internal_node_id":"0.0-0.0","experiment":"validation","task_version":"2.0","jspsych_version":"6.3.1"},{"rt":11346.700000047684,"responses":{"age":"30","gender-categorical":"Female","gender-free-response":"","ethnicity":"Not Hispanic or Latino","race":["White"],"education":"Associate degree"},"survey":"demographics","trial_type":"survey-demo","trial_index":1,"time_elapsed":13044,"internal_node_id":"0.0-1.0","experiment":"validation","task_version":"2.0","jspsych_version":"6.3.1"},{"responses":{"Q05":"3","Q01":"1","Q11":"0","Q02":"0","Q09":"1","Q04":"1","Q03":"3","Q06":"0","Q10":"1","Q08":"1","Q07":"1"},"rt":74814.69999992847,"item_order":[4,0,10,1,8,3,2,5,9,7,6],"radio_events":[3896.899999976158,5937,10648.899999976158,14157,15345.299999952316,17892.799999952316,22725.299999952316,32653,36916.699999928474,61632.89999997616,62369.09999990463,67504.79999995232,70676.79999995232,72945.29999995232],"key_events":[],"mouse_events":[3896.899999976158,5937,10648.899999976158,14157,15345.299999952316,17892.799999952316,22725.299999952316,31341.699999928474,32653,36916.699999928474,59277.39999997616,60912.699999928474,61632.89999997616,62369.09999990463,67504.79999995232,69765.39999997616,70676.79999995232,72945.29999995232,74813.09999990463],"straightlining":0.6363636363636364,"zigzagging":0.4,"honeypot":0,"survey":"nfc10","trial_type":"survey-template","trial_index":2,"time_elapsed":87865,"internal_node_id":"0.0-2.0","experiment":"validation","task_version":"2.0","jspsych_version":"6.3.1","infrequency":0},{"responses":{"Q02":"1","Q05":"2","Q08":"2","Q07":"3","Q03":"2","Q01":"1","Q06":"2","Q04":"1","Q09":"4"},"rt":30984.600000023842,"item_order":[1,4,7,6,2,0,5,3,8],"radio_events":[5507,6146.600000023842,10274.800000071526,11530.900000095367,12122.700000047684,14327,18267.100000023842,19654.600000023842,24982.800000071526,27698.700000047684,29187],"key_events":[],"mouse_events":[5507,6146.600000023842,10274.800000071526,11530.900000095367,12122.700000047684,14327,18267.100000023842,19654.600000023842,24982.800000071526,27698.700000047684,29187,30983.300000071526],"straightlining":0.4444444444444444,"zigzagging":0.875,"honeypot":0,"survey":"pcf","trial_type":"survey-template","trial_index":3,"time_elapsed":118853,"internal_node_id":"0.0-3.0","experiment":"validation","task_version":"2.0","jspsych_version":"6.3.1","infrequency":0},{"rt":33268.300000071526,"response":{"Q1":1,"Q7":5,"Q0":0,"Q5":1,"Q4":4,"Q2":2,"Q3":3,"Q8":0,"Q6":0},"question_order":[1,7,0,5,4,2,3,8,6],"survey":"sns","trial_type":"survey-likert","trial_index":4,"time_elapsed":152125,"internal_node_id":"0.0-4.0","experiment":"validation","task_version":"2.0","jspsych_version":"6.3.1","infrequency":0},{"value":0,"trial_type":"call-function","trial_index":5,"time_elapsed":152127,"internal_node_id":"0.0-5.0","experiment":"validation","task_version":"2.0","jspsych_version":"6.3.1","interactions":"[]"}]