[{"view_history":[{"page_index":0,"viewing_time":4639.009999998962}],"rt":4640.004999999292,"trial_type":"instructions","trial_index":0,"time_elapsed":4648,"internal_node_id":"0.0-0.0","experiment":"validation","task_version":"2.0","jspsych_version":"6.3.1"},{"rt":16781.095000000278,"responses":{"age":"46","gender-categorical":"Female","gender-free-response":"","ethnicity":"Not Hispanic or Latino","race":["White"],"education":"Bachelor degree"},"survey":"demographics","trial_type":"survey-demo","trial_index":1,"time_elapsed":21466,"internal_node_id":"0.0-1.0","experiment":"validation","task_version":"2.0","jspsych_version":"6.3.1"},{"rt":56076.30999999856,"response":{"Q5":2,"Q7":3,"Q3":3,"Q2":3,"Q6":3,"Q1":2,"Q4":2,"Q8":0,"Q0":3},"question_order":[5,7,3,2,6,1,4,8,0],"survey":"sns","trial_type":"survey-likert","trial_index":2,"time_elapsed":77548,"internal_node_id":"0.0-2.0","experiment":"validation","task_version":"2.0","jspsych_version":"6.3.1","infrequency":0},{"responses":{"Q03":"1","Q02":"1","Q10":"3","Q06":"1","Q01":"1","Q08":"3","Q05":"1","Q04":"1","Q09":"1","Q11":"0","Q07":"1"},"rt":71341.22000000023,"item_order":[2,1,9,5,0,7,4,3,8,10,6],"radio_events":[9023.129999999583,9459.544999999707,10764.349999999467,15764.585000000807,20249.65499999962,21602.704999999332,28670.635000000402,31386.22000000032,34355.34499999994,41613.624999999956,43135.159999999814,47876.42000000051,52151.975000000675,57837.61000000048,69811.84000000029],"key_events":[],"mouse_events":[9023.129999999583,9459.544999999707,10764.349999999467,15764.585000000807,20249.65499999962,21602.704999999332,27393.73499999965,28670.635000000402,31386.22000000032,34355.34499999994,35265.14999999927,41613.624999999956,43135.159999999814,44798.5549999994,47876.42000000051,52151.975000000675,57837.61000000048,69811.84000000029,71339.22499999971],"straightlining":0.45454545454545453,"zigzagging":0.2,"honeypot":0,"survey":"nfc10","trial_type":"survey-template","trial_index":3,"time_elapsed":148895,"internal_node_id":"0.0-3.0","experiment":"validation","task_version":"2.0","jspsych_version":"6.3.1","infrequency":0},{"responses":{"Q04":"2","Q07":"2","Q01":"2","Q06":"2","Q08":"3","Q09":"4","Q02":"2","Q05":"2","Q03":"2"},"rt":66404.73000000019,"item_order":[3,6,0,5,7,8,1,4,2],"radio_events":[10674.179999999964,14257.470000000438,16429.400000000896,21288.970000001427,25419.49999999994,30063.930000000226,33563.695000000705,45703.91500000004,59214.86999999976,61479.7699999999,65582.14000000042],"key_events":[],"mouse_events":[9320.3400000002,10674.179999999964,14257.470000000438,16429.400000000896,21288.970000001427,25419.49999999994,26334.05000000127,30063.930000000226,33563.695000000705,36051.985000000044,45703.91500000004,59214.86999999976,61479.7699999999,65582.14000000042,66403.3850000014],"straightlining":0.7777777777777778,"zigzagging":0.125,"honeypot":0,"survey":"pcf","trial_type":"survey-template","trial_index":4,"time_elapsed":215303,"internal_node_id":"0.0-4.0","experiment":"validation","task_version":"2.0","jspsych_version":"6.3.1","infrequency":0},{"value":0,"trial_type":"call-function","trial_index":5,"time_elapsed":215305,"internal_node_id":"0.0-5.0","experiment":"validation","task_version":"2.0","jspsych_version":"6.3.1","interactions":"[]"}]