[{"view_history":[{"page_index":0,"viewing_time":2284.399999976158}],"rt":2285.3000000715256,"trial_type":"instructions","trial_index":0,"time_elapsed":2289,"internal_node_id":"0.0-0.0","experiment":"validation","task_version":"2.0","jspsych_version":"6.3.1"},{"rt":10199.5,"responses":{"age":"29","gender-categorical":"Male","gender-free-response":"","ethnicity":"Not Hispanic or Latino","race":["Asian"],"education":"Bachelor degree"},"survey":"demographics","trial_type":"survey-demo","trial_index":1,"time_elapsed":12491,"internal_node_id":"0.0-1.0","experiment":"validation","task_version":"2.0","jspsych_version":"6.3.1"},{"rt":47526.60000002384,"response":{"Q1":3,"Q8":0,"Q6":1,"Q5":3,"Q2":2,"Q3":2,"Q0":1,"Q4":3,"Q7":4},"question_order":[1,8,6,5,2,3,0,4,7],"survey":"sns","trial_type":"survey-likert","trial_index":2,"time_elapsed":60024,"internal_node_id":"0.0-2.0","experiment":"validation","task_version":"2.0","jspsych_version":"6.3.1","infrequency":0},{"responses":{"Q01":"2","Q03":"2","Q09":"0","Q07":"3","Q05":"3","Q08":"3","Q02":"4","Q06":"4","Q04":"4"},"rt":35375.39999997616,"item_order":[0,2,8,6,4,7,1,5,3],"radio_events":[5471.599999904633,9305.699999928474,10589.299999952316,11973.299999952316,13355.799999952316,28921.899999976158,30622.099999904633,31405.199999928474,32172.299999952316],"key_events":[],"mouse_events":[3772.899999976158,5471.599999904633,8606.199999928474,9305.699999928474,10589.299999952316,11973.299999952316,13355.799999952316,14755.5,16455,17438.699999928474,26971.899999976158,28021.799999952316,28441.199999928474,28921.899999976158,30622.099999904633,31405.199999928474,32172.299999952316,35372.59999990463],"straightlining":0.4444444444444444,"zigzagging":0.25,"honeypot":0,"survey":"pcf","trial_type":"survey-template","trial_index":3,"time_elapsed":95409,"internal_node_id":"0.0-3.0","experiment":"validation","task_version":"2.0","jspsych_version":"6.3.1","infrequency":1},{"responses":{"Q05":"2","Q10":"3","Q06":"3","Q03":"1","Q04":"0","Q09":"2","Q08":"2","Q11":"0","Q07":"2","Q01":"2","Q02":"3"},"rt":48592.5,"item_order":[4,9,5,2,3,8,7,10,6,0,1],"radio_events":[15221.199999928474,16038.199999928474,21622.399999976158,26972.899999976158,27822.100000023842,28339.799999952316,30339.5,32455.899999976158,41221.799999952316,44456.299999952316,46440.299999952316,47822.199999928474],"key_events":[],"mouse_events":[8305.899999976158,14521.899999976158,15221.199999928474,16038.199999928474,21005.299999952316,21622.399999976158,23556.100000023842,26421.799999952316,26972.899999976158,27822.100000023842,28339.799999952316,30339.5,32455.899999976158,41221.799999952316,44456.299999952316,46440.299999952316,47422,47822.199999928474,48272.89999997616,48590.5],"straightlining":0.45454545454545453,"zigzagging":0.3,"honeypot":0,"survey":"nfc10","trial_type":"survey-template","trial_index":4,"time_elapsed":144009,"internal_node_id":"0.0-4.0","experiment":"validation","task_version":"2.0","jspsych_version":"6.3.1","infrequency":0},{"value":1,"trial_type":"call-function","trial_index":5,"time_elapsed":144019,"internal_node_id":"0.0-5.0","experiment":"validation","task_version":"2.0","jspsych_version":"6.3.1","interactions":"[{\"event\":\"blur\",\"trial\":2,\"time\":15593},{\"event\":\"focus\",\"trial\":2,\"time\":19641},{\"event\":\"blur\",\"trial\":2,\"time\":26269},{\"event\":\"focus\",\"trial\":2,\"time\":27124},{\"event\":\"blur\",\"trial\":3,\"time\":78829},{\"event\":\"focus\",\"trial\":3,\"time\":85588},{\"event\":\"blur\",\"trial\":4,\"time\":104899},{\"event\":\"focus\",\"trial\":4,\"time\":105875}]"}]