[{"view_history":[{"page_index":0,"viewing_time":1810}],"rt":1810.2000000001863,"trial_type":"instructions","trial_index":0,"time_elapsed":1815,"internal_node_id":"0.0-0.0","experiment":"validation","task_version":"2.0","jspsych_version":"6.3.1"},{"rt":31393.89999999944,"responses":{"age":"27","gender-categorical":"Male","gender-free-response":"","ethnicity":"Hispanic or Latino","race":["White"],"education":"Some college"},"survey":"demographics","trial_type":"survey-demo","trial_index":1,"time_elapsed":33210,"internal_node_id":"0.0-1.0","experiment":"validation","task_version":"2.0","jspsych_version":"6.3.1"},{"responses":{"Q04":"2","Q02":"1","Q05":"0","Q07":"2","Q06":"1","Q09":"4","Q03":"1","Q01":"0","Q08":"2"},"rt":63049.200000000186,"item_order":[3,1,4,6,5,8,2,0,7],"radio_events":[8569.400000000373,17063.5,19595.5,21934.299999999814,28144.299999999814,36027.40000000037,40489.5,48188.299999999814,51273.299999999814,62473.40000000037],"key_events":[],"mouse_events":[7201.4000000003725,8569.400000000373,17063.5,19595.5,21174.299999999814,21544.299999999814,21934.299999999814,28144.299999999814,36027.40000000037,39913.5,40489.5,48188.299999999814,50966.299999999814,51273.299999999814,61624.5,62473.40000000037,63048.5],"straightlining":0.3333333333333333,"zigzagging":0.75,"honeypot":0,"survey":"pcf","trial_type":"survey-template","trial_index":2,"time_elapsed":96261,"internal_node_id":"0.0-2.0","experiment":"validation","task_version":"2.0","jspsych_version":"6.3.1","infrequency":0},{"rt":72402.60000000056,"response":{"Q1":3,"Q2":4,"Q5":5,"Q7":5,"Q0":1,"Q6":0,"Q4":3,"Q3":4,"Q8":0},"question_order":[1,2,5,7,0,6,4,3,8],"survey":"sns","trial_type":"survey-likert","trial_index":3,"time_elapsed":168666,"internal_node_id":"0.0-3.0","experiment":"validation","task_version":"2.0","jspsych_version":"6.3.1","infrequency":0},{"responses":{"Q04":"3","Q05":"1","Q07":"3","Q10":"3","Q02":"3","Q08":"2","Q03":"3","Q01":"3","Q09":"3","Q06":"2","Q11":"0"},"rt":127333.39999999944,"item_order":[3,4,6,9,1,7,2,0,8,5,10],"radio_events":[32561.799999999814,45673.699999999255,53995.89999999944,60269.59999999963,70240.69999999925,79775.79999999981,85967.79999999981,91724.79999999981,98618.79999999981,105251.79999999981,109987.69999999925,124727.79999999981],"key_events":[],"mouse_events":[31954.599999999627,32269.799999999814,32561.799999999814,45673.699999999255,53995.89999999944,58095.89999999944,60269.59999999963,69732,70240.69999999925,79775.79999999981,85560.79999999981,85967.79999999981,91268,91724.79999999981,98144.79999999981,98618.79999999981,105251.79999999981,109987.69999999925,123903.79999999981,124727.79999999981,127332.69999999925],"straightlining":0.5454545454545454,"zigzagging":0.3,"honeypot":0,"survey":"nfc10","trial_type":"survey-template","trial_index":4,"time_elapsed":296001,"internal_node_id":"0.0-4.0","experiment":"validation","task_version":"2.0","jspsych_version":"6.3.1","infrequency":0},{"value":0,"trial_type":"call-function","trial_index":5,"time_elapsed":296002,"internal_node_id":"0.0-5.0","experiment":"validation","task_version":"2.0","jspsych_version":"6.3.1","interactions":"[]"}]