[{"view_history":[{"page_index":0,"viewing_time":3114.5999999996275}],"rt":3115.7000000001863,"trial_type":"instructions","trial_index":0,"time_elapsed":3127,"internal_node_id":"0.0-0.0","experiment":"validation","task_version":"2.0","jspsych_version":"6.3.1"},{"rt":14822.400000000373,"responses":{"age":"33","gender-categorical":"Female","gender-free-response":"","ethnicity":"Not Hispanic or Latino","race":["White"],"education":"High school"},"survey":"demographics","trial_type":"survey-demo","trial_index":1,"time_elapsed":17953,"internal_node_id":"0.0-1.0","experiment":"validation","task_version":"2.0","jspsych_version":"6.3.1"},{"responses":{"Q02":"2","Q04":"2","Q05":"1","Q09":"4","Q08":"2","Q01":"3","Q03":"1","Q07":"2","Q06":"1"},"rt":37652.700000000186,"item_order":[1,3,4,8,7,0,2,6,5],"radio_events":[5976.700000000186,10784.600000000559,15355.400000000373,18219.10000000056,21112.300000000745,25199.900000000373,26927.900000000373,28645.900000000373,30720.300000000745,36387.10000000056],"key_events":[],"mouse_events":[5976.700000000186,10024.5,10784.600000000559,13480,15355.400000000373,16985.300000000745,18219.10000000056,21112.300000000745,23955.800000000745,25199.900000000373,26927.900000000373,27856,28645.900000000373,30720.300000000745,34264.40000000037,34945.800000000745,35587.700000000186,36387.10000000056,37651.300000000745],"straightlining":0.4444444444444444,"zigzagging":0.625,"honeypot":0,"survey":"pcf","trial_type":"survey-template","trial_index":2,"time_elapsed":55612,"internal_node_id":"0.0-2.0","experiment":"validation","task_version":"2.0","jspsych_version":"6.3.1","infrequency":0},{"responses":{"Q04":"1","Q02":"1","Q08":"1","Q01":"3","Q05":"1","Q09":"1","Q11":"0","Q03":"1","Q06":"0","Q07":"0","Q10":"1"},"rt":72265.90000000037,"item_order":[3,1,7,0,4,8,10,2,5,6,9],"radio_events":[11377.300000000745,16767.900000000373,21793.200000000186,25436.10000000056,32653.300000000745,35585.300000000745,41767,43059.40000000037,51639.5,57742.300000000745,61613.10000000056,65551,70260.10000000056],"key_events":[],"mouse_events":[11377.300000000745,16767.900000000373,20509.400000000373,21793.200000000186,25436.10000000056,31715.300000000745,32653.300000000745,35585.300000000745,38231.40000000037,39149.200000000186,40778.40000000037,40799.200000000186,41767,43059.40000000037,51639.5,56053.300000000745,57742.300000000745,61613.10000000056,65551,69569.20000000019,70260.10000000056,72264.5],"straightlining":0.36363636363636365,"zigzagging":0.2,"honeypot":0,"survey":"nfc10","trial_type":"survey-template","trial_index":3,"time_elapsed":127883,"internal_node_id":"0.0-3.0","experiment":"validation","task_version":"2.0","jspsych_version":"6.3.1","infrequency":0},{"rt":70725.5,"response":{"Q6":0,"Q2":3,"Q4":3,"Q1":3,"Q7":3,"Q0":2,"Q8":0,"Q3":4,"Q5":3},"question_order":[6,2,4,1,7,0,8,3,5],"survey":"sns","trial_type":"survey-likert","trial_index":4,"time_elapsed":198614,"internal_node_id":"0.0-4.0","experiment":"validation","task_version":"2.0","jspsych_version":"6.3.1","infrequency":0},{"value":0,"trial_type":"call-function","trial_index":5,"time_elapsed":198616,"internal_node_id":"0.0-5.0","experiment":"validation","task_version":"2.0","jspsych_version":"6.3.1","interactions":"[{\"event\":\"blur\",\"trial\":4,\"time\":197884},{\"event\":\"focus\",\"trial\":4,\"time\":198488}]"}]