[{"view_history":[{"page_index":0,"viewing_time":7388.0999999940395}],"rt":7389.4000000059605,"trial_type":"instructions","trial_index":0,"time_elapsed":7414,"internal_node_id":"0.0-0.0","experiment":"validation","task_version":"2.0","jspsych_version":"6.3.1"},{"rt":27057.10000000894,"responses":{"age":"45","gender-categorical":"Male","gender-free-response":"","ethnicity":"Not Hispanic or Latino","race":["White"],"education":"Some college"},"survey":"demographics","trial_type":"survey-demo","trial_index":1,"time_elapsed":34482,"internal_node_id":"0.0-1.0","experiment":"validation","task_version":"2.0","jspsych_version":"6.3.1"},{"responses":{"Q04":"3","Q02":"3","Q07":"3","Q09":"3","Q05":"4","Q01":"3","Q06":"3","Q11":"0","Q03":"4","Q08":"3","Q10":"3"},"rt":48451.29999999702,"item_order":[3,1,6,8,4,0,5,10,2,7,9],"radio_events":[9255.10000000894,10993.29999999702,14531.20000000298,16643.10000000894,21663.5,23635.90000000596,26613.70000000298,31639.90000000596,35382.40000000596,38102.20000000298,41554.90000000596],"key_events":[],"mouse_events":[5405.29999999702,9255.10000000894,10993.29999999702,13535.60000000894,14531.20000000298,16643.10000000894,20791.70000000298,21663.5,23635.90000000596,26613.70000000298,31639.90000000596,35382.40000000596,38102.20000000298,40846.20000000298,41554.90000000596,48445.20000000298],"straightlining":0.6363636363636364,"zigzagging":0,"honeypot":0,"survey":"nfc10","trial_type":"survey-template","trial_index":2,"time_elapsed":82951,"internal_node_id":"0.0-2.0","experiment":"validation","task_version":"2.0","jspsych_version":"6.3.1","infrequency":0},{"responses":{"Q07":"4","Q04":"4","Q01":"4","Q03":"4","Q02":"4","Q08":"4","Q06":"4","Q05":"4","Q09":"4"},"rt":36778.80000001192,"item_order":[6,3,0,2,1,7,5,4,8],"radio_events":[7298.20000000298,7399.800000011921,9768.10000000894,13338.5,14000.40000000596,17016.30000001192,19588.5,19666.20000000298,20702.60000000894,23998.40000000596,27375],"key_events":[],"mouse_events":[7298.20000000298,7399.800000011921,9768.10000000894,10766.40000000596,12263.300000011921,13338.5,14000.40000000596,15467.5,17016.30000001192,19588.5,19666.20000000298,20702.60000000894,23998.40000000596,27375,28325,36774.5],"straightlining":0.8888888888888888,"zigzagging":0.125,"honeypot":0,"survey":"pcf","trial_type":"survey-template","trial_index":3,"time_elapsed":119742,"internal_node_id":"0.0-3.0","experiment":"validation","task_version":"2.0","jspsych_version":"6.3.1","infrequency":0},{"rt":53523.09999999404,"response":{"Q7":5,"Q5":5,"Q4":5,"Q6":0,"Q2":5,"Q0":5,"Q8":0,"Q1":5,"Q3":5},"question_order":[7,5,4,6,2,0,8,1,3],"survey":"sns","trial_type":"survey-likert","trial_index":4,"time_elapsed":173282,"internal_node_id":"0.0-4.0","experiment":"validation","task_version":"2.0","jspsych_version":"6.3.1","infrequency":0},{"value":0,"trial_type":"call-function","trial_index":5,"time_elapsed":173288,"internal_node_id":"0.0-5.0","experiment":"validation","task_version":"2.0","jspsych_version":"6.3.1","interactions":"[{\"event\":\"blur\",\"trial\":0,\"time\":3416},{\"event\":\"focus\",\"trial\":0,\"time\":4158}]"}]