[{"view_history":[{"page_index":0,"viewing_time":40196.5}],"rt":40197.90000000596,"trial_type":"instructions","trial_index":0,"time_elapsed":40283,"internal_node_id":"0.0-0.0","experiment":"validation","task_version":"2.0","jspsych_version":"6.3.1"},{"rt":9180.5,"responses":{"age":"49","gender-categorical":"Female","gender-free-response":"","ethnicity":"Not Hispanic or Latino","race":["White"],"education":"Bachelor degree"},"survey":"demographics","trial_type":"survey-demo","trial_index":1,"time_elapsed":49467,"internal_node_id":"0.0-1.0","experiment":"validation","task_version":"2.0","jspsych_version":"6.3.1"},{"rt":26754.70000001788,"response":{"Q2":5,"Q6":0,"Q8":0,"Q7":5,"Q0":3,"Q5":5,"Q3":5,"Q4":4,"Q1":5},"question_order":[2,6,8,7,0,5,3,4,1],"survey":"sns","trial_type":"survey-likert","trial_index":2,"time_elapsed":76228,"internal_node_id":"0.0-2.0","experiment":"validation","task_version":"2.0","jspsych_version":"6.3.1","infrequency":0},{"responses":{"Q04":"3","Q01":"4","Q08":"4","Q03":"4","Q05":"3","Q09":"4","Q02":"4","Q06":"3","Q07":"4"},"rt":170762.10000002384,"item_order":[3,0,7,2,4,8,1,5,6],"radio_events":[154656.60000002384,156600.30000001192,157919.30000001192,157951.30000001192,158681.40000000596,158712.90000000596,160992.30000001192,161023.70000001788,163183.20000001788,163215.30000001192,165103.40000000596,165135.30000001192,166151.90000000596,166175.20000001788,167584.60000002384,169935.5,169967.20000001788],"key_events":[],"mouse_events":[154656.60000002384,156600.30000001192,157919.30000001192,157951.30000001192,158681.40000000596,158712.90000000596,159919.40000000596,160992.30000001192,161023.70000001788,163183.20000001788,163215.30000001192,165103.40000000596,165135.30000001192,166151.90000000596,166175.20000001788,167584.60000002384,168983.80000001192,169935.5,169967.20000001788,170760.20000001788],"straightlining":0.5555555555555556,"zigzagging":0.625,"honeypot":0,"survey":"pcf","trial_type":"survey-template","trial_index":3,"time_elapsed":246994,"internal_node_id":"0.0-3.0","experiment":"validation","task_version":"2.0","jspsych_version":"6.3.1","infrequency":0},{"responses":{"Q09":"1","Q10":"2","Q11":"0","Q02":"1","Q08":"2","Q04":"2","Q01":"1","Q06":"1","Q05":"1","Q07":"1","Q03":"1"},"rt":30698.19999998808,"item_order":[8,9,10,1,7,3,0,5,4,6,2],"radio_events":[3969.5,4001.0999999940395,6138.0999999940395,6169.0999999940395,9201.59999999404,9233,11849.800000011921,13978.40000000596,16857,16889,19665.5,19697.09999999404,21281.19999998808,21312.90000000596,25346,28762.19999998808,30210,30243.40000000596],"key_events":[],"mouse_events":[25,3218.4000000059605,3250.300000011921,3969.5,4001.0999999940395,6138.0999999940395,6169.0999999940395,9201.59999999404,9233,11849.800000011921,13978.40000000596,16857,16889,19665.5,19697.09999999404,21281.19999998808,21312.90000000596,25346,28762.19999998808,30210,30243.40000000596,30697.09999999404],"straightlining":0.45454545454545453,"zigzagging":0.4,"honeypot":0,"survey":"nfc10","trial_type":"survey-template","trial_index":4,"time_elapsed":277696,"internal_node_id":"0.0-4.0","experiment":"validation","task_version":"2.0","jspsych_version":"6.3.1","infrequency":0},{"value":0,"trial_type":"call-function","trial_index":5,"time_elapsed":277698,"internal_node_id":"0.0-5.0","experiment":"validation","task_version":"2.0","jspsych_version":"6.3.1","interactions":"[]"}]