[{"success":true,"timeout":false,"failed_images":[],"failed_audio":[],"failed_video":[],"trial_type":"preload","trial_index":0,"time_elapsed":3849,"internal_node_id":"0.0-0.0","experiment":"validation-B","task_version":"2.0","jspsych_version":"6.3.1"},{"success":true,"trial_type":"fullscreen","trial_index":1,"time_elapsed":6106,"internal_node_id":"0.0-1.0","experiment":"validation-B","task_version":"2.0","jspsych_version":"6.3.1"},{"view_history":[{"page_index":0,"viewing_time":2007},{"page_index":1,"viewing_time":10790},{"page_index":2,"viewing_time":5976},{"page_index":3,"viewing_time":2321}],"rt":21094,"trial_type":"instructions","trial_index":2,"time_elapsed":27200,"internal_node_id":"0.0-3.0","experiment":"validation-B","task_version":"2.0","jspsych_version":"6.3.1"},{"item":5,"shape_set":1,"distractor":"pd","choice_order":[1,3,2,0],"correct":0,"choice":0,"accuracy":1,"rt":2330,"screen_resolution":[1280,800],"minimum_resolution":1,"all_loaded":true,"item_set":"practice","trial_type":"mars","trial_index":3,"time_elapsed":30283,"internal_node_id":"0.0-4.0-0.0","experiment":"validation-B","task_version":"2.0","jspsych_version":"6.3.1"},{"item":2,"shape_set":1,"distractor":"pd","choice_order":[2,0,3,1],"correct":0,"choice":0,"accuracy":1,"rt":2298,"screen_resolution":[1280,800],"minimum_resolution":1,"all_loaded":true,"item_set":"practice","trial_type":"mars","trial_index":4,"time_elapsed":33342,"internal_node_id":"0.0-5.0-0.0","experiment":"validation-B","task_version":"2.0","jspsych_version":"6.3.1"},{"item":8,"shape_set":1,"distractor":"pd","choice_order":[2,1,3,0],"correct":0,"choice":0,"accuracy":1,"rt":6186,"screen_resolution":[1280,800],"minimum_resolution":1,"all_loaded":true,"item_set":"practice","trial_type":"mars","trial_index":5,"time_elapsed":40286,"internal_node_id":"0.0-6.0-0.0","experiment":"validation-B","task_version":"2.0","jspsych_version":"6.3.1"},{"view_history":[{"page_index":0,"viewing_time":1148},{"page_index":1,"viewing_time":6194}],"rt":7342,"trial_type":"instructions","trial_index":6,"time_elapsed":47635,"internal_node_id":"0.0-7.0","experiment":"validation-B","task_version":"2.0","jspsych_version":"6.3.1"},{"rt":null,"stimulus":"<div style=\"font-size:24px;\">Loading puzzle:<br>1 / 24</div>","response":null,"trial_type":"html-keyboard-response","trial_index":7,"time_elapsed":48839,"internal_node_id":"0.0-8.0-1.0","experiment":"validation-B","task_version":"2.0","jspsych_version":"6.3.1"},{"item":55,"shape_set":1,"distractor":"pd","choice_order":[0,2,1,3],"correct":0,"choice":0,"accuracy":1,"rt":12972,"screen_resolution":[1280,800],"minimum_resolution":1,"all_loaded":true,"item_set":3,"long_form":1,"trial_type":"mars","trial_index":8,"time_elapsed":61815,"internal_node_id":"0.0-8.0-2.0","experiment":"validation-B","task_version":"2.0","jspsych_version":"6.3.1","browser_interactions":0},{"rt":null,"stimulus":"<div style=\"font-size:24px;\">Loading puzzle:<br>2 / 24</div>","response":null,"trial_type":"html-keyboard-response","trial_index":9,"time_elapsed":63024,"internal_node_id":"0.0-9.0-1.0","experiment":"validation-B","task_version":"2.0","jspsych_version":"6.3.1"},{"item":30,"shape_set":3,"distractor":"pd","choice_order":[2,0,1,3],"correct":0,"choice":0,"accuracy":1,"rt":16763,"screen_resolution":[1280,800],"minimum_resolution":1,"all_loaded":true,"item_set":3,"long_form":1,"trial_type":"mars","trial_index":10,"time_elapsed":79791,"internal_node_id":"0.0-9.0-2.0","experiment":"validation-B","task_version":"2.0","jspsych_version":"6.3.1","browser_interactions":0},{"rt":null,"stimulus":"<div style=\"font-size:24px;\">Loading puzzle:<br>3 / 24</div>","response":null,"trial_type":"html-keyboard-response","trial_index":11,"time_elapsed":81000,"internal_node_id":"0.0-10.0-1.0","experiment":"validation-B","task_version":"2.0","jspsych_version":"6.3.1"},{"item":64,"shape_set":1,"distractor":"pd","choice_order":[0,3,1,2],"correct":0,"choice":0,"accuracy":1,"rt":22990,"screen_resolution":[1280,800],"minimum_resolution":1,"all_loaded":true,"item_set":3,"long_form":1,"trial_type":"mars","trial_index":12,"time_elapsed":103994,"internal_node_id":"0.0-10.0-2.0","experiment":"validation-B","task_version":"2.0","jspsych_version":"6.3.1","browser_interactions":0},{"rt":null,"stimulus":"<div style=\"font-size:24px;\">Loading puzzle:<br>4 / 24</div>","response":null,"trial_type":"html-keyboard-response","trial_index":13,"time_elapsed":105204,"internal_node_id":"0.0-11.0-1.0","experiment":"validation-B","task_version":"2.0","jspsych_version":"6.3.1"},{"item":45,"shape_set":3,"distractor":"pd","choice_order":[0,3,1,2],"correct":0,"choice":0,"accuracy":1,"rt":10388,"screen_resolution":[1280,800],"minimum_resolution":1,"all_loaded":true,"item_set":3,"long_form":1,"trial_type":"mars","trial_index":14,"time_elapsed":115596,"internal_node_id":"0.0-11.0-2.0","experiment":"validation-B","task_version":"2.0","jspsych_version":"6.3.1","browser_interactions":0},{"rt":null,"stimulus":"<div style=\"font-size:24px;\">Loading puzzle:<br>5 / 24</div>","response":null,"trial_type":"html-keyboard-response","trial_index":15,"time_elapsed":116805,"internal_node_id":"0.0-12.0-1.0","experiment":"validation-B","task_version":"2.0","jspsych_version":"6.3.1"},{"item":35,"shape_set":1,"distractor":"pd","choice_order":[3,1,0,2],"correct":0,"choice":0,"accuracy":1,"rt":7971,"screen_resolution":[1280,800],"minimum_resolution":1,"all_loaded":true,"item_set":3,"long_form":1,"trial_type":"mars","trial_index":16,"time_elapsed":124780,"internal_node_id":"0.0-12.0-2.0","experiment":"validation-B","task_version":"2.0","jspsych_version":"6.3.1","browser_interactions":0},{"rt":null,"stimulus":"<div style=\"font-size:24px;\">Loading puzzle:<br>6 / 24</div>","response":null,"trial_type":"html-keyboard-response","trial_index":17,"time_elapsed":125989,"internal_node_id":"0.0-13.0-1.0","experiment":"validation-B","task_version":"2.0","jspsych_version":"6.3.1"},{"item":72,"shape_set":1,"distractor":"pd","choice_order":[3,1,2,0],"correct":0,"choice":3,"accuracy":0,"rt":20196.999999999985,"screen_resolution":[1280,800],"minimum_resolution":1,"all_loaded":true,"item_set":3,"long_form":1,"trial_type":"mars","trial_index":18,"time_elapsed":146190,"internal_node_id":"0.0-13.0-2.0","experiment":"validation-B","task_version":"2.0","jspsych_version":"6.3.1","browser_interactions":0},{"rt":null,"stimulus":"<div style=\"font-size:24px;\">Loading puzzle:<br>7 / 24</div>","response":null,"trial_type":"html-keyboard-response","trial_index":19,"time_elapsed":147401,"internal_node_id":"0.0-14.0-1.0","experiment":"validation-B","task_version":"2.0","jspsych_version":"6.3.1"},{"item":27,"shape_set":1,"distractor":"pd","choice_order":[0,2,3,1],"correct":0,"choice":0,"accuracy":1,"rt":16400,"screen_resolution":[1280,800],"minimum_resolution":1,"all_loaded":true,"item_set":3,"long_form":1,"trial_type":"mars","trial_index":20,"time_elapsed":163806,"internal_node_id":"0.0-14.0-2.0","experiment":"validation-B","task_version":"2.0","jspsych_version":"6.3.1","browser_interactions":0},{"rt":null,"stimulus":"<div style=\"font-size:24px;\">Loading puzzle:<br>8 / 24</div>","response":null,"trial_type":"html-keyboard-response","trial_index":21,"time_elapsed":165015,"internal_node_id":"0.0-15.0-1.0","experiment":"validation-B","task_version":"2.0","jspsych_version":"6.3.1"},{"item":79,"shape_set":3,"distractor":"pd","choice_order":[3,2,0,1],"correct":0,"choice":1,"accuracy":0,"rt":24976,"screen_resolution":[1280,800],"minimum_resolution":1,"all_loaded":true,"item_set":3,"long_form":1,"trial_type":"mars","trial_index":22,"time_elapsed":189995,"internal_node_id":"0.0-15.0-2.0","experiment":"validation-B","task_version":"2.0","jspsych_version":"6.3.1","browser_interactions":0},{"rt":null,"stimulus":"<div style=\"font-size:24px;\">Loading puzzle:<br>9 / 24</div>","response":null,"trial_type":"html-keyboard-response","trial_index":23,"time_elapsed":191205,"internal_node_id":"0.0-16.0-1.0","experiment":"validation-B","task_version":"2.0","jspsych_version":"6.3.1"},{"item":29,"shape_set":2,"distractor":"pd","choice_order":[2,3,1,0],"correct":0,"choice":0,"accuracy":1,"rt":14021,"screen_resolution":[1280,800],"minimum_resolution":1,"all_loaded":true,"item_set":3,"long_form":1,"trial_type":"mars","trial_index":24,"time_elapsed":205228,"internal_node_id":"0.0-16.0-2.0","experiment":"validation-B","task_version":"2.0","jspsych_version":"6.3.1","browser_interactions":0},{"rt":null,"stimulus":"<div style=\"font-size:24px;\">Loading puzzle:<br>10 / 24</div>","response":null,"trial_type":"html-keyboard-response","trial_index":25,"time_elapsed":206438,"internal_node_id":"0.0-17.0-1.0","experiment":"validation-B","task_version":"2.0","jspsych_version":"6.3.1"},{"item":24,"shape_set":3,"distractor":"pd","choice_order":[0,3,1,2],"correct":0,"choice":0,"accuracy":1,"rt":21418.99999999997,"screen_resolution":[1280,800],"minimum_resolution":1,"all_loaded":true,"item_set":3,"long_form":1,"trial_type":"mars","trial_index":26,"time_elapsed":227861,"internal_node_id":"0.0-17.0-2.0","experiment":"validation-B","task_version":"2.0","jspsych_version":"6.3.1","browser_interactions":0},{"rt":null,"stimulus":"<div style=\"font-size:24px;\">Loading puzzle:<br>11 / 24</div>","response":null,"trial_type":"html-keyboard-response","trial_index":27,"time_elapsed":229072,"internal_node_id":"0.0-18.0-1.0","experiment":"validation-B","task_version":"2.0","jspsych_version":"6.3.1"},{"item":42,"shape_set":3,"distractor":"pd","choice_order":[1,2,0,3],"correct":0,"choice":0,"accuracy":1,"rt":16030,"screen_resolution":[1280,800],"minimum_resolution":1,"all_loaded":true,"item_set":3,"long_form":1,"trial_type":"mars","trial_index":28,"time_elapsed":245106,"internal_node_id":"0.0-18.0-2.0","experiment":"validation-B","task_version":"2.0","jspsych_version":"6.3.1","browser_interactions":0},{"rt":null,"stimulus":"<div style=\"font-size:24px;\">Loading puzzle:<br>12 / 24</div>","response":null,"trial_type":"html-keyboard-response","trial_index":29,"time_elapsed":246316,"internal_node_id":"0.0-19.0-1.0","experiment":"validation-B","task_version":"2.0","jspsych_version":"6.3.1"},{"item":54,"shape_set":1,"distractor":"pd","choice_order":[2,1,3,0],"correct":0,"choice":0,"accuracy":1,"rt":11964.99999999997,"screen_resolution":[1280,800],"minimum_resolution":1,"all_loaded":true,"item_set":3,"long_form":1,"trial_type":"mars","trial_index":30,"time_elapsed":258286,"internal_node_id":"0.0-19.0-2.0","experiment":"validation-B","task_version":"2.0","jspsych_version":"6.3.1","browser_interactions":0},{"view_history":[{"page_index":0,"viewing_time":1534},{"page_index":1,"viewing_time":5067.999999999971}],"rt":6601.999999999971,"trial_type":"instructions","trial_index":31,"time_elapsed":264895,"internal_node_id":"0.0-20.0","experiment":"validation-B","task_version":"2.0","jspsych_version":"6.3.1"},{"rt":null,"stimulus":"<div style=\"font-size:24px;\">Loading puzzle:<br>13 / 24</div>","response":null,"trial_type":"html-keyboard-response","trial_index":32,"time_elapsed":266101,"internal_node_id":"0.0-21.0-1.0","experiment":"validation-B","task_version":"2.0","jspsych_version":"6.3.1"},{"item":17,"shape_set":3,"distractor":"pd","choice_order":[2,3,0,1],"correct":0,"choice":0,"accuracy":1,"rt":6104,"screen_resolution":[1280,800],"minimum_resolution":1,"all_loaded":true,"item_set":3,"long_form":1,"trial_type":"mars","trial_index":33,"time_elapsed":272207,"internal_node_id":"0.0-21.0-2.0","experiment":"validation-B","task_version":"2.0","jspsych_version":"6.3.1","browser_interactions":0},{"rt":null,"stimulus":"<div style=\"font-size:24px;\">Loading puzzle:<br>14 / 24</div>","response":null,"trial_type":"html-keyboard-response","trial_index":34,"time_elapsed":273417,"internal_node_id":"0.0-22.0-1.0","experiment":"validation-B","task_version":"2.0","jspsych_version":"6.3.1"},{"item":58,"shape_set":3,"distractor":"md","choice_order":[2,3,0,1],"correct":0,"choice":0,"accuracy":1,"rt":14636.000000000058,"screen_resolution":[1280,800],"minimum_resolution":1,"all_loaded":true,"item_set":3,"long_form":1,"trial_type":"mars","trial_index":35,"time_elapsed":288057,"internal_node_id":"0.0-22.0-2.0","experiment":"validation-B","task_version":"2.0","jspsych_version":"6.3.1","browser_interactions":0},{"rt":null,"stimulus":"<div style=\"font-size:24px;\">Loading puzzle:<br>15 / 24</div>","response":null,"trial_type":"html-keyboard-response","trial_index":36,"time_elapsed":289267,"internal_node_id":"0.0-23.0-1.0","experiment":"validation-B","task_version":"2.0","jspsych_version":"6.3.1"},{"item":73,"shape_set":2,"distractor":"pd","choice_order":[0,2,3,1],"correct":0,"choice":0,"accuracy":1,"rt":25697,"screen_resolution":[1280,800],"minimum_resolution":1,"all_loaded":true,"item_set":3,"long_form":1,"trial_type":"mars","trial_index":37,"time_elapsed":314968,"internal_node_id":"0.0-23.0-2.0","experiment":"validation-B","task_version":"2.0","jspsych_version":"6.3.1","browser_interactions":0},{"rt":null,"stimulus":"<div style=\"font-size:24px;\">Loading puzzle:<br>16 / 24</div>","response":null,"trial_type":"html-keyboard-response","trial_index":38,"time_elapsed":316177,"internal_node_id":"0.0-24.0-1.0","experiment":"validation-B","task_version":"2.0","jspsych_version":"6.3.1"},{"item":36,"shape_set":3,"distractor":"pd","choice_order":[1,0,3,2],"correct":0,"choice":1,"accuracy":0,"rt":26592.99999999994,"screen_resolution":[1280,800],"minimum_resolution":1,"all_loaded":true,"item_set":3,"long_form":1,"trial_type":"mars","trial_index":39,"time_elapsed":342773,"internal_node_id":"0.0-24.0-2.0","experiment":"validation-B","task_version":"2.0","jspsych_version":"6.3.1","browser_interactions":0},{"rt":null,"stimulus":"<div style=\"font-size:24px;\">Loading puzzle:<br>17 / 24</div>","response":null,"trial_type":"html-keyboard-response","trial_index":40,"time_elapsed":343982,"internal_node_id":"0.0-25.0-1.0","experiment":"validation-B","task_version":"2.0","jspsych_version":"6.3.1"},{"item":63,"shape_set":3,"distractor":"pd","choice_order":[2,3,1,0],"correct":0,"choice":0,"accuracy":1,"rt":18044,"screen_resolution":[1280,800],"minimum_resolution":1,"all_loaded":true,"item_set":3,"long_form":1,"trial_type":"mars","trial_index":41,"time_elapsed":362031,"internal_node_id":"0.0-25.0-2.0","experiment":"validation-B","task_version":"2.0","jspsych_version":"6.3.1","browser_interactions":0},{"rt":null,"stimulus":"<div style=\"font-size:24px;\">Loading puzzle:<br>18 / 24</div>","response":null,"trial_type":"html-keyboard-response","trial_index":42,"time_elapsed":363241,"internal_node_id":"0.0-26.0-1.0","experiment":"validation-B","task_version":"2.0","jspsych_version":"6.3.1"},{"item":75,"shape_set":2,"distractor":"pd","choice_order":[0,3,2,1],"correct":0,"choice":0,"accuracy":1,"rt":11861,"screen_resolution":[1280,800],"minimum_resolution":1,"all_loaded":true,"item_set":3,"long_form":1,"trial_type":"mars","trial_index":43,"time_elapsed":375105,"internal_node_id":"0.0-26.0-2.0","experiment":"validation-B","task_version":"2.0","jspsych_version":"6.3.1","browser_interactions":0},{"rt":null,"stimulus":"<div style=\"font-size:24px;\">Loading puzzle:<br>19 / 24</div>","response":null,"trial_type":"html-keyboard-response","trial_index":44,"time_elapsed":376315,"internal_node_id":"0.0-27.0-1.0","experiment":"validation-B","task_version":"2.0","jspsych_version":"6.3.1"},{"item":74,"shape_set":3,"distractor":"pd","choice_order":[2,3,1,0],"correct":0,"choice":1,"accuracy":0,"rt":17871,"screen_resolution":[1280,800],"minimum_resolution":1,"all_loaded":true,"item_set":3,"long_form":1,"trial_type":"mars","trial_index":45,"time_elapsed":394189,"internal_node_id":"0.0-27.0-2.0","experiment":"validation-B","task_version":"2.0","jspsych_version":"6.3.1","browser_interactions":0},{"rt":null,"stimulus":"<div style=\"font-size:24px;\">Loading puzzle:<br>20 / 24</div>","response":null,"trial_type":"html-keyboard-response","trial_index":46,"time_elapsed":395399,"internal_node_id":"0.0-28.0-1.0","experiment":"validation-B","task_version":"2.0","jspsych_version":"6.3.1"},{"item":76,"shape_set":1,"distractor":"pd","choice_order":[0,3,2,1],"correct":0,"choice":0,"accuracy":1,"rt":23875,"screen_resolution":[1280,800],"minimum_resolution":1,"all_loaded":true,"item_set":3,"long_form":1,"trial_type":"mars","trial_index":47,"time_elapsed":419277,"internal_node_id":"0.0-28.0-2.0","experiment":"validation-B","task_version":"2.0","jspsych_version":"6.3.1","browser_interactions":0},{"rt":null,"stimulus":"<div style=\"font-size:24px;\">Loading puzzle:<br>21 / 24</div>","response":null,"trial_type":"html-keyboard-response","trial_index":48,"time_elapsed":420487,"internal_node_id":"0.0-29.0-1.0","experiment":"validation-B","task_version":"2.0","jspsych_version":"6.3.1"},{"item":80,"shape_set":2,"distractor":"pd","choice_order":[2,3,0,1],"correct":0,"choice":1,"accuracy":0,"rt":19099.00000000006,"screen_resolution":[1280,800],"minimum_resolution":1,"all_loaded":true,"item_set":3,"long_form":1,"trial_type":"mars","trial_index":49,"time_elapsed":439590,"internal_node_id":"0.0-29.0-2.0","experiment":"validation-B","task_version":"2.0","jspsych_version":"6.3.1","browser_interactions":0},{"rt":null,"stimulus":"<div style=\"font-size:24px;\">Loading puzzle:<br>22 / 24</div>","response":null,"trial_type":"html-keyboard-response","trial_index":50,"time_elapsed":440799,"internal_node_id":"0.0-30.0-1.0","experiment":"validation-B","task_version":"2.0","jspsych_version":"6.3.1"},{"item":66,"shape_set":2,"distractor":"pd","choice_order":[2,3,0,1],"correct":0,"choice":0,"accuracy":1,"rt":9657.000000000058,"screen_resolution":[1280,800],"minimum_resolution":1,"all_loaded":true,"item_set":3,"long_form":1,"trial_type":"mars","trial_index":51,"time_elapsed":450460,"internal_node_id":"0.0-30.0-2.0","experiment":"validation-B","task_version":"2.0","jspsych_version":"6.3.1","browser_interactions":0},{"rt":null,"stimulus":"<div style=\"font-size:24px;\">Loading puzzle:<br>23 / 24</div>","response":null,"trial_type":"html-keyboard-response","trial_index":52,"time_elapsed":451669,"internal_node_id":"0.0-31.0-1.0","experiment":"validation-B","task_version":"2.0","jspsych_version":"6.3.1"},{"item":21,"shape_set":1,"distractor":"pd","choice_order":[2,0,3,1],"correct":0,"choice":2,"accuracy":0,"rt":22525.00000000006,"screen_resolution":[1280,800],"minimum_resolution":1,"all_loaded":true,"item_set":3,"long_form":1,"trial_type":"mars","trial_index":53,"time_elapsed":474196,"internal_node_id":"0.0-31.0-2.0","experiment":"validation-B","task_version":"2.0","jspsych_version":"6.3.1","browser_interactions":0},{"rt":null,"stimulus":"<div style=\"font-size:24px;\">Loading puzzle:<br>24 / 24</div>","response":null,"trial_type":"html-keyboard-response","trial_index":54,"time_elapsed":475405,"internal_node_id":"0.0-32.0-1.0","experiment":"validation-B","task_version":"2.0","jspsych_version":"6.3.1"},{"item":78,"shape_set":1,"distractor":"pd","choice_order":[1,3,2,0],"correct":0,"choice":2,"accuracy":0,"rt":21189,"screen_resolution":[1280,800],"minimum_resolution":1,"all_loaded":true,"item_set":3,"long_form":1,"trial_type":"mars","trial_index":55,"time_elapsed":496597,"internal_node_id":"0.0-32.0-2.0","experiment":"validation-B","task_version":"2.0","jspsych_version":"6.3.1","browser_interactions":0},{"value":[0,0,0],"trial_type":"call-function","trial_index":56,"time_elapsed":496605,"internal_node_id":"0.0-33.0","experiment":"validation-B","task_version":"2.0","jspsych_version":"6.3.1","interactions":"[{\"event\":\"fullscreenenter\",\"trial\":1,\"time\":5179}]"}]