[{"view_history":[{"page_index":0,"viewing_time":2584.2999999970198}],"rt":2584.7999999970198,"trial_type":"instructions","trial_index":0,"time_elapsed":2590,"internal_node_id":"0.0-0.0","experiment":"validation","task_version":"2.0","jspsych_version":"6.3.1"},{"rt":10265.60000000894,"responses":{"age":"44","gender-categorical":"Female","gender-free-response":"","ethnicity":"Not Hispanic or Latino","race":["White"],"education":"High school"},"survey":"demographics","trial_type":"survey-demo","trial_index":1,"time_elapsed":12859,"internal_node_id":"0.0-1.0","experiment":"validation","task_version":"2.0","jspsych_version":"6.3.1"},{"responses":{"Q05":"4","Q07":"4","Q03":"4","Q06":"4","Q01":"4","Q02":"4","Q09":"4","Q08":"2","Q04":"4"},"rt":36028.79999999702,"item_order":[4,6,2,5,0,1,8,7,3],"radio_events":[3178.4000000059605,5445.29999999702,8092.70000000298,9193,10395,15743.09999999404,18146,21959.79999999702,28993,34828.20000000298],"key_events":[],"mouse_events":[3178.4000000059605,5445.29999999702,6895.0999999940395,8092.70000000298,9193,10395,14475.90000000596,15212.40000000596,15743.09999999404,16896,18146,19809.40000000596,20526.40000000596,21161.59999999404,21959.79999999702,27709.29999999702,28395.20000000298,28993,34828.20000000298,36027.29999999702],"straightlining":0.7777777777777778,"zigzagging":0.125,"honeypot":0,"survey":"pcf","trial_type":"survey-template","trial_index":2,"time_elapsed":48892,"internal_node_id":"0.0-2.0","experiment":"validation","task_version":"2.0","jspsych_version":"6.3.1","infrequency":0},{"responses":{"Q10":"2","Q02":"2","Q09":"0","Q08":"2","Q11":"0","Q07":"3","Q01":"1","Q06":"1","Q04":"3","Q05":"3","Q03":"3"},"rt":57547.80000001192,"item_order":[9,1,8,7,10,6,0,5,3,4,2],"radio_events":[6559.9000000059605,16326.70000000298,19910.10000000894,23626.70000000298,28176.70000000298,36429.10000000894,41562.80000001192,44477,45360.40000000596,52012.60000000894,56429.40000000596],"key_events":[],"mouse_events":[4776.70000000298,5345.20000000298,5560.20000000298,6559.9000000059605,15697.60000000894,16326.70000000298,19910.10000000894,23626.70000000298,28176.70000000298,35080.20000000298,36429.10000000894,41562.80000001192,43746.90000000596,44477,45360.40000000596,52012.60000000894,56429.40000000596,57546.20000000298],"straightlining":0.45454545454545453,"zigzagging":0,"honeypot":0,"survey":"nfc10","trial_type":"survey-template","trial_index":3,"time_elapsed":106444,"internal_node_id":"0.0-3.0","experiment":"validation","task_version":"2.0","jspsych_version":"6.3.1","infrequency":0},{"rt":39175.90000000596,"response":{"Q5":5,"Q8":0,"Q1":1,"Q0":0,"Q3":5,"Q7":4,"Q6":0,"Q4":4,"Q2":4},"question_order":[5,8,1,0,3,7,6,4,2],"survey":"sns","trial_type":"survey-likert","trial_index":4,"time_elapsed":145625,"internal_node_id":"0.0-4.0","experiment":"validation","task_version":"2.0","jspsych_version":"6.3.1","infrequency":0},{"value":0,"trial_type":"call-function","trial_index":5,"time_elapsed":145627,"internal_node_id":"0.0-5.0","experiment":"validation","task_version":"2.0","jspsych_version":"6.3.1","interactions":"[]"}]