[{"view_history":[{"page_index":0,"viewing_time":4342}],"rt":4342.899999999907,"trial_type":"instructions","trial_index":0,"time_elapsed":4358,"internal_node_id":"0.0-0.0","experiment":"validation","task_version":"2.0","jspsych_version":"6.3.1"},{"rt":15855.099999999627,"responses":{"age":"64","gender-categorical":"Female","gender-free-response":"","ethnicity":"Not Hispanic or Latino","race":["White"],"education":"High school"},"survey":"demographics","trial_type":"survey-demo","trial_index":1,"time_elapsed":20217,"internal_node_id":"0.0-1.0","experiment":"validation","task_version":"2.0","jspsych_version":"6.3.1"},{"responses":{"Q06":"4","Q05":"4","Q07":"4","Q08":"4","Q01":"4","Q03":"4","Q02":"4","Q09":"4","Q04":"4"},"rt":49901.39999999991,"item_order":[5,4,6,7,0,2,1,8,3],"radio_events":[7795.699999999721,9181.099999999627,11797.099999999627,17369.099999999627,20269.399999999907,26663.19999999972,33384.69999999972,34635.299999999814,36733.09999999963,40099.09999999963,45581.09999999963,47399.19999999972,48809.39999999991],"key_events":[],"mouse_events":[7795.699999999721,9181.099999999627,11797.099999999627,13901.399999999907,15719.599999999627,17369.099999999627,20269.399999999907,23233.099999999627,25828.69999999972,26663.19999999972,30333.5,32697.69999999972,33384.69999999972,34635.299999999814,36093.299999999814,36733.09999999963,37919.39999999991,40099.09999999963,45581.09999999963,47399.19999999972,48809.39999999991,49899.19999999972],"straightlining":0.8888888888888888,"zigzagging":0.25,"honeypot":0,"survey":"pcf","trial_type":"survey-template","trial_index":2,"time_elapsed":70125,"internal_node_id":"0.0-2.0","experiment":"validation","task_version":"2.0","jspsych_version":"6.3.1","infrequency":0},{"responses":{"Q03":"1","Q01":"1","Q10":"1","Q06":"0","Q09":"0","Q02":"0","Q05":"3","Q07":"1","Q11":"0","Q08":"1","Q04":"1"},"rt":105315.40000000037,"item_order":[2,0,9,5,8,1,4,6,10,7,3],"radio_events":[3731.8000000002794,11609.600000000093,15591.5,16695.5,19737.600000000093,27257.400000000373,70437.5,77883.6000000001,83165.40000000037,89847.6000000001,98607.40000000037,103533.6000000001],"key_events":[],"mouse_events":[3731.8000000002794,5269.300000000279,7843.600000000093,11609.600000000093,13804.100000000093,15591.5,16695.5,19737.600000000093,27257.400000000373,66087.6000000001,69423.5,70437.5,77883.6000000001,81942.6000000001,82549,83165.40000000037,84865.70000000019,89847.6000000001,98179.80000000028,98607.40000000037,102973.20000000019,103533.6000000001,105313.6000000001],"straightlining":0.45454545454545453,"zigzagging":0.4,"honeypot":0,"survey":"nfc10","trial_type":"survey-template","trial_index":3,"time_elapsed":175445,"internal_node_id":"0.0-3.0","experiment":"validation","task_version":"2.0","jspsych_version":"6.3.1","infrequency":0},{"rt":47910.299999999814,"response":{"Q4":2,"Q2":5,"Q8":0,"Q7":2,"Q6":2,"Q3":5,"Q5":2,"Q1":3,"Q0":2},"question_order":[4,2,8,7,6,3,5,1,0],"survey":"sns","trial_type":"survey-likert","trial_index":4,"time_elapsed":223362,"internal_node_id":"0.0-4.0","experiment":"validation","task_version":"2.0","jspsych_version":"6.3.1","infrequency":0},{"value":0,"trial_type":"call-function","trial_index":5,"time_elapsed":223365,"internal_node_id":"0.0-5.0","experiment":"validation","task_version":"2.0","jspsych_version":"6.3.1","interactions":"[]"}]