[{"success":true,"timeout":false,"failed_images":[],"failed_audio":[],"failed_video":[],"trial_type":"preload","trial_index":0,"time_elapsed":2629,"internal_node_id":"0.0-0.0","experiment":"validation","task_version":"2.0","jspsych_version":"6.3.1"},{"success":true,"trial_type":"fullscreen","trial_index":1,"time_elapsed":11853,"internal_node_id":"0.0-1.0","experiment":"validation","task_version":"2.0","jspsych_version":"6.3.1"},{"view_history":[{"page_index":0,"viewing_time":406947},{"page_index":1,"viewing_time":340650}],"rt":747597,"trial_type":"instructions","trial_index":2,"time_elapsed":759452,"internal_node_id":"0.0-2.0","experiment":"validation","task_version":"2.0","jspsych_version":"6.3.1"},{"min_width":700,"min_height":600,"inner_width":1536,"inner_height":703,"trial_type":"screen-check","trial_index":3,"time_elapsed":759452,"internal_node_id":"0.0-3.0-0.0-0.0","experiment":"validation","task_version":"2.0","jspsych_version":"6.3.1"},{"rt":null,"stimulus":"<div style=\"font-size:24px;\">Loading puzzle:<br>1 / 9</div>","response":null,"trial_type":"html-keyboard-response","trial_index":4,"time_elapsed":760658,"internal_node_id":"0.0-3.0-0.0-1.0","experiment":"validation","task_version":"2.0","jspsych_version":"6.3.1"},{"stimulus":"../static/img/rpm/a11.png","choice_order":[4,5,2,1,3,0],"correct":4,"choice":5,"accuracy":0,"rt":6193,"screen_resolution":[1536,703],"minimum_resolution":1,"all_loaded":true,"test_form":"a","trial_type":"rpm","trial_index":5,"time_elapsed":766851,"internal_node_id":"0.0-3.0-0.0-2.0","experiment":"validation","task_version":"2.0","jspsych_version":"6.3.1"},{"min_width":700,"min_height":600,"inner_width":1536,"inner_height":703,"trial_type":"screen-check","trial_index":6,"time_elapsed":766852,"internal_node_id":"0.0-3.0-0.0-0.1","experiment":"validation","task_version":"2.0","jspsych_version":"6.3.1"},{"rt":null,"stimulus":"<div style=\"font-size:24px;\">Loading puzzle:<br>2 / 9</div>","response":null,"trial_type":"html-keyboard-response","trial_index":7,"time_elapsed":768055,"internal_node_id":"0.0-3.0-0.0-1.1","experiment":"validation","task_version":"2.0","jspsych_version":"6.3.1"},{"stimulus":"../static/img/rpm/a24.png","choice_order":[0,1,3,2,4,5],"correct":4,"choice":4,"accuracy":1,"rt":10919,"screen_resolution":[1536,703],"minimum_resolution":1,"all_loaded":true,"test_form":"a","trial_type":"rpm","trial_index":8,"time_elapsed":778975,"internal_node_id":"0.0-3.0-0.0-2.1","experiment":"validation","task_version":"2.0","jspsych_version":"6.3.1"},{"min_width":700,"min_height":600,"inner_width":1536,"inner_height":703,"trial_type":"screen-check","trial_index":9,"time_elapsed":778975,"internal_node_id":"0.0-3.0-0.0-0.2","experiment":"validation","task_version":"2.0","jspsych_version":"6.3.1"},{"rt":null,"stimulus":"<div style=\"font-size:24px;\">Loading puzzle:<br>3 / 9</div>","response":null,"trial_type":"html-keyboard-response","trial_index":10,"time_elapsed":780188,"internal_node_id":"0.0-3.0-0.0-1.2","experiment":"validation","task_version":"2.0","jspsych_version":"6.3.1"},{"stimulus":"../static/img/rpm/a28.png","choice_order":[4,7,2,3,6,0,1,5],"correct":7,"choice":2,"accuracy":0,"rt":12325,"screen_resolution":[1536,703],"minimum_resolution":1,"all_loaded":true,"test_form":"a","trial_type":"rpm","trial_index":11,"time_elapsed":792513,"internal_node_id":"0.0-3.0-0.0-2.2","experiment":"validation","task_version":"2.0","jspsych_version":"6.3.1"},{"min_width":700,"min_height":600,"inner_width":1536,"inner_height":703,"trial_type":"screen-check","trial_index":12,"time_elapsed":792513,"internal_node_id":"0.0-3.0-0.0-0.3","experiment":"validation","task_version":"2.0","jspsych_version":"6.3.1"},{"rt":null,"stimulus":"<div style=\"font-size:24px;\">Loading puzzle:<br>4 / 9</div>","response":null,"trial_type":"html-keyboard-response","trial_index":13,"time_elapsed":793719,"internal_node_id":"0.0-3.0-0.0-1.3","experiment":"validation","task_version":"2.0","jspsych_version":"6.3.1"},{"stimulus":"../static/img/rpm/a36.png","choice_order":[5,7,6,0,3,4,2,1],"correct":1,"choice":2,"accuracy":0,"rt":15631,"screen_resolution":[1536,703],"minimum_resolution":1,"all_loaded":true,"test_form":"a","trial_type":"rpm","trial_index":14,"time_elapsed":809351,"internal_node_id":"0.0-3.0-0.0-2.3","experiment":"validation","task_version":"2.0","jspsych_version":"6.3.1"},{"min_width":700,"min_height":600,"inner_width":1536,"inner_height":703,"trial_type":"screen-check","trial_index":15,"time_elapsed":809351,"internal_node_id":"0.0-3.0-0.0-0.4","experiment":"validation","task_version":"2.0","jspsych_version":"6.3.1"},{"rt":null,"stimulus":"<div style=\"font-size:24px;\">Loading puzzle:<br>5 / 9</div>","response":null,"trial_type":"html-keyboard-response","trial_index":16,"time_elapsed":810563,"internal_node_id":"0.0-3.0-0.0-1.4","experiment":"validation","task_version":"2.0","jspsych_version":"6.3.1"},{"stimulus":"../static/img/rpm/a43.png","choice_order":[4,2,6,3,1,5,7,0],"correct":4,"choice":3,"accuracy":0,"rt":22404,"screen_resolution":[1536,703],"minimum_resolution":1,"all_loaded":true,"test_form":"a","trial_type":"rpm","trial_index":17,"time_elapsed":832967,"internal_node_id":"0.0-3.0-0.0-2.4","experiment":"validation","task_version":"2.0","jspsych_version":"6.3.1"},{"min_width":700,"min_height":600,"inner_width":1536,"inner_height":703,"trial_type":"screen-check","trial_index":18,"time_elapsed":832968,"internal_node_id":"0.0-3.0-0.0-0.5","experiment":"validation","task_version":"2.0","jspsych_version":"6.3.1"},{"rt":null,"stimulus":"<div style=\"font-size:24px;\">Loading puzzle:<br>6 / 9</div>","response":null,"trial_type":"html-keyboard-response","trial_index":19,"time_elapsed":834169,"internal_node_id":"0.0-3.0-0.0-1.5","experiment":"validation","task_version":"2.0","jspsych_version":"6.3.1"},{"stimulus":"../static/img/rpm/a48.png","choice_order":[6,4,2,0,7,1,5,3],"correct":5,"choice":3,"accuracy":0,"rt":19056,"screen_resolution":[1536,703],"minimum_resolution":1,"all_loaded":true,"test_form":"a","trial_type":"rpm","trial_index":20,"time_elapsed":853225,"internal_node_id":"0.0-3.0-0.0-2.5","experiment":"validation","task_version":"2.0","jspsych_version":"6.3.1"},{"min_width":700,"min_height":600,"inner_width":1536,"inner_height":703,"trial_type":"screen-check","trial_index":21,"time_elapsed":853226,"internal_node_id":"0.0-3.0-0.0-0.6","experiment":"validation","task_version":"2.0","jspsych_version":"6.3.1"},{"rt":null,"stimulus":"<div style=\"font-size:24px;\">Loading puzzle:<br>7 / 9</div>","response":null,"trial_type":"html-keyboard-response","trial_index":22,"time_elapsed":854436,"internal_node_id":"0.0-3.0-0.0-1.6","experiment":"validation","task_version":"2.0","jspsych_version":"6.3.1"},{"stimulus":"../static/img/rpm/a49.png","choice_order":[0,4,2,6,5,7,3,1],"correct":6,"choice":6,"accuracy":1,"rt":22615,"screen_resolution":[1536,703],"minimum_resolution":1,"all_loaded":true,"test_form":"a","trial_type":"rpm","trial_index":23,"time_elapsed":877053,"internal_node_id":"0.0-3.0-0.0-2.6","experiment":"validation","task_version":"2.0","jspsych_version":"6.3.1"},{"min_width":700,"min_height":600,"inner_width":1536,"inner_height":703,"trial_type":"screen-check","trial_index":24,"time_elapsed":877053,"internal_node_id":"0.0-3.0-0.0-0.7","experiment":"validation","task_version":"2.0","jspsych_version":"6.3.1"},{"rt":null,"stimulus":"<div style=\"font-size:24px;\">Loading puzzle:<br>8 / 9</div>","response":null,"trial_type":"html-keyboard-response","trial_index":25,"time_elapsed":878267,"internal_node_id":"0.0-3.0-0.0-1.7","experiment":"validation","task_version":"2.0","jspsych_version":"6.3.1"},{"stimulus":"../static/img/rpm/a53.png","choice_order":[3,4,2,6,1,7,5,0],"correct":0,"choice":1,"accuracy":0,"rt":22376,"screen_resolution":[1536,703],"minimum_resolution":1,"all_loaded":true,"test_form":"a","trial_type":"rpm","trial_index":26,"time_elapsed":900643,"internal_node_id":"0.0-3.0-0.0-2.7","experiment":"validation","task_version":"2.0","jspsych_version":"6.3.1"},{"min_width":700,"min_height":600,"inner_width":1536,"inner_height":703,"trial_type":"screen-check","trial_index":27,"time_elapsed":900643,"internal_node_id":"0.0-3.0-0.0-0.8","experiment":"validation","task_version":"2.0","jspsych_version":"6.3.1"},{"rt":null,"stimulus":"<div style=\"font-size:24px;\">Loading puzzle:<br>9 / 9</div>","response":null,"trial_type":"html-keyboard-response","trial_index":28,"time_elapsed":901849,"internal_node_id":"0.0-3.0-0.0-1.8","experiment":"validation","task_version":"2.0","jspsych_version":"6.3.1"},{"stimulus":"../static/img/rpm/a55.png","choice_order":[0,2,3,6,4,7,1,5],"correct":1,"choice":null,"accuracy":null,"rt":null,"screen_resolution":[1536,703],"minimum_resolution":1,"all_loaded":true,"test_form":"a","trial_type":"rpm","trial_index":29,"time_elapsed":931866,"internal_node_id":"0.0-3.0-0.0-2.8","experiment":"validation","task_version":"2.0","jspsych_version":"6.3.1"},{"value":{"rpm_raw":2,"rpm_err":7,"rpm_adj":25.20100135733034,"rpm_rt":131519},"trial_type":"call-function","trial_index":30,"time_elapsed":931867,"internal_node_id":"0.0-3.0-1.0","experiment":"validation","task_version":"2.0","jspsych_version":"6.3.1"},{"view_history":[{"page_index":0,"viewing_time":2776}],"rt":2776,"trial_type":"instructions","trial_index":31,"time_elapsed":934643,"internal_node_id":"0.0-4.0","experiment":"validation","task_version":"2.0","jspsych_version":"6.3.1","interactions":"[{\"event\":\"focus\",\"trial\":0,\"time\":0},{\"event\":\"blur\",\"trial\":0,\"time\":1725},{\"event\":\"focus\",\"trial\":1,\"time\":10715},{\"event\":\"fullscreenenter\",\"trial\":1,\"time\":11059},{\"event\":\"blur\",\"trial\":2,\"time\":14329},{\"event\":\"focus\",\"trial\":2,\"time\":28731},{\"event\":\"fullscreenexit\",\"trial\":2,\"time\":29924},{\"event\":\"blur\",\"trial\":2,\"time\":31173},{\"event\":\"focus\",\"trial\":2,\"time\":131142},{\"event\":\"blur\",\"trial\":2,\"time\":133139},{\"event\":\"focus\",\"trial\":2,\"time\":161095},{\"event\":\"blur\",\"trial\":2,\"time\":163331},{\"event\":\"focus\",\"trial\":2,\"time\":164270},{\"event\":\"blur\",\"trial\":2,\"time\":165097},{\"event\":\"focus\",\"trial\":2,\"time\":167165},{\"event\":\"blur\",\"trial\":2,\"time\":314426},{\"event\":\"focus\",\"trial\":2,\"time\":320503},{\"event\":\"blur\",\"trial\":2,\"time\":340086},{\"event\":\"focus\",\"trial\":2,\"time\":344190},{\"event\":\"blur\",\"trial\":2,\"time\":350088},{\"event\":\"focus\",\"trial\":2,\"time\":386480},{\"event\":\"blur\",\"trial\":2,\"time\":386482},{\"event\":\"focus\",\"trial\":2,\"time\":387527},{\"event\":\"blur\",\"trial\":2,\"time\":429119},{\"event\":\"focus\",\"trial\":2,\"time\":444686},{\"event\":\"blur\",\"trial\":2,\"time\":456087},{\"event\":\"focus\",\"trial\":2,\"time\":750455},{\"event\":\"blur\",\"trial\":2,\"time\":752032},{\"event\":\"focus\",\"trial\":2,\"time\":753352},{\"event\":\"blur\",\"trial\":2,\"time\":754170},{\"event\":\"focus\",\"trial\":2,\"time\":756929}]"}]