[{"view_history":[{"page_index":0,"viewing_time":1942.800000011921}],"rt":1943.199999988079,"trial_type":"instructions","trial_index":0,"time_elapsed":1952,"internal_node_id":"0.0-0.0","experiment":"validation","task_version":"2.0","jspsych_version":"6.3.1"},{"rt":17077.5,"responses":{"age":"48","gender-categorical":"Female","gender-free-response":"","ethnicity":"Not Hispanic or Latino","race":["White"],"education":"Bachelor degree"},"survey":"demographics","trial_type":"survey-demo","trial_index":1,"time_elapsed":19032,"internal_node_id":"0.0-1.0","experiment":"validation","task_version":"2.0","jspsych_version":"6.3.1"},{"responses":{"Q05":"3","Q02":"3","Q08":"3","Q04":"3","Q06":"3","Q07":"3","Q09":"4","Q01":"3","Q03":"3"},"rt":31404,"item_order":[4,1,7,3,5,6,8,0,2],"radio_events":[4796.800000011921,5559.199999988079,9266.599999964237,13128.199999988079,16293.5,20814.399999976158,22052.5,26646.599999964237,30112.5],"key_events":[],"mouse_events":[2873.300000011921,3427,4796.800000011921,5559.199999988079,7149.300000011921,9266.599999964237,10863.699999988079,13128.199999988079,16293.5,18623.69999998808,19758.899999976158,20814.399999976158,21496.69999998808,22052.5,26646.599999964237,30112.5,31401.80000001192],"straightlining":0.8888888888888888,"zigzagging":0,"honeypot":0,"survey":"pcf","trial_type":"survey-template","trial_index":2,"time_elapsed":50445,"internal_node_id":"0.0-2.0","experiment":"validation","task_version":"2.0","jspsych_version":"6.3.1","infrequency":0},{"rt":79638.59999996424,"response":{"Q3":5,"Q0":5,"Q8":0,"Q5":1,"Q4":3,"Q7":5,"Q1":5,"Q6":2,"Q2":5},"question_order":[3,0,8,5,4,7,1,6,2],"survey":"sns","trial_type":"survey-likert","trial_index":3,"time_elapsed":130089,"internal_node_id":"0.0-3.0","experiment":"validation","task_version":"2.0","jspsych_version":"6.3.1","infrequency":0},{"responses":{"Q03":"4","Q04":"4","Q11":"0","Q01":"4","Q05":"4","Q10":"4","Q09":"4","Q06":"4","Q08":"4","Q02":"4","Q07":"4"},"rt":92572.30000001192,"item_order":[2,3,10,0,4,9,8,5,7,1,6],"radio_events":[5305.300000011921,13151.900000035763,16771.19999998808,19577.69999998808,24794.30000001192,30083.600000023842,34911.40000003576,37600.19999998808,41440.10000002384,87439.69999998808,90123.19999998808],"key_events":[],"mouse_events":[3349.600000023842,5305.300000011921,7767.300000011921,9144.699999988079,13151.900000035763,16771.19999998808,19577.69999998808,23642.900000035763,24794.30000001192,30083.600000023842,34911.40000003576,37600.19999998808,41440.10000002384,54647.69999998808,59386.40000003576,87439.69999998808,90123.19999998808,92570.19999998808],"straightlining":0.6363636363636364,"zigzagging":0.3,"honeypot":0,"survey":"nfc10","trial_type":"survey-template","trial_index":4,"time_elapsed":222666,"internal_node_id":"0.0-4.0","experiment":"validation","task_version":"2.0","jspsych_version":"6.3.1","infrequency":0},{"value":0,"trial_type":"call-function","trial_index":5,"time_elapsed":222672,"internal_node_id":"0.0-5.0","experiment":"validation","task_version":"2.0","jspsych_version":"6.3.1","interactions":"[]"}]