[{"view_history":[{"page_index":0,"viewing_time":26192.699999928474}],"rt":26193.399999976158,"trial_type":"instructions","trial_index":0,"time_elapsed":26202,"internal_node_id":"0.0-0.0","experiment":"validation","task_version":"2.0","jspsych_version":"6.3.1"},{"rt":13634.399999976158,"responses":{"age":"28","gender-categorical":"Male","gender-free-response":"","ethnicity":"Not Hispanic or Latino","race":["Asian"],"education":"Some college"},"survey":"demographics","trial_type":"survey-demo","trial_index":1,"time_elapsed":39839,"internal_node_id":"0.0-1.0","experiment":"validation","task_version":"2.0","jspsych_version":"6.3.1"},{"rt":23199.299999952316,"response":{"Q2":4,"Q8":0,"Q4":3,"Q6":1,"Q1":4,"Q3":4,"Q0":3,"Q5":4,"Q7":4},"question_order":[2,8,4,6,1,3,0,5,7],"survey":"sns","trial_type":"survey-likert","trial_index":2,"time_elapsed":63043,"internal_node_id":"0.0-2.0","experiment":"validation","task_version":"2.0","jspsych_version":"6.3.1","infrequency":0},{"responses":{"Q03":"2","Q05":"2","Q04":"2","Q11":"0","Q06":"2","Q01":"2","Q02":"2","Q07":"2","Q08":"3","Q10":"2","Q09":"2"},"rt":54430.5,"item_order":[2,4,3,10,5,0,1,6,7,9,8],"radio_events":[4167.199999928474,9333.699999928474,10451.699999928474,11547.199999928474,13736.899999976158,14739.599999904633,14987.699999928474,42335.699999928474,42783.199999928474,43253,44803,45705.39999997616,52624.89999997616,53449.199999928474],"key_events":[],"mouse_events":[4167.199999928474,5995.599999904633,6965.699999928474,7800.399999976158,8401,9049.299999952316,9333.699999928474,10188.899999976158,10451.699999928474,10799.099999904633,11547.199999928474,13736.899999976158,14353.199999928474,14739.599999904633,14987.699999928474,39367.39999997616,40261.199999928474,40755.799999952316,41510.799999952316,42096.89999997616,42335.699999928474,42783.199999928474,43253,43901.799999952316,44241.09999990463,44548.89999997616,44803,45374.799999952316,45705.39999997616,52624.89999997616,53449.199999928474,54429.199999928474],"straightlining":0.8181818181818182,"zigzagging":0.2,"honeypot":0,"survey":"nfc10","trial_type":"survey-template","trial_index":3,"time_elapsed":117478,"internal_node_id":"0.0-3.0","experiment":"validation","task_version":"2.0","jspsych_version":"6.3.1","infrequency":0},{"responses":{"Q08":"3","Q07":"2","Q05":"2","Q01":"2","Q06":"2","Q03":"1","Q02":"2","Q09":"4","Q04":"1"},"rt":22594.100000023842,"item_order":[7,6,4,0,5,2,1,8,3],"radio_events":[4640.200000047684,5202.299999952316,5764.100000023842,8601.700000047684,10408.100000023842,13484,14942.200000047684,16645.600000023842,18265.5,21906.200000047684],"key_events":[],"mouse_events":[4640.200000047684,5202.299999952316,5764.100000023842,8047.5,8601.700000047684,10408.100000023842,13037.600000023842,13484,14294.100000023842,14942.200000047684,16291.399999976158,16645.600000023842,18265.5,20456.399999976158,21211.5,21906.200000047684,22299.600000023842,22592.200000047684],"straightlining":0.5555555555555556,"zigzagging":0.5,"honeypot":0,"survey":"pcf","trial_type":"survey-template","trial_index":4,"time_elapsed":140075,"internal_node_id":"0.0-4.0","experiment":"validation","task_version":"2.0","jspsych_version":"6.3.1","infrequency":0},{"value":0,"trial_type":"call-function","trial_index":5,"time_elapsed":140077,"internal_node_id":"0.0-5.0","experiment":"validation","task_version":"2.0","jspsych_version":"6.3.1","interactions":"[{\"event\":\"blur\",\"trial\":0,\"time\":10236},{\"event\":\"focus\",\"trial\":0,\"time\":10954},{\"event\":\"blur\",\"trial\":0,\"time\":13103},{\"event\":\"focus\",\"trial\":0,\"time\":24347}]"}]