[{"view_history":[{"page_index":0,"viewing_time":2568.5}],"rt":2568.800000011921,"trial_type":"instructions","trial_index":0,"time_elapsed":2576,"internal_node_id":"0.0-0.0","experiment":"validation","task_version":"2.0","jspsych_version":"6.3.1"},{"rt":6531.100000023842,"responses":{"age":"32","gender-categorical":"Male","gender-free-response":"","ethnicity":"Not Hispanic or Latino","race":["White"],"education":"Bachelor degree"},"survey":"demographics","trial_type":"survey-demo","trial_index":1,"time_elapsed":9109,"internal_node_id":"0.0-1.0","experiment":"validation","task_version":"2.0","jspsych_version":"6.3.1"},{"responses":{"Q08":"1","Q09":"0","Q04":"1","Q10":"2","Q02":"1","Q06":"3","Q01":"1","Q11":"0","Q07":"3","Q05":"2","Q03":"1"},"rt":22176.600000023842,"item_order":[7,8,3,9,1,5,0,10,6,4,2],"radio_events":[2439.7000000476837,5526.700000047684,6879.5,8744.400000035763,9523.300000011921,11198.5,12744.5,15050.400000035763,19506.400000035763,20442.5,21782.200000047684],"key_events":[],"mouse_events":[2439.7000000476837,3569.7000000476837,4436.800000011921,5526.700000047684,6879.5,8370.900000035763,8744.400000035763,9523.300000011921,11198.5,12744.5,15050.400000035763,18767.80000001192,19506.400000035763,20442.5,20954.400000035763,21782.200000047684,22175.5],"straightlining":0.36363636363636365,"zigzagging":0.6,"honeypot":0,"survey":"nfc10","trial_type":"survey-template","trial_index":2,"time_elapsed":31289,"internal_node_id":"0.0-2.0","experiment":"validation","task_version":"2.0","jspsych_version":"6.3.1","infrequency":0},{"rt":81097.10000002384,"response":{"Q7":4,"Q8":0,"Q2":5,"Q4":4,"Q0":3,"Q6":3,"Q1":4,"Q3":3,"Q5":3},"question_order":[7,8,2,4,0,6,1,3,5],"survey":"sns","trial_type":"survey-likert","trial_index":3,"time_elapsed":112390,"internal_node_id":"0.0-3.0","experiment":"validation","task_version":"2.0","jspsych_version":"6.3.1","infrequency":0},{"responses":{"Q07":"3","Q08":"3","Q04":"3","Q02":"4","Q01":"4","Q09":"4","Q03":"4","Q05":"4","Q06":"3"},"rt":21765.400000035763,"item_order":[6,7,3,1,0,8,2,4,5],"radio_events":[4379.700000047684,4825.700000047684,8096.600000023842,8830.400000035763,9523.600000023842,12448.5,16653.5,16856.30000001192,17265.5,17917.100000023842,20978.5],"key_events":[],"mouse_events":[3143.800000011921,3794.5,4379.700000047684,4825.700000047684,7618.900000035763,8096.600000023842,8606.700000047684,8830.400000035763,9213.700000047684,9523.600000023842,10147.700000047684,10850.800000011921,12448.5,15871.5,16220.600000023842,16653.5,16856.30000001192,17265.5,17917.100000023842,20978.5,21764.600000023842],"straightlining":0.4444444444444444,"zigzagging":0.5,"honeypot":0,"survey":"pcf","trial_type":"survey-template","trial_index":4,"time_elapsed":134158,"internal_node_id":"0.0-4.0","experiment":"validation","task_version":"2.0","jspsych_version":"6.3.1","infrequency":0},{"value":0,"trial_type":"call-function","trial_index":5,"time_elapsed":134160,"internal_node_id":"0.0-5.0","experiment":"validation","task_version":"2.0","jspsych_version":"6.3.1","interactions":"[]"}]