[{"view_history":[{"page_index":0,"viewing_time":20165.400000095367}],"rt":20167.5,"trial_type":"instructions","trial_index":0,"time_elapsed":20174,"internal_node_id":"0.0-0.0","experiment":"validation","task_version":"2.0","jspsych_version":"6.3.1"},{"rt":19712.799999952316,"responses":{"age":"29","gender-categorical":"Male","gender-free-response":"","ethnicity":"Not Hispanic or Latino","race":["American Indian/Alaska Native","White"],"education":"Some college"},"survey":"demographics","trial_type":"survey-demo","trial_index":1,"time_elapsed":39894,"internal_node_id":"0.0-1.0","experiment":"validation","task_version":"2.0","jspsych_version":"6.3.1"},{"rt":54412.700000047684,"response":{"Q1":2,"Q8":0,"Q4":3,"Q2":2,"Q6":1,"Q3":1,"Q7":3,"Q5":4,"Q0":2},"question_order":[1,8,4,2,6,3,7,5,0],"survey":"sns","trial_type":"survey-likert","trial_index":2,"time_elapsed":94320,"internal_node_id":"0.0-2.0","experiment":"validation","task_version":"2.0","jspsych_version":"6.3.1","infrequency":0},{"responses":{"Q08":"4","Q04":"3","Q06":"2","Q01":"3","Q03":"2","Q02":"3","Q05":"2","Q07":"3","Q09":"4"},"rt":41585.199999928474,"item_order":[7,3,5,0,2,1,4,6,8],"radio_events":[6872.399999976158,10903.299999952316,18225.299999952316,19443.799999952316,22148.199999928474,25998.699999928474,30023,32924.199999928474,34628,35200.10000002384,38852.60000002384,39413.5],"key_events":[],"mouse_events":[6872.399999976158,10903.299999952316,18225.299999952316,19443.799999952316,22148.199999928474,25998.699999928474,30023,32190.600000023842,32924.199999928474,34628,35200.10000002384,38852.60000002384,39413.5,41577.39999997616],"straightlining":0.4444444444444444,"zigzagging":0.875,"honeypot":0,"survey":"pcf","trial_type":"survey-template","trial_index":3,"time_elapsed":135917,"internal_node_id":"0.0-3.0","experiment":"validation","task_version":"2.0","jspsych_version":"6.3.1","infrequency":0},{"responses":{"Q05":"3","Q08":"3","Q09":"2","Q06":"1","Q01":"3","Q02":"3","Q07":"3","Q10":"3","Q03":"3","Q11":"0","Q04":"4"},"rt":51968,"item_order":[4,7,8,5,0,1,6,9,2,10,3],"radio_events":[5575.700000047684,10202.700000047684,10915.800000071526,11640.800000071526,14328,15843.899999976158,20086.700000047684,23234.300000071526,24470.800000071526,27714.200000047684,33203.10000002384,36142.200000047684,40451.800000071526,46461.200000047684,50380.200000047684],"key_events":[],"mouse_events":[5575.700000047684,10202.700000047684,10915.800000071526,11640.800000071526,14328,15843.899999976158,20086.700000047684,23234.300000071526,24470.800000071526,27714.200000047684,33203.10000002384,36142.200000047684,39832.39999997616,40451.800000071526,46461.200000047684,50380.200000047684,51962.39999997616],"straightlining":0.45454545454545453,"zigzagging":0.3,"honeypot":0,"survey":"nfc10","trial_type":"survey-template","trial_index":4,"time_elapsed":187897,"internal_node_id":"0.0-4.0","experiment":"validation","task_version":"2.0","jspsych_version":"6.3.1","infrequency":0},{"value":0,"trial_type":"call-function","trial_index":5,"time_elapsed":187902,"internal_node_id":"0.0-5.0","experiment":"validation","task_version":"2.0","jspsych_version":"6.3.1","interactions":"[]"}]