[{"view_history":[{"page_index":0,"viewing_time":2179.2000000178814}],"rt":2179.4000000059605,"trial_type":"instructions","trial_index":0,"time_elapsed":2185,"internal_node_id":"0.0-0.0","experiment":"validation","task_version":"2.0","jspsych_version":"6.3.1"},{"rt":9289,"responses":{"age":"29","gender-categorical":"Male","gender-free-response":"","ethnicity":"Not Hispanic or Latino","race":["White"],"education":"High school"},"survey":"demographics","trial_type":"survey-demo","trial_index":1,"time_elapsed":11475,"internal_node_id":"0.0-1.0","experiment":"validation","task_version":"2.0","jspsych_version":"6.3.1"},{"responses":{"Q07":"2","Q02":"2","Q03":"2","Q04":"3","Q01":"2","Q09":"4","Q06":"2","Q08":"3","Q05":"1"},"rt":36015.09999999404,"item_order":[6,1,2,3,0,8,5,7,4],"radio_events":[3367.300000011921,4674.199999988079,7954.5,12615.199999988079,16179,22954.69999998808,28896.09999999404,30900.30000001192,35228.19999998808],"key_events":[],"mouse_events":[3367.300000011921,4674.199999988079,7175.199999988079,7954.5,11721.5,12615.199999988079,14531.300000011921,15284.199999988079,15754.09999999404,16179,22954.69999998808,26929.30000001192,27915.19999998808,28896.09999999404,29918.19999998808,30900.30000001192,31295.30000001192,32473.09999999404,35228.19999998808,36014.40000000596],"straightlining":0.5555555555555556,"zigzagging":0.375,"honeypot":0,"survey":"pcf","trial_type":"survey-template","trial_index":2,"time_elapsed":47493,"internal_node_id":"0.0-2.0","experiment":"validation","task_version":"2.0","jspsych_version":"6.3.1","infrequency":0},{"responses":{"Q08":"4","Q06":"1","Q11":"0","Q05":"3","Q01":"3","Q07":"4","Q02":"1","Q03":"4","Q10":"3","Q09":"3","Q04":"3"},"rt":43704.19999998808,"item_order":[7,5,10,4,0,6,1,2,9,8,3],"radio_events":[5104.4000000059605,9075.5,12334.40000000596,16501.40000000596,20179.29999998212,23408.5,29523.40000000596,32094.69999998808,37891.40000000596,39658.69999998808,42956.40000000596],"key_events":[],"mouse_events":[5104.4000000059605,9075.5,12334.40000000596,16501.40000000596,20179.29999998212,23408.5,29523.40000000596,31237.5,31776.29999998212,32094.69999998808,37891.40000000596,39658.69999998808,42956.40000000596,43703.5],"straightlining":0.36363636363636365,"zigzagging":0.4,"honeypot":0,"survey":"nfc10","trial_type":"survey-template","trial_index":3,"time_elapsed":91199,"internal_node_id":"0.0-3.0","experiment":"validation","task_version":"2.0","jspsych_version":"6.3.1","infrequency":0},{"rt":36168.79999998212,"response":{"Q3":1,"Q6":5,"Q1":1,"Q0":0,"Q8":0,"Q5":0,"Q2":3,"Q4":1,"Q7":1},"question_order":[3,6,1,0,8,5,2,4,7],"survey":"sns","trial_type":"survey-likert","trial_index":4,"time_elapsed":127370,"internal_node_id":"0.0-4.0","experiment":"validation","task_version":"2.0","jspsych_version":"6.3.1","infrequency":0},{"value":0,"trial_type":"call-function","trial_index":5,"time_elapsed":127371,"internal_node_id":"0.0-5.0","experiment":"validation","task_version":"2.0","jspsych_version":"6.3.1","interactions":"[]"}]