[{"view_history":[{"page_index":0,"viewing_time":7988.099999964237}],"rt":7988.599999964237,"trial_type":"instructions","trial_index":0,"time_elapsed":7999,"internal_node_id":"0.0-0.0","experiment":"validation","task_version":"2.0","jspsych_version":"6.3.1"},{"rt":12388.900000035763,"responses":{"age":"30","gender-categorical":"Male","gender-free-response":"","ethnicity":"Not Hispanic or Latino","race":["White"],"education":"Associate degree"},"survey":"demographics","trial_type":"survey-demo","trial_index":1,"time_elapsed":20390,"internal_node_id":"0.0-1.0","experiment":"validation","task_version":"2.0","jspsych_version":"6.3.1"},{"responses":{"Q04":"3","Q01":"3","Q09":"4","Q06":"3","Q03":"3","Q07":"3","Q08":"4","Q05":"3","Q02":"3"},"rt":34334.200000047684,"item_order":[3,0,8,5,2,6,7,4,1],"radio_events":[6127.400000035763,11181,12571.5,16989.100000023842,20642.5,22338.100000023842,23063.5,27299.100000023842,27642.600000023842,31434.100000023842,33064.40000003576],"key_events":[],"mouse_events":[6127.400000035763,6935.200000047684,8039,11181,12571.5,16989.100000023842,20642.5,22338.100000023842,23063.5,23917.400000035763,25864.5,27299.100000023842,27642.600000023842,30497.100000023842,31434.100000023842,33064.40000003576,34333.40000003576],"straightlining":0.7777777777777778,"zigzagging":0.25,"honeypot":0,"survey":"pcf","trial_type":"survey-template","trial_index":2,"time_elapsed":54727,"internal_node_id":"0.0-2.0","experiment":"validation","task_version":"2.0","jspsych_version":"6.3.1","infrequency":0},{"rt":53115.30000001192,"response":{"Q6":0,"Q4":5,"Q0":5,"Q3":4,"Q5":5,"Q1":5,"Q7":5,"Q2":5,"Q8":0},"question_order":[6,4,0,3,5,1,7,2,8],"survey":"sns","trial_type":"survey-likert","trial_index":3,"time_elapsed":107845,"internal_node_id":"0.0-3.0","experiment":"validation","task_version":"2.0","jspsych_version":"6.3.1","infrequency":0},{"responses":{"Q06":"2","Q09":"3","Q01":"3","Q02":"3","Q04":"3","Q10":"3","Q11":"0","Q08":"3","Q07":"3","Q05":"3","Q03":"3"},"rt":62080,"item_order":[5,8,0,1,3,9,10,7,6,4,2],"radio_events":[11014.900000035763,18840.80000001192,21305.100000023842,30580.30000001192,32196.80000001192,34580.700000047684,45082.60000002384,47885.90000003576,49347.80000001192,51611.60000002384,56432.90000003576,58786.60000002384],"key_events":[],"mouse_events":[11014.900000035763,18840.80000001192,21305.100000023842,24899.400000035763,26299.700000047684,28176.100000023842,30580.30000001192,32196.80000001192,34580.700000047684,43535.10000002384,45082.60000002384,47885.90000003576,49347.80000001192,51611.60000002384,53121,56432.90000003576,58786.60000002384,62079.200000047684],"straightlining":0.5454545454545454,"zigzagging":0.1,"honeypot":0,"survey":"nfc10","trial_type":"survey-template","trial_index":4,"time_elapsed":169927,"internal_node_id":"0.0-4.0","experiment":"validation","task_version":"2.0","jspsych_version":"6.3.1","infrequency":0},{"value":0,"trial_type":"call-function","trial_index":5,"time_elapsed":169928,"internal_node_id":"0.0-5.0","experiment":"validation","task_version":"2.0","jspsych_version":"6.3.1","interactions":"[]"}]