[{"success":true,"timeout":false,"failed_images":[],"failed_audio":[],"failed_video":[],"trial_type":"preload","trial_index":0,"time_elapsed":4252,"internal_node_id":"0.0-0.0","experiment":"validation-B","task_version":"2.0","jspsych_version":"6.3.1"},{"success":true,"trial_type":"fullscreen","trial_index":1,"time_elapsed":7448,"internal_node_id":"0.0-1.0","experiment":"validation-B","task_version":"2.0","jspsych_version":"6.3.1"},{"view_history":[{"page_index":0,"viewing_time":1439.699999988079},{"page_index":1,"viewing_time":6453.4000000059605},{"page_index":2,"viewing_time":2444.5999999940395},{"page_index":3,"viewing_time":1306.699999988079}],"rt":11644.899999976158,"trial_type":"instructions","trial_index":2,"time_elapsed":19095,"internal_node_id":"0.0-3.0","experiment":"validation-B","task_version":"2.0","jspsych_version":"6.3.1"},{"item":5,"shape_set":1,"distractor":"pd","choice_order":[1,2,0,3],"correct":0,"choice":0,"accuracy":1,"rt":1875.7000000178814,"screen_resolution":[1440,900],"minimum_resolution":1,"all_loaded":true,"item_set":"practice","trial_type":"mars","trial_index":3,"time_elapsed":21726,"internal_node_id":"0.0-4.0-0.0","experiment":"validation-B","task_version":"2.0","jspsych_version":"6.3.1"},{"item":2,"shape_set":1,"distractor":"pd","choice_order":[3,1,2,0],"correct":0,"choice":0,"accuracy":1,"rt":1881.5,"screen_resolution":[1440,900],"minimum_resolution":1,"all_loaded":true,"item_set":"practice","trial_type":"mars","trial_index":4,"time_elapsed":24367,"internal_node_id":"0.0-5.0-0.0","experiment":"validation-B","task_version":"2.0","jspsych_version":"6.3.1"},{"item":8,"shape_set":1,"distractor":"pd","choice_order":[1,2,3,0],"correct":0,"choice":0,"accuracy":1,"rt":4015.300000011921,"screen_resolution":[1440,900],"minimum_resolution":1,"all_loaded":true,"item_set":"practice","trial_type":"mars","trial_index":5,"time_elapsed":29137,"internal_node_id":"0.0-6.0-0.0","experiment":"validation-B","task_version":"2.0","jspsych_version":"6.3.1"},{"view_history":[{"page_index":0,"viewing_time":1375.5},{"page_index":1,"viewing_time":4875.5}],"rt":6251.5,"trial_type":"instructions","trial_index":6,"time_elapsed":35391,"internal_node_id":"0.0-7.0","experiment":"validation-B","task_version":"2.0","jspsych_version":"6.3.1"},{"rt":null,"stimulus":"<div style=\"font-size:24px;\">Loading puzzle:<br>1 / 24</div>","response":null,"trial_type":"html-keyboard-response","trial_index":7,"time_elapsed":36596,"internal_node_id":"0.0-8.0-1.0","experiment":"validation-B","task_version":"2.0","jspsych_version":"6.3.1"},{"item":45,"shape_set":1,"distractor":"pd","choice_order":[2,3,1,0],"correct":0,"choice":0,"accuracy":1,"rt":5303.800000011921,"screen_resolution":[1440,900],"minimum_resolution":1,"all_loaded":true,"item_set":3,"long_form":2,"trial_type":"mars","trial_index":8,"time_elapsed":41902,"internal_node_id":"0.0-8.0-2.0","experiment":"validation-B","task_version":"2.0","jspsych_version":"6.3.1","browser_interactions":0},{"rt":null,"stimulus":"<div style=\"font-size:24px;\">Loading puzzle:<br>2 / 24</div>","response":null,"trial_type":"html-keyboard-response","trial_index":9,"time_elapsed":43108,"internal_node_id":"0.0-9.0-1.0","experiment":"validation-B","task_version":"2.0","jspsych_version":"6.3.1"},{"item":30,"shape_set":1,"distractor":"pd","choice_order":[2,0,3,1],"correct":0,"choice":0,"accuracy":1,"rt":4780.700000017881,"screen_resolution":[1440,900],"minimum_resolution":1,"all_loaded":true,"item_set":3,"long_form":2,"trial_type":"mars","trial_index":10,"time_elapsed":47891,"internal_node_id":"0.0-9.0-2.0","experiment":"validation-B","task_version":"2.0","jspsych_version":"6.3.1","browser_interactions":0},{"rt":null,"stimulus":"<div style=\"font-size:24px;\">Loading puzzle:<br>3 / 24</div>","response":null,"trial_type":"html-keyboard-response","trial_index":11,"time_elapsed":49097,"internal_node_id":"0.0-10.0-1.0","experiment":"validation-B","task_version":"2.0","jspsych_version":"6.3.1"},{"item":55,"shape_set":3,"distractor":"pd","choice_order":[0,2,1,3],"correct":0,"choice":1,"accuracy":0,"rt":8826.59999999404,"screen_resolution":[1440,900],"minimum_resolution":1,"all_loaded":true,"item_set":3,"long_form":2,"trial_type":"mars","trial_index":12,"time_elapsed":57925,"internal_node_id":"0.0-10.0-2.0","experiment":"validation-B","task_version":"2.0","jspsych_version":"6.3.1","browser_interactions":0},{"rt":null,"stimulus":"<div style=\"font-size:24px;\">Loading puzzle:<br>4 / 24</div>","response":null,"trial_type":"html-keyboard-response","trial_index":13,"time_elapsed":59129,"internal_node_id":"0.0-11.0-1.0","experiment":"validation-B","task_version":"2.0","jspsych_version":"6.3.1"},{"item":58,"shape_set":2,"distractor":"md","choice_order":[1,3,2,0],"correct":0,"choice":1,"accuracy":0,"rt":11680.5,"screen_resolution":[1440,900],"minimum_resolution":1,"all_loaded":true,"item_set":3,"long_form":2,"trial_type":"mars","trial_index":14,"time_elapsed":70811,"internal_node_id":"0.0-11.0-2.0","experiment":"validation-B","task_version":"2.0","jspsych_version":"6.3.1","browser_interactions":0},{"rt":null,"stimulus":"<div style=\"font-size:24px;\">Loading puzzle:<br>5 / 24</div>","response":null,"trial_type":"html-keyboard-response","trial_index":15,"time_elapsed":72014,"internal_node_id":"0.0-12.0-1.0","experiment":"validation-B","task_version":"2.0","jspsych_version":"6.3.1"},{"item":42,"shape_set":1,"distractor":"pd","choice_order":[2,0,1,3],"correct":0,"choice":0,"accuracy":1,"rt":8240.5,"screen_resolution":[1440,900],"minimum_resolution":1,"all_loaded":true,"item_set":3,"long_form":2,"trial_type":"mars","trial_index":16,"time_elapsed":80256,"internal_node_id":"0.0-12.0-2.0","experiment":"validation-B","task_version":"2.0","jspsych_version":"6.3.1","browser_interactions":0},{"rt":null,"stimulus":"<div style=\"font-size:24px;\">Loading puzzle:<br>6 / 24</div>","response":null,"trial_type":"html-keyboard-response","trial_index":17,"time_elapsed":81459,"internal_node_id":"0.0-13.0-1.0","experiment":"validation-B","task_version":"2.0","jspsych_version":"6.3.1"},{"item":52,"shape_set":2,"distractor":"pd","choice_order":[2,0,3,1],"correct":0,"choice":0,"accuracy":1,"rt":8018.300000011921,"screen_resolution":[1440,900],"minimum_resolution":1,"all_loaded":true,"item_set":3,"long_form":2,"trial_type":"mars","trial_index":18,"time_elapsed":89479,"internal_node_id":"0.0-13.0-2.0","experiment":"validation-B","task_version":"2.0","jspsych_version":"6.3.1","browser_interactions":0},{"rt":null,"stimulus":"<div style=\"font-size:24px;\">Loading puzzle:<br>7 / 24</div>","response":null,"trial_type":"html-keyboard-response","trial_index":19,"time_elapsed":90683,"internal_node_id":"0.0-14.0-1.0","experiment":"validation-B","task_version":"2.0","jspsych_version":"6.3.1"},{"item":29,"shape_set":3,"distractor":"pd","choice_order":[2,3,0,1],"correct":0,"choice":0,"accuracy":1,"rt":10499.09999999404,"screen_resolution":[1440,900],"minimum_resolution":1,"all_loaded":true,"item_set":3,"long_form":2,"trial_type":"mars","trial_index":20,"time_elapsed":101184,"internal_node_id":"0.0-14.0-2.0","experiment":"validation-B","task_version":"2.0","jspsych_version":"6.3.1","browser_interactions":0},{"rt":null,"stimulus":"<div style=\"font-size:24px;\">Loading puzzle:<br>8 / 24</div>","response":null,"trial_type":"html-keyboard-response","trial_index":21,"time_elapsed":102389,"internal_node_id":"0.0-15.0-1.0","experiment":"validation-B","task_version":"2.0","jspsych_version":"6.3.1"},{"item":24,"shape_set":1,"distractor":"pd","choice_order":[3,2,0,1],"correct":0,"choice":0,"accuracy":1,"rt":12344.399999976158,"screen_resolution":[1440,900],"minimum_resolution":1,"all_loaded":true,"item_set":3,"long_form":2,"trial_type":"mars","trial_index":22,"time_elapsed":114735,"internal_node_id":"0.0-15.0-2.0","experiment":"validation-B","task_version":"2.0","jspsych_version":"6.3.1","browser_interactions":0},{"rt":null,"stimulus":"<div style=\"font-size:24px;\">Loading puzzle:<br>9 / 24</div>","response":null,"trial_type":"html-keyboard-response","trial_index":23,"time_elapsed":115939,"internal_node_id":"0.0-16.0-1.0","experiment":"validation-B","task_version":"2.0","jspsych_version":"6.3.1"},{"item":17,"shape_set":2,"distractor":"pd","choice_order":[2,3,0,1],"correct":0,"choice":1,"accuracy":0,"rt":18131.19999998808,"screen_resolution":[1440,900],"minimum_resolution":1,"all_loaded":true,"item_set":3,"long_form":2,"trial_type":"mars","trial_index":24,"time_elapsed":134072,"internal_node_id":"0.0-16.0-2.0","experiment":"validation-B","task_version":"2.0","jspsych_version":"6.3.1","browser_interactions":0},{"rt":null,"stimulus":"<div style=\"font-size:24px;\">Loading puzzle:<br>10 / 24</div>","response":null,"trial_type":"html-keyboard-response","trial_index":25,"time_elapsed":135278,"internal_node_id":"0.0-17.0-1.0","experiment":"validation-B","task_version":"2.0","jspsych_version":"6.3.1"},{"item":76,"shape_set":2,"distractor":"pd","choice_order":[1,3,2,0],"correct":0,"choice":0,"accuracy":1,"rt":6976.200000017881,"screen_resolution":[1440,900],"minimum_resolution":1,"all_loaded":true,"item_set":3,"long_form":2,"trial_type":"mars","trial_index":26,"time_elapsed":142256,"internal_node_id":"0.0-17.0-2.0","experiment":"validation-B","task_version":"2.0","jspsych_version":"6.3.1","browser_interactions":0},{"rt":null,"stimulus":"<div style=\"font-size:24px;\">Loading puzzle:<br>11 / 24</div>","response":null,"trial_type":"html-keyboard-response","trial_index":27,"time_elapsed":143459,"internal_node_id":"0.0-18.0-1.0","experiment":"validation-B","task_version":"2.0","jspsych_version":"6.3.1"},{"item":75,"shape_set":3,"distractor":"pd","choice_order":[1,0,3,2],"correct":0,"choice":0,"accuracy":1,"rt":8816.90000000596,"screen_resolution":[1440,900],"minimum_resolution":1,"all_loaded":true,"item_set":3,"long_form":2,"trial_type":"mars","trial_index":28,"time_elapsed":152278,"internal_node_id":"0.0-18.0-2.0","experiment":"validation-B","task_version":"2.0","jspsych_version":"6.3.1","browser_interactions":0},{"rt":null,"stimulus":"<div style=\"font-size:24px;\">Loading puzzle:<br>12 / 24</div>","response":null,"trial_type":"html-keyboard-response","trial_index":29,"time_elapsed":153481,"internal_node_id":"0.0-19.0-1.0","experiment":"validation-B","task_version":"2.0","jspsych_version":"6.3.1"},{"item":72,"shape_set":2,"distractor":"pd","choice_order":[1,2,0,3],"correct":0,"choice":0,"accuracy":1,"rt":6881.699999988079,"screen_resolution":[1440,900],"minimum_resolution":1,"all_loaded":true,"item_set":3,"long_form":2,"trial_type":"mars","trial_index":30,"time_elapsed":160365,"internal_node_id":"0.0-19.0-2.0","experiment":"validation-B","task_version":"2.0","jspsych_version":"6.3.1","browser_interactions":0},{"view_history":[{"page_index":0,"viewing_time":1974.0999999940395},{"page_index":1,"viewing_time":2121.4000000059605}],"rt":4096,"trial_type":"instructions","trial_index":31,"time_elapsed":164462,"internal_node_id":"0.0-20.0","experiment":"validation-B","task_version":"2.0","jspsych_version":"6.3.1"},{"rt":null,"stimulus":"<div style=\"font-size:24px;\">Loading puzzle:<br>13 / 24</div>","response":null,"trial_type":"html-keyboard-response","trial_index":32,"time_elapsed":165667,"internal_node_id":"0.0-21.0-1.0","experiment":"validation-B","task_version":"2.0","jspsych_version":"6.3.1"},{"item":35,"shape_set":2,"distractor":"pd","choice_order":[0,3,1,2],"correct":0,"choice":3,"accuracy":0,"rt":8918.09999999404,"screen_resolution":[1440,900],"minimum_resolution":1,"all_loaded":true,"item_set":3,"long_form":2,"trial_type":"mars","trial_index":33,"time_elapsed":174587,"internal_node_id":"0.0-21.0-2.0","experiment":"validation-B","task_version":"2.0","jspsych_version":"6.3.1","browser_interactions":0},{"rt":null,"stimulus":"<div style=\"font-size:24px;\">Loading puzzle:<br>14 / 24</div>","response":null,"trial_type":"html-keyboard-response","trial_index":34,"time_elapsed":175794,"internal_node_id":"0.0-22.0-1.0","experiment":"validation-B","task_version":"2.0","jspsych_version":"6.3.1"},{"item":36,"shape_set":1,"distractor":"pd","choice_order":[3,2,1,0],"correct":0,"choice":0,"accuracy":1,"rt":11965.199999988079,"screen_resolution":[1440,900],"minimum_resolution":1,"all_loaded":true,"item_set":3,"long_form":2,"trial_type":"mars","trial_index":35,"time_elapsed":187761,"internal_node_id":"0.0-22.0-2.0","experiment":"validation-B","task_version":"2.0","jspsych_version":"6.3.1","browser_interactions":0},{"rt":null,"stimulus":"<div style=\"font-size:24px;\">Loading puzzle:<br>15 / 24</div>","response":null,"trial_type":"html-keyboard-response","trial_index":36,"time_elapsed":188963,"internal_node_id":"0.0-23.0-1.0","experiment":"validation-B","task_version":"2.0","jspsych_version":"6.3.1"},{"item":64,"shape_set":3,"distractor":"pd","choice_order":[1,0,2,3],"correct":0,"choice":2,"accuracy":0,"rt":16565.5,"screen_resolution":[1440,900],"minimum_resolution":1,"all_loaded":true,"item_set":3,"long_form":2,"trial_type":"mars","trial_index":37,"time_elapsed":205530,"internal_node_id":"0.0-23.0-2.0","experiment":"validation-B","task_version":"2.0","jspsych_version":"6.3.1","browser_interactions":0},{"rt":null,"stimulus":"<div style=\"font-size:24px;\">Loading puzzle:<br>16 / 24</div>","response":null,"trial_type":"html-keyboard-response","trial_index":38,"time_elapsed":206736,"internal_node_id":"0.0-24.0-1.0","experiment":"validation-B","task_version":"2.0","jspsych_version":"6.3.1"},{"item":80,"shape_set":1,"distractor":"pd","choice_order":[3,0,1,2],"correct":0,"choice":0,"accuracy":1,"rt":12004,"screen_resolution":[1440,900],"minimum_resolution":1,"all_loaded":true,"item_set":3,"long_form":2,"trial_type":"mars","trial_index":39,"time_elapsed":218742,"internal_node_id":"0.0-24.0-2.0","experiment":"validation-B","task_version":"2.0","jspsych_version":"6.3.1","browser_interactions":0},{"rt":null,"stimulus":"<div style=\"font-size:24px;\">Loading puzzle:<br>17 / 24</div>","response":null,"trial_type":"html-keyboard-response","trial_index":40,"time_elapsed":219947,"internal_node_id":"0.0-25.0-1.0","experiment":"validation-B","task_version":"2.0","jspsych_version":"6.3.1"},{"item":74,"shape_set":1,"distractor":"pd","choice_order":[0,2,3,1],"correct":0,"choice":0,"accuracy":1,"rt":9641.300000011921,"screen_resolution":[1440,900],"minimum_resolution":1,"all_loaded":true,"item_set":3,"long_form":2,"trial_type":"mars","trial_index":41,"time_elapsed":229590,"internal_node_id":"0.0-25.0-2.0","experiment":"validation-B","task_version":"2.0","jspsych_version":"6.3.1","browser_interactions":0},{"rt":null,"stimulus":"<div style=\"font-size:24px;\">Loading puzzle:<br>18 / 24</div>","response":null,"trial_type":"html-keyboard-response","trial_index":42,"time_elapsed":230792,"internal_node_id":"0.0-26.0-1.0","experiment":"validation-B","task_version":"2.0","jspsych_version":"6.3.1"},{"item":46,"shape_set":2,"distractor":"pd","choice_order":[2,0,3,1],"correct":0,"choice":0,"accuracy":1,"rt":12974.200000017881,"screen_resolution":[1440,900],"minimum_resolution":1,"all_loaded":true,"item_set":3,"long_form":2,"trial_type":"mars","trial_index":43,"time_elapsed":243768,"internal_node_id":"0.0-26.0-2.0","experiment":"validation-B","task_version":"2.0","jspsych_version":"6.3.1","browser_interactions":0},{"rt":null,"stimulus":"<div style=\"font-size:24px;\">Loading puzzle:<br>19 / 24</div>","response":null,"trial_type":"html-keyboard-response","trial_index":44,"time_elapsed":244974,"internal_node_id":"0.0-27.0-1.0","experiment":"validation-B","task_version":"2.0","jspsych_version":"6.3.1"},{"item":59,"shape_set":2,"distractor":"pd","choice_order":[3,0,1,2],"correct":0,"choice":0,"accuracy":1,"rt":7398.5,"screen_resolution":[1440,900],"minimum_resolution":1,"all_loaded":true,"item_set":3,"long_form":2,"trial_type":"mars","trial_index":45,"time_elapsed":252374,"internal_node_id":"0.0-27.0-2.0","experiment":"validation-B","task_version":"2.0","jspsych_version":"6.3.1","browser_interactions":0},{"rt":null,"stimulus":"<div style=\"font-size:24px;\">Loading puzzle:<br>20 / 24</div>","response":null,"trial_type":"html-keyboard-response","trial_index":46,"time_elapsed":253578,"internal_node_id":"0.0-28.0-1.0","experiment":"validation-B","task_version":"2.0","jspsych_version":"6.3.1"},{"item":66,"shape_set":3,"distractor":"pd","choice_order":[1,0,2,3],"correct":0,"choice":0,"accuracy":1,"rt":13460.699999988079,"screen_resolution":[1440,900],"minimum_resolution":1,"all_loaded":true,"item_set":3,"long_form":2,"trial_type":"mars","trial_index":47,"time_elapsed":267041,"internal_node_id":"0.0-28.0-2.0","experiment":"validation-B","task_version":"2.0","jspsych_version":"6.3.1","browser_interactions":0},{"rt":null,"stimulus":"<div style=\"font-size:24px;\">Loading puzzle:<br>21 / 24</div>","response":null,"trial_type":"html-keyboard-response","trial_index":48,"time_elapsed":268245,"internal_node_id":"0.0-29.0-1.0","experiment":"validation-B","task_version":"2.0","jspsych_version":"6.3.1"},{"item":63,"shape_set":1,"distractor":"pd","choice_order":[2,0,3,1],"correct":0,"choice":0,"accuracy":1,"rt":6450.700000017881,"screen_resolution":[1440,900],"minimum_resolution":1,"all_loaded":true,"item_set":3,"long_form":2,"trial_type":"mars","trial_index":49,"time_elapsed":274697,"internal_node_id":"0.0-29.0-2.0","experiment":"validation-B","task_version":"2.0","jspsych_version":"6.3.1","browser_interactions":0},{"rt":null,"stimulus":"<div style=\"font-size:24px;\">Loading puzzle:<br>22 / 24</div>","response":null,"trial_type":"html-keyboard-response","trial_index":50,"time_elapsed":275902,"internal_node_id":"0.0-30.0-1.0","experiment":"validation-B","task_version":"2.0","jspsych_version":"6.3.1"},{"item":21,"shape_set":3,"distractor":"pd","choice_order":[3,0,1,2],"correct":0,"choice":0,"accuracy":1,"rt":8886.40000000596,"screen_resolution":[1440,900],"minimum_resolution":1,"all_loaded":true,"item_set":3,"long_form":2,"trial_type":"mars","trial_index":51,"time_elapsed":284790,"internal_node_id":"0.0-30.0-2.0","experiment":"validation-B","task_version":"2.0","jspsych_version":"6.3.1","browser_interactions":0},{"rt":null,"stimulus":"<div style=\"font-size:24px;\">Loading puzzle:<br>23 / 24</div>","response":null,"trial_type":"html-keyboard-response","trial_index":52,"time_elapsed":285992,"internal_node_id":"0.0-31.0-1.0","experiment":"validation-B","task_version":"2.0","jspsych_version":"6.3.1"},{"item":78,"shape_set":3,"distractor":"pd","choice_order":[2,3,1,0],"correct":0,"choice":0,"accuracy":1,"rt":12073.90000000596,"screen_resolution":[1440,900],"minimum_resolution":1,"all_loaded":true,"item_set":3,"long_form":2,"trial_type":"mars","trial_index":53,"time_elapsed":298068,"internal_node_id":"0.0-31.0-2.0","experiment":"validation-B","task_version":"2.0","jspsych_version":"6.3.1","browser_interactions":0},{"rt":null,"stimulus":"<div style=\"font-size:24px;\">Loading puzzle:<br>24 / 24</div>","response":null,"trial_type":"html-keyboard-response","trial_index":54,"time_elapsed":299272,"internal_node_id":"0.0-32.0-1.0","experiment":"validation-B","task_version":"2.0","jspsych_version":"6.3.1"},{"item":44,"shape_set":2,"distractor":"pd","choice_order":[3,0,1,2],"correct":0,"choice":0,"accuracy":1,"rt":7341.5999999940395,"screen_resolution":[1440,900],"minimum_resolution":1,"all_loaded":true,"item_set":3,"long_form":2,"trial_type":"mars","trial_index":55,"time_elapsed":306615,"internal_node_id":"0.0-32.0-2.0","experiment":"validation-B","task_version":"2.0","jspsych_version":"6.3.1","browser_interactions":0},{"value":[0,0,0],"trial_type":"call-function","trial_index":56,"time_elapsed":306616,"internal_node_id":"0.0-33.0","experiment":"validation-B","task_version":"2.0","jspsych_version":"6.3.1","interactions":"[{\"event\":\"blur\",\"trial\":1,\"time\":4507},{\"event\":\"focus\",\"trial\":1,\"time\":5013},{\"event\":\"fullscreenenter\",\"trial\":1,\"time\":6464}]"}]