[{"view_history":[{"page_index":0,"viewing_time":2980}],"rt":2980.300000011921,"trial_type":"instructions","trial_index":0,"time_elapsed":2985,"internal_node_id":"0.0-0.0","experiment":"validation","task_version":"2.0","jspsych_version":"6.3.1"},{"rt":15682.600000023842,"responses":{"age":"39","gender-categorical":"Male","gender-free-response":"","ethnicity":"Not Hispanic or Latino","race":["White"],"education":"Less than high school"},"survey":"demographics","trial_type":"survey-demo","trial_index":1,"time_elapsed":18669,"internal_node_id":"0.0-1.0","experiment":"validation","task_version":"2.0","jspsych_version":"6.3.1"},{"responses":{"Q07":"2","Q01":"2","Q06":"1","Q09":"4","Q04":"2","Q03":"2","Q02":"2","Q05":"1","Q08":"2"},"rt":74281.69999998808,"item_order":[6,0,5,8,3,2,1,4,7],"radio_events":[5698.199999988079,7510,13384.100000023842,26089.899999976158,36599.10000002384,49450.89999997616,51513.39999997616,51860.89999997616,60290.89999997616,64762.89999997616,65236,68166.80000001192,70132,72711.89999997616],"key_events":[],"mouse_events":[5698.199999988079,6902.100000023842,7510,12824,13384.100000023842,22434.899999976158,24430,24917.100000023842,25560.80000001192,25828.80000001192,26089.899999976158,36599.10000002384,46780.80000001192,49450.89999997616,50115.80000001192,50417.10000002384,51239.89999997616,51513.39999997616,51860.89999997616,60290.89999997616,64088,64448,64762.89999997616,65236,66924,68166.80000001192,70132,72711.89999997616,74280.80000001192],"straightlining":0.6666666666666666,"zigzagging":0.5,"honeypot":0,"survey":"pcf","trial_type":"survey-template","trial_index":2,"time_elapsed":92955,"internal_node_id":"0.0-2.0","experiment":"validation","task_version":"2.0","jspsych_version":"6.3.1","infrequency":0},{"responses":{"Q05":"1","Q04":"1","Q01":"1","Q07":"1","Q02":"1","Q11":"0","Q06":"1","Q08":"1","Q10":"2","Q03":"1","Q09":"1"},"rt":106225.20000004768,"item_order":[4,3,0,6,1,10,5,7,9,2,8],"radio_events":[7570.5,11748.600000023842,16810.700000047684,23824.700000047684,26976.5,32171.700000047684,40516.5,56581.5,85661.10000002384,91870.5,97237.60000002384,104581.70000004768],"key_events":[],"mouse_events":[7570.5,9777.800000011921,11748.600000023842,16810.700000047684,23824.700000047684,25491.700000047684,26589.30000001192,26976.5,31543.600000023842,31875.400000035763,32171.700000047684,40516.5,56581.5,59372.90000003576,85661.10000002384,91870.5,97237.60000002384,98232.60000002384,103654.60000002384,104274.40000003576,104581.70000004768,106223.5],"straightlining":0.5454545454545454,"zigzagging":0.4,"honeypot":0,"survey":"nfc10","trial_type":"survey-template","trial_index":3,"time_elapsed":199184,"internal_node_id":"0.0-3.0","experiment":"validation","task_version":"2.0","jspsych_version":"6.3.1","infrequency":0},{"rt":66910.70000004768,"response":{"Q1":1,"Q5":3,"Q4":3,"Q8":0,"Q0":2,"Q7":3,"Q6":2,"Q2":2,"Q3":3},"question_order":[1,5,4,8,0,7,6,2,3],"survey":"sns","trial_type":"survey-likert","trial_index":4,"time_elapsed":266099,"internal_node_id":"0.0-4.0","experiment":"validation","task_version":"2.0","jspsych_version":"6.3.1","infrequency":0},{"value":0,"trial_type":"call-function","trial_index":5,"time_elapsed":266100,"internal_node_id":"0.0-5.0","experiment":"validation","task_version":"2.0","jspsych_version":"6.3.1","interactions":"[]"}]