[{"view_history":[{"page_index":0,"viewing_time":1381.3000000000466}],"rt":1381.5,"trial_type":"instructions","trial_index":0,"time_elapsed":1386,"internal_node_id":"0.0-0.0","experiment":"validation","task_version":"2.0","jspsych_version":"6.3.1"},{"rt":8822.600000000093,"responses":{"age":"25","gender-categorical":"Male","gender-free-response":"","ethnicity":"Hispanic or Latino","race":["Asian","Native Hawaiian or other Pacific Islander"],"education":"Associate degree"},"survey":"demographics","trial_type":"survey-demo","trial_index":1,"time_elapsed":10210,"internal_node_id":"0.0-1.0","experiment":"validation","task_version":"2.0","jspsych_version":"6.3.1"},{"rt":31405.40000000014,"response":{"Q5":2,"Q3":5,"Q1":4,"Q2":5,"Q4":3,"Q6":2,"Q7":4,"Q0":3,"Q8":0},"question_order":[5,3,1,2,4,6,7,0,8],"survey":"sns","trial_type":"survey-likert","trial_index":2,"time_elapsed":41619,"internal_node_id":"0.0-2.0","experiment":"validation","task_version":"2.0","jspsych_version":"6.3.1","infrequency":0},{"responses":{"Q01":"3","Q02":"4","Q03":"4","Q06":"4","Q04":"4","Q08":"4","Q07":"4","Q05":"4","Q09":"0"},"rt":14810.100000000093,"item_order":[0,1,2,5,3,7,6,4,8],"radio_events":[2889.1999999999534,6817.300000000047,8305.40000000014,9425.300000000047,10081.300000000047,11449.40000000014,12089.199999999953,12761.199999999953,13754.199999999953],"key_events":[],"mouse_events":[2889.1999999999534,5617.600000000093,6817.300000000047,7273.40000000014,7625.5,8033.600000000093,8305.40000000014,9425.300000000047,10081.300000000047,11449.40000000014,12089.199999999953,12761.199999999953,13754.199999999953,14505.5,14809.199999999953],"straightlining":0.8888888888888888,"zigzagging":0.125,"honeypot":0,"survey":"pcf","trial_type":"survey-template","trial_index":3,"time_elapsed":56435,"internal_node_id":"0.0-3.0","experiment":"validation","task_version":"2.0","jspsych_version":"6.3.1","infrequency":1},{"responses":{"Q09":"3","Q10":"3","Q05":"1","Q04":"3","Q03":"4","Q11":"0","Q07":"3","Q02":"3","Q06":"3","Q01":"3","Q08":"3"},"rt":30035.5,"item_order":[8,9,4,3,2,10,6,1,5,0,7],"radio_events":[4417.90000000014,6218.100000000093,7594.100000000093,11314.5,14762,20610.40000000014,23817.90000000014,25626,27050,28594.200000000186,29378.200000000186],"key_events":[],"mouse_events":[4417.90000000014,5378.200000000186,6218.100000000093,7594.100000000093,11314.5,14762,20610.40000000014,23817.90000000014,25626,27050,28594.200000000186,29378.200000000186,30034.600000000093],"straightlining":0.7272727272727273,"zigzagging":0.1,"honeypot":0,"survey":"nfc10","trial_type":"survey-template","trial_index":4,"time_elapsed":86476,"internal_node_id":"0.0-4.0","experiment":"validation","task_version":"2.0","jspsych_version":"6.3.1","infrequency":0},{"value":1,"trial_type":"call-function","trial_index":5,"time_elapsed":86479,"internal_node_id":"0.0-5.0","experiment":"validation","task_version":"2.0","jspsych_version":"6.3.1","interactions":"[{\"event\":\"blur\",\"trial\":2,\"time\":17410},{\"event\":\"focus\",\"trial\":2,\"time\":18109}]"}]