[{"view_history":[{"page_index":0,"viewing_time":7237}],"rt":7237.29999999702,"trial_type":"instructions","trial_index":0,"time_elapsed":7267,"internal_node_id":"0.0-0.0","experiment":"validation","task_version":"2.0","jspsych_version":"6.3.1"},{"rt":11934.59999999404,"responses":{"age":"27","gender-categorical":"Female","gender-free-response":"","ethnicity":"Hispanic or Latino","race":["Black or African American"],"education":"Bachelor degree"},"survey":"demographics","trial_type":"survey-demo","trial_index":1,"time_elapsed":19207,"internal_node_id":"0.0-1.0","experiment":"validation","task_version":"2.0","jspsych_version":"6.3.1"},{"responses":{"Q08":"4","Q05":"4","Q06":"4","Q02":"4","Q04":"4","Q09":"4","Q01":"4","Q07":"4","Q03":"4"},"rt":25395.79999999702,"item_order":[7,4,5,1,3,8,0,6,2],"radio_events":[3927.4000000059605,5529.79999999702,6319.70000000298,7913.4000000059605,9148.29999999702,15071.20000000298,17780.20000000298,18982.70000000298,19910.5],"key_events":[],"mouse_events":[3927.4000000059605,4640.79999999702,5529.79999999702,6319.70000000298,7913.4000000059605,9148.29999999702,12254.09999999404,15071.20000000298,16336.90000000596,17027.09999999404,17780.20000000298,18982.70000000298,19910.5,25392.90000000596],"straightlining":0.8888888888888888,"zigzagging":0.25,"honeypot":0,"survey":"pcf","trial_type":"survey-template","trial_index":2,"time_elapsed":44614,"internal_node_id":"0.0-2.0","experiment":"validation","task_version":"2.0","jspsych_version":"6.3.1","infrequency":0},{"responses":{"Q08":"1","Q07":"1","Q11":"0","Q03":"2","Q10":"1","Q01":"1","Q02":"1","Q05":"3","Q06":"1","Q09":"0","Q04":"1"},"rt":61412.79999999702,"item_order":[7,6,10,2,9,0,1,4,5,8,3],"radio_events":[8241.29999999702,9093.5,14275.79999999702,16592.09999999404,20703.5,21593.09999999404,50458.59999999404,55324.29999999702,56365.39999999106,57879.89999999106,60554.59999999404],"key_events":[],"mouse_events":[8241.29999999702,9093.5,14275.79999999702,16592.09999999404,20703.5,21593.09999999404,50458.59999999404,52786.19999998808,54068.89999999106,55324.29999999702,56365.39999999106,57879.89999999106,60554.59999999404,61411.19999998808],"straightlining":0.6363636363636364,"zigzagging":0.3,"honeypot":0,"survey":"nfc10","trial_type":"survey-template","trial_index":3,"time_elapsed":106036,"internal_node_id":"0.0-3.0","experiment":"validation","task_version":"2.0","jspsych_version":"6.3.1","infrequency":0},{"rt":78396.5,"response":{"Q3":4,"Q1":4,"Q0":4,"Q4":3,"Q7":4,"Q2":4,"Q5":5,"Q6":0,"Q8":0},"question_order":[3,1,0,4,7,2,5,6,8],"survey":"sns","trial_type":"survey-likert","trial_index":4,"time_elapsed":184444,"internal_node_id":"0.0-4.0","experiment":"validation","task_version":"2.0","jspsych_version":"6.3.1","infrequency":0},{"value":0,"trial_type":"call-function","trial_index":5,"time_elapsed":184452,"internal_node_id":"0.0-5.0","experiment":"validation","task_version":"2.0","jspsych_version":"6.3.1","interactions":"[{\"event\":\"blur\",\"trial\":0,\"time\":3547},{\"event\":\"focus\",\"trial\":0,\"time\":5989},{\"event\":\"blur\",\"trial\":4,\"time\":127225},{\"event\":\"focus\",\"trial\":4,\"time\":135704},{\"event\":\"blur\",\"trial\":4,\"time\":139172},{\"event\":\"focus\",\"trial\":4,\"time\":173049}]"}]