[{"view_history":[{"page_index":0,"viewing_time":27156.900000095367}],"rt":27160.800000190735,"trial_type":"instructions","trial_index":0,"time_elapsed":27172,"internal_node_id":"0.0-0.0","experiment":"validation","task_version":"2.0","jspsych_version":"6.3.1"},{"rt":15088.400000095367,"responses":{"age":"27","gender-categorical":"Male","gender-free-response":"","ethnicity":"Not Hispanic or Latino","race":["White"],"education":"High school"},"survey":"demographics","trial_type":"survey-demo","trial_index":1,"time_elapsed":42275,"internal_node_id":"0.0-1.0","experiment":"validation","task_version":"2.0","jspsych_version":"6.3.1"},{"responses":{"Q01":"1","Q09":"4","Q08":"1","Q05":"1","Q07":"4","Q04":"3","Q03":"3","Q02":"4","Q06":"4"},"rt":108692.5,"item_order":[0,8,7,4,6,3,2,1,5],"radio_events":[8258.200000286102,27921.400000095367,32163.900000095367,33163.40000009537,35399.800000190735,38799.300000190735,47480.5,50791,54109.90000009537,93975.40000009537,99355.90000009537,101199.90000009537,104270.10000038147,107766.80000019073],"key_events":[],"mouse_events":[8258.200000286102,27921.400000095367,31208.60000038147,32163.900000095367,33163.40000009537,33870.7000002861,35399.800000190735,37136.10000038147,37729.5,38799.300000190735,47480.5,48060.7000002861,48563.2000002861,50791,51406.5,52604.10000038147,53289.90000009537,54109.90000009537,93975.40000009537,97017.60000038147,97654.90000009537,98425.90000009537,99355.90000009537,100537.10000038147,101199.90000009537,104270.10000038147,106385.90000009537,107766.80000019073,108687.40000009537],"straightlining":0.3333333333333333,"zigzagging":0.5,"honeypot":0,"survey":"pcf","trial_type":"survey-template","trial_index":2,"time_elapsed":150967,"internal_node_id":"0.0-2.0","experiment":"validation","task_version":"2.0","jspsych_version":"6.3.1","infrequency":0},{"rt":46602.59999990463,"response":{"Q3":4,"Q4":4,"Q8":0,"Q2":2,"Q6":0,"Q1":3,"Q0":3,"Q7":2,"Q5":0},"question_order":[3,4,8,2,6,1,0,7,5],"survey":"sns","trial_type":"survey-likert","trial_index":3,"time_elapsed":197579,"internal_node_id":"0.0-3.0","experiment":"validation","task_version":"2.0","jspsych_version":"6.3.1","infrequency":0},{"responses":{"Q06":"0","Q02":"3","Q10":"2","Q08":"3","Q11":"2","Q07":"2","Q03":"2","Q05":"2","Q04":"1","Q01":"1","Q09":"3"},"rt":60170.5,"item_order":[5,1,9,7,10,6,2,4,3,0,8],"radio_events":[6935.099999904633,9896.699999809265,12491.699999809265,15109.5,16443,18058.5,51666.800000190735,52432.59999990463,53057,53532.59999990463,54968.5,55676,59092.40000009537],"key_events":[],"mouse_events":[6415.5,6935.099999904633,8099.699999809265,9896.699999809265,10809.300000190735,12491.699999809265,15109.5,16443,18058.5,51666.800000190735,52432.59999990463,53057,53532.59999990463,54096.90000009537,54968.5,55676,59092.40000009537,60166.300000190735],"straightlining":0.45454545454545453,"zigzagging":0.4,"honeypot":0,"survey":"nfc10","trial_type":"survey-template","trial_index":4,"time_elapsed":257757,"internal_node_id":"0.0-4.0","experiment":"validation","task_version":"2.0","jspsych_version":"6.3.1","infrequency":1},{"value":1,"trial_type":"call-function","trial_index":5,"time_elapsed":257765,"internal_node_id":"0.0-5.0","experiment":"validation","task_version":"2.0","jspsych_version":"6.3.1","interactions":"[{\"event\":\"blur\",\"trial\":2,\"time\":58524},{\"event\":\"focus\",\"trial\":2,\"time\":68509},{\"event\":\"blur\",\"trial\":2,\"time\":98392},{\"event\":\"focus\",\"trial\":2,\"time\":131255},{\"event\":\"blur\",\"trial\":4,\"time\":217567},{\"event\":\"focus\",\"trial\":4,\"time\":243350}]"}]