[{"view_history":[{"page_index":0,"viewing_time":21252.5}],"rt":21253.09999999404,"trial_type":"instructions","trial_index":0,"time_elapsed":21264,"internal_node_id":"0.0-0.0","experiment":"validation","task_version":"2.0","jspsych_version":"6.3.1"},{"rt":11924.5,"responses":{"age":"29","gender-categorical":"Female","gender-free-response":"","ethnicity":"Not Hispanic or Latino","race":["White"],"education":"Bachelor degree"},"survey":"demographics","trial_type":"survey-demo","trial_index":1,"time_elapsed":33190,"internal_node_id":"0.0-1.0","experiment":"validation","task_version":"2.0","jspsych_version":"6.3.1"},{"responses":{"Q08":"2","Q01":"3","Q04":"2","Q05":"2","Q02":"3","Q03":"2","Q06":"2","Q09":"4","Q07":"3"},"rt":277997.6999999881,"item_order":[7,0,3,4,1,2,5,8,6],"radio_events":[5307.5,7718.699999988079,125400.90000000596,128531,228686.90000000596,232146.90000000596,233430.90000000596,267228.5,276333],"key_events":[],"mouse_events":[4803,5307.5,7718.699999988079,124179.19999998808,124880.79999998212,125400.90000000596,128531,228686.90000000596,231232.79999998212,232146.90000000596,233430.90000000596,267228.5,276333,277996.90000000596],"straightlining":0.5555555555555556,"zigzagging":0.5,"honeypot":0,"survey":"pcf","trial_type":"survey-template","trial_index":2,"time_elapsed":311195,"internal_node_id":"0.0-2.0","experiment":"validation","task_version":"2.0","jspsych_version":"6.3.1","infrequency":0},{"rt":30532.79999998212,"response":{"Q4":2,"Q1":3,"Q6":1,"Q5":5,"Q2":4,"Q8":0,"Q0":1,"Q3":4,"Q7":3},"question_order":[4,1,6,5,2,8,0,3,7],"survey":"sns","trial_type":"survey-likert","trial_index":3,"time_elapsed":341733,"internal_node_id":"0.0-3.0","experiment":"validation","task_version":"2.0","jspsych_version":"6.3.1","infrequency":0},{"responses":{"Q05":"1","Q08":"1","Q03":"0","Q10":"0","Q07":"0","Q09":"0","Q06":"0","Q11":"0","Q02":"0","Q01":"0","Q04":"0"},"rt":84337.80000001192,"item_order":[4,7,2,9,6,8,5,10,1,0,3],"radio_events":[39963.20000001788,42295.09999999404,44985.90000000596,48855.20000001788,49943.09999999404,60389.20000001788,60877.30000001192,61839.20000001788,63508.90000000596,65875.20000001788,67711.20000001788,70849.09999999404,80617.30000001192,83321.40000000596],"key_events":[],"mouse_events":[39269.40000000596,39963.20000001788,42295.09999999404,44985.90000000596,48855.20000001788,49943.09999999404,59167.20000001788,59923,60389.20000001788,60877.30000001192,61839.20000001788,63508.90000000596,65331.20000001788,65875.20000001788,67711.20000001788,70849.09999999404,80617.30000001192,83321.40000000596,84337.09999999404],"straightlining":0.6363636363636364,"zigzagging":0.2,"honeypot":0,"survey":"nfc10","trial_type":"survey-template","trial_index":4,"time_elapsed":426075,"internal_node_id":"0.0-4.0","experiment":"validation","task_version":"2.0","jspsych_version":"6.3.1","infrequency":0},{"value":0,"trial_type":"call-function","trial_index":5,"time_elapsed":426078,"internal_node_id":"0.0-5.0","experiment":"validation","task_version":"2.0","jspsych_version":"6.3.1","interactions":"[{\"event\":\"blur\",\"trial\":0,\"time\":186},{\"event\":\"focus\",\"trial\":0,\"time\":5771},{\"event\":\"blur\",\"trial\":0,\"time\":7194},{\"event\":\"focus\",\"trial\":0,\"time\":18351},{\"event\":\"blur\",\"trial\":2,\"time\":41389},{\"event\":\"focus\",\"trial\":2,\"time\":48510},{\"event\":\"blur\",\"trial\":2,\"time\":50606},{\"event\":\"focus\",\"trial\":2,\"time\":65578},{\"event\":\"blur\",\"trial\":2,\"time\":66922},{\"event\":\"focus\",\"trial\":2,\"time\":99690},{\"event\":\"blur\",\"trial\":2,\"time\":101572},{\"event\":\"focus\",\"trial\":2,\"time\":153769},{\"event\":\"blur\",\"trial\":2,\"time\":162408},{\"event\":\"focus\",\"trial\":2,\"time\":178311},{\"event\":\"blur\",\"trial\":2,\"time\":268017},{\"event\":\"focus\",\"trial\":2,\"time\":294273},{\"event\":\"blur\",\"trial\":2,\"time\":301577},{\"event\":\"focus\",\"trial\":2,\"time\":304866},{\"event\":\"blur\",\"trial\":4,\"time\":343215},{\"event\":\"focus\",\"trial\":4,\"time\":377044},{\"event\":\"blur\",\"trial\":4,\"time\":394078},{\"event\":\"focus\",\"trial\":4,\"time\":396044}]"}]