[{"view_history":[{"page_index":0,"viewing_time":5362}],"rt":5362,"trial_type":"instructions","trial_index":0,"time_elapsed":5373,"internal_node_id":"0.0-0.0","experiment":"validation","task_version":"2.0","jspsych_version":"6.3.1"},{"rt":21516,"responses":{"age":"22","gender-categorical":"Male","gender-free-response":"","ethnicity":"Not Hispanic or Latino","race":["White"],"education":"High school"},"survey":"demographics","trial_type":"survey-demo","trial_index":1,"time_elapsed":26916,"internal_node_id":"0.0-1.0","experiment":"validation","task_version":"2.0","jspsych_version":"6.3.1"},{"rt":1192049,"response":{"Q4":3,"Q3":1,"Q2":1,"Q7":3,"Q6":1,"Q5":1,"Q0":1,"Q8":0,"Q1":1},"question_order":[4,3,2,7,6,5,0,8,1],"survey":"sns","trial_type":"survey-likert","trial_index":2,"time_elapsed":1218973,"internal_node_id":"0.0-2.0","experiment":"validation","task_version":"2.0","jspsych_version":"6.3.1","infrequency":0},{"responses":{"Q04":"2","Q06":"2","Q05":"2","Q07":"3","Q09":"4","Q03":"3","Q02":"2","Q01":"2","Q08":"2"},"rt":105378,"item_order":[3,5,4,6,8,2,1,0,7],"radio_events":[11291,29839,37780,40976,51823,58111,67166,74442,79060,85747,100282],"key_events":[],"mouse_events":[11291,29124,29839,37780,39926,40976,50453,50887,51331,51823,57539,58111,67166,73554,74048,74442,78488,79060,85747,92467,100282,105378],"straightlining":0.6666666666666666,"zigzagging":0.25,"honeypot":0,"survey":"pcf","trial_type":"survey-template","trial_index":3,"time_elapsed":1324362,"internal_node_id":"0.0-3.0","experiment":"validation","task_version":"2.0","jspsych_version":"6.3.1","infrequency":0},{"responses":{"Q05":"3","Q01":"1","Q07":"4","Q04":"2","Q03":"3","Q06":"3","Q08":"3","Q10":"2","Q02":"1","Q09":"2","Q11":"0"},"rt":199235,"item_order":[4,0,6,3,2,5,7,9,1,8,10],"radio_events":[77444,91057,99089,115989,128692,143877,159616,172456,179586,184169,193672],"key_events":[],"mouse_events":[13493,53255,77444,90328,91057,99089,115989,128692,143234,143877,159616,172456,179586,184169,193672,198637,199235],"straightlining":0.36363636363636365,"zigzagging":0.4,"honeypot":0,"survey":"nfc10","trial_type":"survey-template","trial_index":4,"time_elapsed":1523606,"internal_node_id":"0.0-4.0","experiment":"validation","task_version":"2.0","jspsych_version":"6.3.1","infrequency":0},{"value":0,"trial_type":"call-function","trial_index":5,"time_elapsed":1523612,"internal_node_id":"0.0-5.0","experiment":"validation","task_version":"2.0","jspsych_version":"6.3.1","interactions":"[{\"event\":\"focus\",\"trial\":0,\"time\":1},{\"event\":\"blur\",\"trial\":2,\"time\":442686},{\"event\":\"focus\",\"trial\":2,\"time\":444815},{\"event\":\"blur\",\"trial\":2,\"time\":676759},{\"event\":\"focus\",\"trial\":2,\"time\":678079},{\"event\":\"blur\",\"trial\":2,\"time\":754185},{\"event\":\"focus\",\"trial\":2,\"time\":755406},{\"event\":\"blur\",\"trial\":2,\"time\":905576},{\"event\":\"focus\",\"trial\":2,\"time\":906803},{\"event\":\"blur\",\"trial\":2,\"time\":1008980},{\"event\":\"focus\",\"trial\":2,\"time\":1010428},{\"event\":\"blur\",\"trial\":2,\"time\":1102488},{\"event\":\"focus\",\"trial\":2,\"time\":1103838},{\"event\":\"blur\",\"trial\":2,\"time\":1185095},{\"event\":\"focus\",\"trial\":2,\"time\":1186517},{\"event\":\"blur\",\"trial\":4,\"time\":1327514},{\"event\":\"focus\",\"trial\":4,\"time\":1329024},{\"event\":\"blur\",\"trial\":4,\"time\":1335251},{\"event\":\"focus\",\"trial\":4,\"time\":1337041},{\"event\":\"blur\",\"trial\":4,\"time\":1339198},{\"event\":\"focus\",\"trial\":4,\"time\":1377555},{\"event\":\"blur\",\"trial\":4,\"time\":1389860},{\"event\":\"focus\",\"trial\":4,\"time\":1391350},{\"event\":\"blur\",\"trial\":4,\"time\":1392297},{\"event\":\"focus\",\"trial\":4,\"time\":1392782}]"}]