[{"view_history":[{"page_index":0,"viewing_time":1278.5999999642372}],"rt":1278.800000011921,"trial_type":"instructions","trial_index":0,"time_elapsed":1286,"internal_node_id":"0.0-0.0","experiment":"validation","task_version":"2.0","jspsych_version":"6.3.1"},{"rt":9022.799999952316,"responses":{"age":"28","gender-categorical":"Male","gender-free-response":"","ethnicity":"Not Hispanic or Latino","race":["White"],"education":"Bachelor degree"},"survey":"demographics","trial_type":"survey-demo","trial_index":1,"time_elapsed":10311,"internal_node_id":"0.0-1.0","experiment":"validation","task_version":"2.0","jspsych_version":"6.3.1"},{"responses":{"Q10":"3","Q06":"3","Q05":"1","Q01":"1","Q09":"1","Q11":"0","Q03":"3","Q08":"3","Q02":"1","Q04":"0","Q07":"1"},"rt":57197.80000001192,"item_order":[9,5,4,0,8,10,2,7,1,3,6],"radio_events":[6605.300000011921,10580.5,11708.600000023842,13372.600000023842,17548.900000035763,20868.600000023842,26220.600000023842,29924.5,33556.60000002384,48676.60000002384,50012.30000001192,55052.60000002384],"key_events":[],"mouse_events":[4476.600000023842,6605.300000011921,8933.5,10580.5,11708.600000023842,13372.600000023842,17101.900000035763,17548.900000035763,20868.600000023842,26220.600000023842,29924.5,31820.600000023842,33060.5,33556.60000002384,48676.60000002384,49020.40000003576,49461.19999998808,50012.30000001192,50388.5,53300.80000001192,54364.5,55052.60000002384,57196.69999998808],"straightlining":0.45454545454545453,"zigzagging":0.2,"honeypot":0,"survey":"nfc10","trial_type":"survey-template","trial_index":2,"time_elapsed":67512,"internal_node_id":"0.0-2.0","experiment":"validation","task_version":"2.0","jspsych_version":"6.3.1","infrequency":0},{"rt":32996.60000002384,"response":{"Q1":4,"Q6":2,"Q0":3,"Q5":4,"Q2":3,"Q8":0,"Q4":5,"Q3":2,"Q7":3},"question_order":[1,6,0,5,2,8,4,3,7],"survey":"sns","trial_type":"survey-likert","trial_index":3,"time_elapsed":100511,"internal_node_id":"0.0-3.0","experiment":"validation","task_version":"2.0","jspsych_version":"6.3.1","infrequency":0},{"responses":{"Q01":"3","Q06":"3","Q09":"1","Q05":"3","Q03":"3","Q04":"3","Q07":"3","Q02":"3","Q08":"3"},"rt":25622.100000023842,"item_order":[0,5,8,4,2,3,6,1,7],"radio_events":[10045.100000023842,11965.100000023842,12286.800000011921,13294,14316.800000011921,16692.900000035763,16957.30000001192,18549.600000023842,19349.5],"key_events":[],"mouse_events":[4733,9645.199999988079,10045.100000023842,11965.100000023842,12286.800000011921,13294,14316.800000011921,14957,15373,15701.699999988079,16285,16692.900000035763,16957.30000001192,17405,18044.900000035763,18549.600000023842,18941.5,19349.5,24262.19999998808,24452.900000035763,25621],"straightlining":1,"zigzagging":0,"honeypot":0,"survey":"pcf","trial_type":"survey-template","trial_index":4,"time_elapsed":126135,"internal_node_id":"0.0-4.0","experiment":"validation","task_version":"2.0","jspsych_version":"6.3.1","infrequency":1},{"value":1,"trial_type":"call-function","trial_index":5,"time_elapsed":126137,"internal_node_id":"0.0-5.0","experiment":"validation","task_version":"2.0","jspsych_version":"6.3.1","interactions":"[{\"event\":\"blur\",\"trial\":2,\"time\":47002},{\"event\":\"focus\",\"trial\":2,\"time\":53894}]"}]