[{"view_history":[{"page_index":0,"viewing_time":2521.699999988079}],"rt":2522.199999988079,"trial_type":"instructions","trial_index":0,"time_elapsed":2533,"internal_node_id":"0.0-0.0","experiment":"validation","task_version":"2.0","jspsych_version":"6.3.1"},{"rt":12125.900000035763,"responses":{"age":"40","gender-categorical":"Male","gender-free-response":"","ethnicity":"Not Hispanic or Latino","race":["Asian","White"],"education":"Master degree or higher"},"survey":"demographics","trial_type":"survey-demo","trial_index":1,"time_elapsed":14661,"internal_node_id":"0.0-1.0","experiment":"validation","task_version":"2.0","jspsych_version":"6.3.1"},{"rt":33759.80000001192,"response":{"Q7":5,"Q3":5,"Q4":4,"Q0":4,"Q1":4,"Q2":4,"Q5":5,"Q6":4,"Q8":0},"question_order":[7,3,4,0,1,2,5,6,8],"survey":"sns","trial_type":"survey-likert","trial_index":2,"time_elapsed":48427,"internal_node_id":"0.0-2.0","experiment":"validation","task_version":"2.0","jspsych_version":"6.3.1","infrequency":0},{"responses":{"Q08":"3","Q10":"3","Q07":"4","Q04":"3","Q02":"3","Q03":"4","Q01":"2","Q05":"3","Q09":"2","Q11":"0","Q06":"2"},"rt":64515.5,"item_order":[7,9,6,3,1,2,0,4,8,10,5],"radio_events":[13608.100000023842,19269.19999998808,23754.899999976158,37115.30000001192,41473.39999997616,43495.19999998808,46815.19999998808,50897.39999997616,53043.30000001192,57825.19999998808,63401.30000001192],"key_events":[],"mouse_events":[13608.100000023842,19269.19999998808,23754.899999976158,37115.30000001192,40825.39999997616,41473.39999997616,43495.19999998808,46815.19999998808,50897.39999997616,53043.30000001192,57825.19999998808,61779.5,62351.60000002384,63401.30000001192,64513.69999998808],"straightlining":0.2727272727272727,"zigzagging":0.3,"honeypot":0,"survey":"nfc10","trial_type":"survey-template","trial_index":3,"time_elapsed":112948,"internal_node_id":"0.0-3.0","experiment":"validation","task_version":"2.0","jspsych_version":"6.3.1","infrequency":0},{"responses":{"Q05":"3","Q09":"4","Q02":"4","Q08":"4","Q01":"4","Q03":"3","Q04":"3","Q06":"3","Q07":"4"},"rt":27479.19999998808,"item_order":[4,8,1,7,0,2,3,5,6],"radio_events":[3479.699999988079,6351.799999952316,9968,13331.699999988079,13879.699999988079,16379.699999988079,17349.799999952316,20091.799999952316,23797.599999964237,24589.599999964237,25335.899999976158,26007.799999952316],"key_events":[],"mouse_events":[3479.699999988079,6351.799999952316,9968,12097.899999976158,13331.699999988079,13879.699999988079,16379.699999988079,17349.799999952316,20091.799999952316,22835.399999976158,23355.69999998808,23797.599999964237,24589.599999964237,25335.899999976158,26007.799999952316,27477.799999952316],"straightlining":0.4444444444444444,"zigzagging":0.375,"honeypot":0,"survey":"pcf","trial_type":"survey-template","trial_index":4,"time_elapsed":140432,"internal_node_id":"0.0-4.0","experiment":"validation","task_version":"2.0","jspsych_version":"6.3.1","infrequency":0},{"value":0,"trial_type":"call-function","trial_index":5,"time_elapsed":140436,"internal_node_id":"0.0-5.0","experiment":"validation","task_version":"2.0","jspsych_version":"6.3.1","interactions":"[]"}]