[{"view_history":[{"page_index":0,"viewing_time":2995.5}],"rt":2995.800000011921,"trial_type":"instructions","trial_index":0,"time_elapsed":3010,"internal_node_id":"0.0-0.0","experiment":"validation","task_version":"2.0","jspsych_version":"6.3.1"},{"rt":15845.89999999106,"responses":{"age":"31","gender-categorical":"Male","gender-free-response":"","ethnicity":"Not Hispanic or Latino","race":["White"],"education":"High school"},"survey":"demographics","trial_type":"survey-demo","trial_index":1,"time_elapsed":18859,"internal_node_id":"0.0-1.0","experiment":"validation","task_version":"2.0","jspsych_version":"6.3.1"},{"responses":{"Q08":"4","Q01":"4","Q02":"4","Q06":"3","Q07":"4","Q05":"4","Q03":"4","Q04":"4","Q09":"4"},"rt":46425.5,"item_order":[7,0,1,5,6,4,2,3,8],"radio_events":[5100.9000000059605,9716.70000000298,12008.20000000298,20537.5,23971.5,26312.09999999404,31626.5,35468.09999999404,38705.70000000298],"key_events":[],"mouse_events":[5100.9000000059605,8053,8990.90000000596,9716.70000000298,12008.20000000298,20537.5,23971.5,25610.09999999404,26312.09999999404,31626.5,35468.09999999404,38705.70000000298,46424.09999999404],"straightlining":0.7777777777777778,"zigzagging":0.375,"honeypot":0,"survey":"pcf","trial_type":"survey-template","trial_index":2,"time_elapsed":65290,"internal_node_id":"0.0-2.0","experiment":"validation","task_version":"2.0","jspsych_version":"6.3.1","infrequency":0},{"rt":41208.29999999702,"response":{"Q4":5,"Q5":5,"Q3":5,"Q1":5,"Q6":0,"Q7":5,"Q0":4,"Q8":0,"Q2":5},"question_order":[4,5,3,1,6,7,0,8,2],"survey":"sns","trial_type":"survey-likert","trial_index":3,"time_elapsed":106503,"internal_node_id":"0.0-3.0","experiment":"validation","task_version":"2.0","jspsych_version":"6.3.1","infrequency":0},{"responses":{"Q03":"3","Q04":"3","Q09":"3","Q07":"3","Q01":"3","Q10":"3","Q02":"3","Q08":"4","Q06":"2","Q05":"3","Q11":"0"},"rt":121001.59999999404,"item_order":[2,3,8,6,0,9,1,7,5,4,10],"radio_events":[9038.5,16839.20000000298,23405.09999999404,25876.09999999404,28118.59999999404,43304.09999999404,62599.70000000298,65356.09999999404,68503.70000000298,76120.89999999106,85014.20000000298,90054.09999999404,92737.09999999404,101098.09999999404,107547],"key_events":[],"mouse_events":[9038.5,16839.20000000298,23405.09999999404,25876.09999999404,28118.59999999404,42733.70000000298,43304.09999999404,62102.09999999404,62599.70000000298,65356.09999999404,68503.70000000298,75468.20000000298,76120.89999999106,85014.20000000298,90054.09999999404,91954.39999999106,92737.09999999404,101098.09999999404,107547,121000.09999999404],"straightlining":0.45454545454545453,"zigzagging":0.3,"honeypot":0,"survey":"nfc10","trial_type":"survey-template","trial_index":4,"time_elapsed":227510,"internal_node_id":"0.0-4.0","experiment":"validation","task_version":"2.0","jspsych_version":"6.3.1","infrequency":0},{"value":0,"trial_type":"call-function","trial_index":5,"time_elapsed":227511,"internal_node_id":"0.0-5.0","experiment":"validation","task_version":"2.0","jspsych_version":"6.3.1","interactions":"[]"}]