[{"view_history":[{"page_index":0,"viewing_time":3934}],"rt":3935.099999964237,"trial_type":"instructions","trial_index":0,"time_elapsed":3942,"internal_node_id":"0.0-0.0","experiment":"validation","task_version":"2.0","jspsych_version":"6.3.1"},{"rt":19630.69999998808,"responses":{"age":"55","gender-categorical":"Female","gender-free-response":"","ethnicity":"Not Hispanic or Latino","race":["Black or African American","White"],"education":"Bachelor degree"},"survey":"demographics","trial_type":"survey-demo","trial_index":1,"time_elapsed":23576,"internal_node_id":"0.0-1.0","experiment":"validation","task_version":"2.0","jspsych_version":"6.3.1"},{"responses":{"Q06":"1","Q04":"3","Q05":"2","Q02":"3","Q01":"3","Q07":"4","Q03":"3","Q09":"4","Q08":"2"},"rt":46028.80000001192,"item_order":[5,3,4,1,0,6,2,8,7],"radio_events":[7093.300000011921,20609.69999998808,24459.69999998808,27293.30000001192,30109.69999998808,33026.40000003576,36026.69999998808,40193.19999998808,42959.60000002384],"key_events":[],"mouse_events":[7093.300000011921,20609.69999998808,24459.69999998808,27293.30000001192,30109.69999998808,33026.40000003576,36026.69999998808,40193.19999998808,42959.60000002384,46026.80000001192],"straightlining":0.4444444444444444,"zigzagging":0.5,"honeypot":0,"survey":"pcf","trial_type":"survey-template","trial_index":2,"time_elapsed":69609,"internal_node_id":"0.0-2.0","experiment":"validation","task_version":"2.0","jspsych_version":"6.3.1","infrequency":0},{"rt":65594.90000003576,"response":{"Q0":1,"Q6":1,"Q3":3,"Q8":0,"Q4":2,"Q1":1,"Q5":4,"Q2":3,"Q7":2},"question_order":[0,6,3,8,4,1,5,2,7],"survey":"sns","trial_type":"survey-likert","trial_index":3,"time_elapsed":135209,"internal_node_id":"0.0-3.0","experiment":"validation","task_version":"2.0","jspsych_version":"6.3.1","infrequency":0},{"responses":{"Q10":"3","Q06":"3","Q08":"4","Q11":"0","Q01":"3","Q03":"4","Q04":"3","Q09":"3","Q05":"3","Q02":"3","Q07":"4"},"rt":57628.30000001192,"item_order":[9,5,7,10,0,2,3,8,4,1,6],"radio_events":[8292.399999976158,11759,14375.199999988079,19192.19999998808,23742.30000001192,26492.19999998808,33325.59999996424,36425.59999996424,40925.89999997616,45408.69999998808,53825.89999997616],"key_events":[],"mouse_events":[8292.399999976158,11759,14375.199999988079,19192.19999998808,23742.30000001192,26492.19999998808,33325.59999996424,36425.59999996424,40925.89999997616,45408.69999998808,53825.89999997616,57626.39999997616],"straightlining":0.45454545454545453,"zigzagging":0.4,"honeypot":0,"survey":"nfc10","trial_type":"survey-template","trial_index":4,"time_elapsed":192840,"internal_node_id":"0.0-4.0","experiment":"validation","task_version":"2.0","jspsych_version":"6.3.1","infrequency":0},{"value":0,"trial_type":"call-function","trial_index":5,"time_elapsed":192844,"internal_node_id":"0.0-5.0","experiment":"validation","task_version":"2.0","jspsych_version":"6.3.1","interactions":"[{\"event\":\"blur\",\"trial\":3,\"time\":83324},{\"event\":\"focus\",\"trial\":3,\"time\":87361}]"}]