[{"view_history":[{"page_index":0,"viewing_time":2191}],"rt":2191.199999988079,"trial_type":"instructions","trial_index":0,"time_elapsed":2197,"internal_node_id":"0.0-0.0","experiment":"validation","task_version":"2.0","jspsych_version":"6.3.1"},{"rt":31107,"responses":{"age":"32","gender-categorical":"Male","gender-free-response":"","ethnicity":"Not Hispanic or Latino","race":["White"],"education":"Some college"},"survey":"demographics","trial_type":"survey-demo","trial_index":1,"time_elapsed":33306,"internal_node_id":"0.0-1.0","experiment":"validation","task_version":"2.0","jspsych_version":"6.3.1"},{"responses":{"Q08":"4","Q02":"4","Q03":"4","Q01":"4","Q06":"4","Q09":"4","Q05":"3","Q07":"4","Q04":"4"},"rt":27203.899999976158,"item_order":[7,1,2,0,5,8,4,6,3],"radio_events":[3383,7335,8263.899999976158,11347,11851,14163,18631.100000023842,20154.899999976158,22738.899999976158],"key_events":[],"mouse_events":[2921,3383,5955.600000023842,6427.100000023842,7008.800000011921,7335,8263.899999976158,9973,10394.699999988079,11347,11851,14163,18631.100000023842,20154.899999976158,22738.899999976158,27202.899999976158],"straightlining":0.7777777777777778,"zigzagging":0.25,"honeypot":0,"survey":"pcf","trial_type":"survey-template","trial_index":2,"time_elapsed":60512,"internal_node_id":"0.0-2.0","experiment":"validation","task_version":"2.0","jspsych_version":"6.3.1","infrequency":0},{"responses":{"Q04":"3","Q06":"2","Q01":"1","Q08":"3","Q07":"2","Q09":"3","Q02":"1","Q10":"4","Q05":"3","Q03":"4","Q11":"0"},"rt":48146.09999996424,"item_order":[3,5,0,7,6,8,1,9,4,2,10],"radio_events":[6305.399999976158,11211.099999964237,13415.300000011921,16859.19999998808,22787.099999964237,25827.19999998808,29635.099999964237,34581.19999998808,38145.09999996424,41443.30000001192,46833.19999998808],"key_events":[],"mouse_events":[6305.399999976158,11211.099999964237,13415.300000011921,16859.19999998808,22787.099999964237,24501.899999976158,24947.30000001192,25827.19999998808,29635.099999964237,34581.19999998808,37137,38145.09999996424,41443.30000001192,46299.19999998808,46833.19999998808,48145.30000001192],"straightlining":0.36363636363636365,"zigzagging":0.5,"honeypot":0,"survey":"nfc10","trial_type":"survey-template","trial_index":3,"time_elapsed":108661,"internal_node_id":"0.0-3.0","experiment":"validation","task_version":"2.0","jspsych_version":"6.3.1","infrequency":0},{"rt":40293.60000002384,"response":{"Q6":1,"Q3":5,"Q4":5,"Q0":5,"Q1":5,"Q8":0,"Q7":5,"Q2":4,"Q5":5},"question_order":[6,3,4,0,1,8,7,2,5],"survey":"sns","trial_type":"survey-likert","trial_index":4,"time_elapsed":148957,"internal_node_id":"0.0-4.0","experiment":"validation","task_version":"2.0","jspsych_version":"6.3.1","infrequency":0},{"value":0,"trial_type":"call-function","trial_index":5,"time_elapsed":148958,"internal_node_id":"0.0-5.0","experiment":"validation","task_version":"2.0","jspsych_version":"6.3.1","interactions":"[{\"event\":\"blur\",\"trial\":1,\"time\":25210},{\"event\":\"focus\",\"trial\":1,\"time\":32235}]"}]