[{"view_history":[{"page_index":0,"viewing_time":5648.300000011921}],"rt":5652.5,"trial_type":"instructions","trial_index":0,"time_elapsed":5661,"internal_node_id":"0.0-0.0","experiment":"validation","task_version":"2.0","jspsych_version":"6.3.1"},{"rt":15281.799999952316,"responses":{"age":"27","gender-categorical":"Male","gender-free-response":"","ethnicity":"Not Hispanic or Latino","race":["Black or African American"],"education":"Less than high school"},"survey":"demographics","trial_type":"survey-demo","trial_index":1,"time_elapsed":20958,"internal_node_id":"0.0-1.0","experiment":"validation","task_version":"2.0","jspsych_version":"6.3.1"},{"responses":{"Q08":"3","Q04":"3","Q03":"3","Q09":"2","Q02":"1","Q10":"2","Q11":"0","Q07":"4","Q01":"3","Q05":"2","Q06":"2"},"rt":153651.79999995232,"item_order":[7,3,2,8,1,9,10,6,0,4,5],"radio_events":[14055.799999952316,20309.599999964237,23519.19999998808,54175.299999952316,59151.09999996424,65626.09999996424,73158.19999998808,89151.69999998808,96768.39999997616,98766.39999997616,102611.69999998808,141737.5,147414],"key_events":[],"mouse_events":[14055.799999952316,17082.899999976158,18442,19408.099999964237,20309.599999964237,21892.5,23519.19999998808,50806.19999998808,54175.299999952316,58331.09999996424,59151.09999996424,65626.09999996424,73158.19999998808,89151.69999998808,95884.09999996424,96768.39999997616,98766.39999997616,102611.69999998808,136456.89999997616,139101,140041.29999995232,140909.89999997616,141737.5,147414,153649.59999996424],"straightlining":0.36363636363636365,"zigzagging":0.6,"honeypot":0,"survey":"nfc10","trial_type":"survey-template","trial_index":2,"time_elapsed":174619,"internal_node_id":"0.0-2.0","experiment":"validation","task_version":"2.0","jspsych_version":"6.3.1","infrequency":0},{"rt":100975.80000001192,"response":{"Q2":1,"Q1":1,"Q0":2,"Q6":1,"Q8":0,"Q5":4,"Q3":3,"Q4":5,"Q7":4},"question_order":[2,1,0,6,8,5,3,4,7],"survey":"sns","trial_type":"survey-likert","trial_index":3,"time_elapsed":275600,"internal_node_id":"0.0-3.0","experiment":"validation","task_version":"2.0","jspsych_version":"6.3.1","infrequency":0},{"responses":{"Q08":"2","Q03":"1","Q09":"4","Q05":"1","Q07":"1","Q04":"2","Q01":"2","Q06":"1","Q02":"1"},"rt":61939.39999997616,"item_order":[7,2,8,4,6,3,0,5,1],"radio_events":[9030.099999964237,12731.299999952316,18334.5,21033.599999964237,25935.5,33483.39999997616,39631.89999997616,51163.89999997616,58592],"key_events":[],"mouse_events":[6087.699999988079,7246.299999952316,9030.099999964237,12731.299999952316,18334.5,21033.599999964237,25935.5,33483.39999997616,38506.19999998808,39631.89999997616,51163.89999997616,57631,58592,61936.299999952316],"straightlining":0.5555555555555556,"zigzagging":0.625,"honeypot":0,"survey":"pcf","trial_type":"survey-template","trial_index":4,"time_elapsed":337545,"internal_node_id":"0.0-4.0","experiment":"validation","task_version":"2.0","jspsych_version":"6.3.1","infrequency":0},{"value":0,"trial_type":"call-function","trial_index":5,"time_elapsed":337549,"internal_node_id":"0.0-5.0","experiment":"validation","task_version":"2.0","jspsych_version":"6.3.1","interactions":"[]"}]