[{"view_history":[{"page_index":0,"viewing_time":1944.8000001907349}],"rt":1945.5,"trial_type":"instructions","trial_index":0,"time_elapsed":1957,"internal_node_id":"0.0-0.0","experiment":"validation","task_version":"2.0","jspsych_version":"6.3.1"},{"rt":15173,"responses":{"age":"22","gender-categorical":"Female","gender-free-response":"","ethnicity":"Not Hispanic or Latino","race":["White"],"education":"Bachelor degree"},"survey":"demographics","trial_type":"survey-demo","trial_index":1,"time_elapsed":17136,"internal_node_id":"0.0-1.0","experiment":"validation","task_version":"2.0","jspsych_version":"6.3.1"},{"responses":{"Q09":"4","Q06":"2","Q03":"3","Q05":"2","Q07":"2","Q02":"3","Q04":"2","Q08":"3","Q01":"3"},"rt":48613.40000009537,"item_order":[8,5,2,4,6,1,3,7,0],"radio_events":[8485.700000286102,15227.700000286102,23698.200000286102,27428.10000038147,32600.200000286102,35663.10000038147,40551.60000038147,44055.40000009537,47672.2000002861],"key_events":[],"mouse_events":[8485.700000286102,14140.700000286102,14702.700000286102,15227.700000286102,23698.200000286102,26504.900000095367,27428.10000038147,29979,32600.200000286102,35663.10000038147,39479.300000190735,40551.60000038147,44055.40000009537,46697.7000002861,47672.2000002861,48609.5],"straightlining":0.4444444444444444,"zigzagging":0.625,"honeypot":0,"survey":"pcf","trial_type":"survey-template","trial_index":2,"time_elapsed":65761,"internal_node_id":"0.0-2.0","experiment":"validation","task_version":"2.0","jspsych_version":"6.3.1","infrequency":0},{"responses":{"Q05":"3","Q07":"2","Q06":"3","Q01":"2","Q10":"3","Q08":"2","Q11":"0","Q04":"2","Q02":"2","Q09":"3","Q03":"3"},"rt":59672,"item_order":[4,6,5,0,9,7,10,3,1,8,2],"radio_events":[8537.699999809265,15770.099999904633,21497.5,24801.199999809265,26378,29590.799999713898,33434.7999997139,39792.2999997139,46073.59999990463,50921,53775.2999997139,58788.09999990463],"key_events":[],"mouse_events":[8537.699999809265,14932.199999809265,15770.099999904633,21497.5,24183.699999809265,24801.199999809265,26378,29590.799999713898,33434.7999997139,39792.2999997139,46073.59999990463,49606.199999809265,50921,53775.2999997139,57074.59999990463,58788.09999990463,59668],"straightlining":0.45454545454545453,"zigzagging":0.6,"honeypot":0,"survey":"nfc10","trial_type":"survey-template","trial_index":3,"time_elapsed":125440,"internal_node_id":"0.0-3.0","experiment":"validation","task_version":"2.0","jspsych_version":"6.3.1","infrequency":0},{"rt":176500.5,"response":{"Q6":1,"Q7":4,"Q1":3,"Q0":2,"Q3":4,"Q2":3,"Q5":4,"Q8":0,"Q4":5},"question_order":[6,7,1,0,3,2,5,8,4],"survey":"sns","trial_type":"survey-likert","trial_index":4,"time_elapsed":301952,"internal_node_id":"0.0-4.0","experiment":"validation","task_version":"2.0","jspsych_version":"6.3.1","infrequency":0},{"value":0,"trial_type":"call-function","trial_index":5,"time_elapsed":301956,"internal_node_id":"0.0-5.0","experiment":"validation","task_version":"2.0","jspsych_version":"6.3.1","interactions":"[]"}]