[{"view_history":[{"page_index":0,"viewing_time":1418.5}],"rt":1418.7999999523163,"trial_type":"instructions","trial_index":0,"time_elapsed":1423,"internal_node_id":"0.0-0.0","experiment":"validation","task_version":"2.0","jspsych_version":"6.3.1"},{"rt":7286.100000023842,"responses":{"age":"25","gender-categorical":"Male","gender-free-response":"","ethnicity":"Not Hispanic or Latino","race":["White"],"education":"High school"},"survey":"demographics","trial_type":"survey-demo","trial_index":1,"time_elapsed":8710,"internal_node_id":"0.0-1.0","experiment":"validation","task_version":"2.0","jspsych_version":"6.3.1"},{"responses":{"Q06":"2","Q09":"4","Q03":"2","Q04":"2","Q02":"1","Q07":"2","Q01":"2","Q05":"1","Q08":"4"},"rt":39334.19999998808,"item_order":[5,8,2,3,1,6,0,4,7],"radio_events":[11509.699999988079,13734.699999988079,17293.80000001192,18937.599999964237,21936.399999976158,25564.5,29001.69999998808,31171.69999998808,31653.5,35032.69999998808,38404.80000001192],"key_events":[],"mouse_events":[10284.899999976158,11509.699999988079,12257.800000011921,12875.599999964237,13734.699999988079,17293.80000001192,18937.599999964237,21330.69999998808,21936.399999976158,25039.30000001192,25564.5,29001.69999998808,31171.69999998808,31653.5,34605.89999997616,35032.69999998808,38404.80000001192,39333.39999997616],"straightlining":0.5555555555555556,"zigzagging":0.375,"honeypot":0,"survey":"pcf","trial_type":"survey-template","trial_index":2,"time_elapsed":48048,"internal_node_id":"0.0-2.0","experiment":"validation","task_version":"2.0","jspsych_version":"6.3.1","infrequency":0},{"responses":{"Q03":"4","Q07":"3","Q05":"4","Q06":"1","Q04":"4","Q01":"3","Q09":"2","Q08":"4","Q02":"3","Q11":"0","Q10":"3"},"rt":51712.299999952316,"item_order":[2,6,4,5,3,0,8,7,1,10,9],"radio_events":[2545.699999988079,11409.399999976158,16098.099999964237,20463.899999976158,22159.399999976158,25032.899999976158,28641.69999998808,30291,34117.59999996424,37660.69999998808,43291.799999952316,47206.89999997616,50874],"key_events":[],"mouse_events":[2545.699999988079,8190.899999976158,11409.399999976158,16098.099999964237,19946.099999964237,20463.899999976158,22159.399999976158,25032.899999976158,28088.099999964237,28641.69999998808,30291,34117.59999996424,37041,37660.69999998808,43291.799999952316,47206.89999997616,50387.5,50874,51711.799999952316],"straightlining":0.36363636363636365,"zigzagging":0.4,"honeypot":0,"survey":"nfc10","trial_type":"survey-template","trial_index":3,"time_elapsed":99762,"internal_node_id":"0.0-3.0","experiment":"validation","task_version":"2.0","jspsych_version":"6.3.1","infrequency":0},{"rt":33558.69999998808,"response":{"Q3":0,"Q1":0,"Q4":3,"Q7":5,"Q0":1,"Q2":0,"Q8":0,"Q5":0,"Q6":0},"question_order":[3,1,4,7,0,2,8,5,6],"survey":"sns","trial_type":"survey-likert","trial_index":4,"time_elapsed":133324,"internal_node_id":"0.0-4.0","experiment":"validation","task_version":"2.0","jspsych_version":"6.3.1","infrequency":0},{"value":0,"trial_type":"call-function","trial_index":5,"time_elapsed":133326,"internal_node_id":"0.0-5.0","experiment":"validation","task_version":"2.0","jspsych_version":"6.3.1","interactions":"[]"}]