[{"view_history":[{"page_index":0,"viewing_time":1502.5}],"rt":1502.699999988079,"trial_type":"instructions","trial_index":0,"time_elapsed":1518,"internal_node_id":"0.0-0.0","experiment":"validation","task_version":"2.0","jspsych_version":"6.3.1"},{"rt":8474.90000000596,"responses":{"age":"21","gender-categorical":"Male","gender-free-response":"","ethnicity":"Hispanic or Latino","race":["White"],"education":"Some college"},"survey":"demographics","trial_type":"survey-demo","trial_index":1,"time_elapsed":9995,"internal_node_id":"0.0-1.0","experiment":"validation","task_version":"2.0","jspsych_version":"6.3.1"},{"rt":37174.69999998808,"response":{"Q8":0,"Q4":3,"Q0":3,"Q5":4,"Q3":4,"Q1":3,"Q6":0,"Q2":3,"Q7":5},"question_order":[8,4,0,5,3,1,6,2,7],"survey":"sns","trial_type":"survey-likert","trial_index":2,"time_elapsed":47175,"internal_node_id":"0.0-2.0","experiment":"validation","task_version":"2.0","jspsych_version":"6.3.1","infrequency":0},{"responses":{"Q02":"4","Q05":"3","Q07":"4","Q09":"4","Q01":"3","Q03":"4","Q04":"4","Q08":"4","Q06":"4"},"rt":22528.90000000596,"item_order":[1,4,6,8,0,2,3,7,5],"radio_events":[6173.0999999940395,7316.700000017881,7798.9000000059605,9176.59999999404,11928.40000000596,13203.59999999404,14318.90000000596,17698.30000001192,19534.80000001192,20562.70000001788,21898.70000001788],"key_events":[],"mouse_events":[4567.9000000059605,5334.5999999940395,5828.700000017881,6173.0999999940395,7316.700000017881,7798.9000000059605,9176.59999999404,11401.800000011921,11928.40000000596,13203.59999999404,13834.800000011921,14318.90000000596,16949.30000001192,17698.30000001192,18091.80000001192,18464,19534.80000001192,20562.70000001788,21898.70000001788,22527.80000001192],"straightlining":0.6666666666666666,"zigzagging":0.5,"honeypot":0,"survey":"pcf","trial_type":"survey-template","trial_index":3,"time_elapsed":69710,"internal_node_id":"0.0-3.0","experiment":"validation","task_version":"2.0","jspsych_version":"6.3.1","infrequency":0},{"responses":{"Q10":"3","Q01":"3","Q04":"4","Q07":"3","Q08":"4","Q03":"3","Q05":"4","Q06":"2","Q11":"0","Q02":"2","Q09":"3"},"rt":59644.29999998212,"item_order":[9,0,3,6,7,2,4,5,10,1,8],"radio_events":[7725.699999988079,10470.699999988079,10509.399999976158,14094.699999988079,18569.5,21343.69999998808,23969.69999998808,43979.59999999404,46583.5,50134.19999998808,56007.5,57463.5,58646.59999999404],"key_events":[],"mouse_events":[6962.399999976158,7286.699999988079,7725.699999988079,10470.699999988079,10509.399999976158,14094.699999988079,17080.399999976158,17891.59999999404,18215.5,18569.5,19403.59999999404,21343.69999998808,22307.5,22635.59999999404,23410.5,23695.399999976158,23969.69999998808,43089.5,43575.5,43979.59999999404,46222.59999999404,46583.5,50134.19999998808,51821.59999999404,55601.19999998808,56007.5,57463.5,58117.29999998212,58646.59999999404,59643.39999997616],"straightlining":0.36363636363636365,"zigzagging":0.3,"honeypot":0,"survey":"nfc10","trial_type":"survey-template","trial_index":4,"time_elapsed":129359,"internal_node_id":"0.0-4.0","experiment":"validation","task_version":"2.0","jspsych_version":"6.3.1","infrequency":0},{"value":0,"trial_type":"call-function","trial_index":5,"time_elapsed":129362,"internal_node_id":"0.0-5.0","experiment":"validation","task_version":"2.0","jspsych_version":"6.3.1","interactions":"[]"}]