[{"view_history":[{"page_index":0,"viewing_time":5115.80000000447}],"rt":5116,"trial_type":"instructions","trial_index":0,"time_elapsed":5124,"internal_node_id":"0.0-0.0","experiment":"validation","task_version":"2.0","jspsych_version":"6.3.1"},{"rt":5720.89999999851,"responses":{"age":"32","gender-categorical":"Male","gender-free-response":"","ethnicity":"Not Hispanic or Latino","race":["White"],"education":"Some college"},"survey":"demographics","trial_type":"survey-demo","trial_index":1,"time_elapsed":10847,"internal_node_id":"0.0-1.0","experiment":"validation","task_version":"2.0","jspsych_version":"6.3.1"},{"rt":17827.29999999702,"response":{"Q5":4,"Q1":5,"Q4":5,"Q6":1,"Q2":5,"Q3":5,"Q8":0,"Q7":5,"Q0":4},"question_order":[5,1,4,6,2,3,8,7,0],"survey":"sns","trial_type":"survey-likert","trial_index":2,"time_elapsed":28677,"internal_node_id":"0.0-2.0","experiment":"validation","task_version":"2.0","jspsych_version":"6.3.1","infrequency":0},{"responses":{"Q07":"4","Q10":"4","Q03":"4","Q06":"4","Q09":"3","Q04":"4","Q11":"0","Q05":"4","Q08":"4","Q02":"4","Q01":"4"},"rt":30391.59999999404,"item_order":[6,9,2,5,8,3,10,4,7,1,0],"radio_events":[8736.59999999404,12274.39999999851,13450.39999999851,14309.39999999851,15538.29999999702,16884.19999999553,18366.5,20845.5,22799.29999999702,25866.29999999702,29017.39999999851,29859.39999999851],"key_events":[],"mouse_events":[1285.3999999985099,1616.2999999970198,1825.5999999940395,2019.2999999970198,2228.2999999970198,5637.29999999702,7648.5,8010.39999999851,8349.29999999702,8736.59999999404,12274.39999999851,13450.39999999851,14309.39999999851,15538.29999999702,16884.19999999553,18366.5,20522.5,20845.5,22477.39999999851,22799.29999999702,25866.29999999702,29017.39999999851,29859.39999999851,30390.5],"straightlining":0.5454545454545454,"zigzagging":0.4,"honeypot":0,"survey":"nfc10","trial_type":"survey-template","trial_index":3,"time_elapsed":59072,"internal_node_id":"0.0-3.0","experiment":"validation","task_version":"2.0","jspsych_version":"6.3.1","infrequency":0},{"responses":{"Q04":"3","Q07":"4","Q08":"4","Q06":"2","Q02":"4","Q01":"4","Q05":"4","Q03":"4","Q09":"4"},"rt":15233.20000000298,"item_order":[3,6,7,5,1,0,4,2,8],"radio_events":[3108.3000000044703,4494.30000000447,5428.30000000447,7153.20000000298,8503.20000000298,9414.30000000447,9812.90000000596,11505.30000000447,13326.30000000447],"key_events":[],"mouse_events":[3108.3000000044703,4494.30000000447,5428.30000000447,7153.20000000298,8503.20000000298,9414.30000000447,9812.90000000596,10352.5,11505.30000000447,13326.30000000447,15232.40000000596],"straightlining":0.6666666666666666,"zigzagging":0.25,"honeypot":0,"survey":"pcf","trial_type":"survey-template","trial_index":4,"time_elapsed":74307,"internal_node_id":"0.0-4.0","experiment":"validation","task_version":"2.0","jspsych_version":"6.3.1","infrequency":0},{"value":0,"trial_type":"call-function","trial_index":5,"time_elapsed":74309,"internal_node_id":"0.0-5.0","experiment":"validation","task_version":"2.0","jspsych_version":"6.3.1","interactions":"[{\"event\":\"blur\",\"trial\":0,\"time\":2451},{\"event\":\"focus\",\"trial\":0,\"time\":4397},{\"event\":\"blur\",\"trial\":2,\"time\":24443},{\"event\":\"focus\",\"trial\":2,\"time\":28598},{\"event\":\"blur\",\"trial\":3,\"time\":32750},{\"event\":\"focus\",\"trial\":3,\"time\":34188},{\"event\":\"focus\",\"trial\":3,\"time\":34188}]"}]