[{"view_history":[{"page_index":0,"viewing_time":3895.2000000178814}],"rt":3896.9000000059605,"trial_type":"instructions","trial_index":0,"time_elapsed":3911,"internal_node_id":"0.0-0.0","experiment":"validation","task_version":"2.0","jspsych_version":"6.3.1"},{"rt":20816.59999999404,"responses":{"age":"48","gender-categorical":"Female","gender-free-response":"","ethnicity":"Not Hispanic or Latino","race":["White"],"education":"Bachelor degree"},"survey":"demographics","trial_type":"survey-demo","trial_index":1,"time_elapsed":24735,"internal_node_id":"0.0-1.0","experiment":"validation","task_version":"2.0","jspsych_version":"6.3.1"},{"responses":{"Q10":"3","Q02":"2","Q03":"2","Q06":"2","Q11":"0","Q08":"3","Q04":"3","Q09":"2","Q01":"3","Q07":"3","Q05":"3"},"rt":114669.29999998212,"item_order":[9,1,2,5,10,7,3,8,0,6,4],"radio_events":[16788.899999976158,35937.89999997616,40514.79999998212,50639.59999999404,53817,61963.5,70459.69999998808,80158.5,93290.79999998212,101082.09999999404,106348,112863.69999998808],"key_events":[],"mouse_events":[16095.699999988079,16788.899999976158,32150.19999998808,33589.29999998212,35937.89999997616,38297,39341.89999997616,40514.79999998212,50639.59999999404,52445.59999999404,53817,61963.5,69212.5,69813.09999999404,70459.69999998808,80158.5,93290.79999998212,98585.5,99525.39999997616,101082.09999999404,105679.19999998808,106348,112069.39999997616,112863.69999998808,114664],"straightlining":0.36363636363636365,"zigzagging":0.3,"honeypot":0,"survey":"nfc10","trial_type":"survey-template","trial_index":2,"time_elapsed":139421,"internal_node_id":"0.0-2.0","experiment":"validation","task_version":"2.0","jspsych_version":"6.3.1","infrequency":0},{"responses":{"Q07":"4","Q02":"3","Q03":"2","Q05":"2","Q01":"4","Q04":"3","Q09":"4","Q06":"1","Q08":"3"},"rt":64235.30000001192,"item_order":[6,1,2,4,0,3,8,5,7],"radio_events":[7328.199999988079,13531.59999999404,20745.5,23824.80000001192,26895.5,29908.59999999404,32244.40000000596,39446.90000000596,40812.30000001192,43601.19999998808,45584.90000000596,54978.69999998808,60528.80000001192,62803],"key_events":[],"mouse_events":[7328.199999988079,11261.90000000596,12475.800000011921,13531.59999999404,20745.5,22535.40000000596,23209,23824.80000001192,26895.5,29335.40000000596,29908.59999999404,32244.40000000596,39446.90000000596,40220.69999998808,40812.30000001192,43601.19999998808,45584.90000000596,53747.40000000596,54285.09999999404,54978.69999998808,59783.30000001192,60528.80000001192,62803,64231.80000001192],"straightlining":0.3333333333333333,"zigzagging":0.5,"honeypot":0,"survey":"pcf","trial_type":"survey-template","trial_index":3,"time_elapsed":203668,"internal_node_id":"0.0-3.0","experiment":"validation","task_version":"2.0","jspsych_version":"6.3.1","infrequency":0},{"rt":67005.5,"response":{"Q0":4,"Q1":4,"Q2":4,"Q4":4,"Q5":3,"Q3":3,"Q6":1,"Q8":0,"Q7":4},"question_order":[0,1,2,4,5,3,6,8,7],"survey":"sns","trial_type":"survey-likert","trial_index":4,"time_elapsed":270687,"internal_node_id":"0.0-4.0","experiment":"validation","task_version":"2.0","jspsych_version":"6.3.1","infrequency":0},{"value":0,"trial_type":"call-function","trial_index":5,"time_elapsed":270692,"internal_node_id":"0.0-5.0","experiment":"validation","task_version":"2.0","jspsych_version":"6.3.1","interactions":"[{\"event\":\"blur\",\"trial\":1,\"time\":6278},{\"event\":\"focus\",\"trial\":1,\"time\":7805}]"}]