[{"view_history":[{"page_index":0,"viewing_time":11992.300000000745}],"rt":11994.5,"trial_type":"instructions","trial_index":0,"time_elapsed":12077,"internal_node_id":"0.0-0.0","experiment":"validation","task_version":"2.0","jspsych_version":"6.3.1"},{"rt":10141.699999999255,"responses":{"age":"32","gender-categorical":"Female","gender-free-response":"","ethnicity":"Hispanic or Latino","race":["White"],"education":"Bachelor degree"},"survey":"demographics","trial_type":"survey-demo","trial_index":1,"time_elapsed":22224,"internal_node_id":"0.0-1.0","experiment":"validation","task_version":"2.0","jspsych_version":"6.3.1"},{"responses":{"Q03":"4","Q09":"4","Q02":"4","Q08":"4","Q07":"4","Q06":"4","Q01":"4","Q05":"4","Q04":"4"},"rt":41030.70000000112,"item_order":[2,8,1,7,6,5,0,4,3],"radio_events":[3727.5,6828.300000000745,9614.400000000373,12465.700000001118,14651.599999999627,18151.800000000745,18751.900000000373,22425.800000000745,23338.400000000373,26627.599999999627,29001.900000000373,30076.700000001118,32188.5],"key_events":[],"mouse_events":[3727.5,5753.200000001118,6314.200000001118,6828.300000000745,9101.800000000745,9614.400000000373,11577.099999999627,12041.200000001118,12465.700000001118,14651.599999999627,18151.800000000745,18751.900000000373,22425.800000000745,23338.400000000373,26627.599999999627,29001.900000000373,30076.700000001118,30938.200000001118,31637.800000000745,32188.5,41026.70000000112],"straightlining":0.8888888888888888,"zigzagging":0.25,"honeypot":0,"survey":"pcf","trial_type":"survey-template","trial_index":2,"time_elapsed":63265,"internal_node_id":"0.0-2.0","experiment":"validation","task_version":"2.0","jspsych_version":"6.3.1","infrequency":0},{"rt":44758.90000000037,"response":{"Q2":2,"Q3":2,"Q5":4,"Q7":3,"Q4":3,"Q8":0,"Q0":0,"Q1":2,"Q6":1},"question_order":[2,3,5,7,4,8,0,1,6],"survey":"sns","trial_type":"survey-likert","trial_index":3,"time_elapsed":108034,"internal_node_id":"0.0-3.0","experiment":"validation","task_version":"2.0","jspsych_version":"6.3.1","infrequency":0},{"responses":{"Q03":"3","Q04":"3","Q05":"4","Q01":"3","Q09":"3","Q06":"3","Q07":"4","Q11":"0","Q02":"3","Q08":"3","Q10":"3"},"rt":69368,"item_order":[2,3,4,0,8,5,6,10,1,7,9],"radio_events":[2427.9000000003725,6166.200000001118,11066.400000000373,16028.599999999627,17927.700000001118,20653.099999999627,44002.09999999963,50367.20000000112,61315.5,62228.5,68189.5],"key_events":[],"mouse_events":[2427.9000000003725,4716.5999999996275,5303.4000000003725,6166.200000001118,10204,11066.400000000373,16028.599999999627,17927.700000001118,20653.099999999627,28602.900000000373,31252.900000000373,31479.300000000745,31666.200000001118,35302.300000000745,35401.800000000745,35628.800000000745,36477.09999999963,36564.300000000745,36792.20000000112,37627.800000000745,37728.5,37927.40000000037,38116.09999999963,39214.59999999963,40165.40000000037,40277.300000000745,40516.09999999963,44002.09999999963,50367.20000000112,51390.70000000112,52903.70000000112,53003.90000000037,53239.5,59415.5,60502,61315.5,62228.5,65053.59999999963,68189.5,69365.70000000112],"straightlining":0.5454545454545454,"zigzagging":0.3,"honeypot":0,"survey":"nfc10","trial_type":"survey-template","trial_index":4,"time_elapsed":177409,"internal_node_id":"0.0-4.0","experiment":"validation","task_version":"2.0","jspsych_version":"6.3.1","infrequency":0},{"value":0,"trial_type":"call-function","trial_index":5,"time_elapsed":177413,"internal_node_id":"0.0-5.0","experiment":"validation","task_version":"2.0","jspsych_version":"6.3.1","interactions":"[]"}]