[{"success":true,"timeout":false,"failed_images":[],"failed_audio":[],"failed_video":[],"trial_type":"preload","trial_index":0,"time_elapsed":5009,"internal_node_id":"0.0-0.0","experiment":"validation-B","task_version":"2.0","jspsych_version":"6.3.1"},{"success":true,"trial_type":"fullscreen","trial_index":1,"time_elapsed":8840,"internal_node_id":"0.0-1.0","experiment":"validation-B","task_version":"2.0","jspsych_version":"6.3.1"},{"view_history":[{"page_index":0,"viewing_time":1528},{"page_index":1,"viewing_time":3982.399999999441},{"page_index":2,"viewing_time":3400.300000000745},{"page_index":3,"viewing_time":1066.5999999996275}],"rt":9978.700000000186,"trial_type":"instructions","trial_index":2,"time_elapsed":18821,"internal_node_id":"0.0-3.0","experiment":"validation-B","task_version":"2.0","jspsych_version":"6.3.1"},{"item":5,"shape_set":1,"distractor":"pd","choice_order":[2,0,3,1],"correct":0,"choice":0,"accuracy":1,"rt":3662.2000000001863,"screen_resolution":[1440,900],"minimum_resolution":1,"all_loaded":true,"item_set":"practice","trial_type":"mars","trial_index":3,"time_elapsed":23240,"internal_node_id":"0.0-4.0-0.0","experiment":"validation-B","task_version":"2.0","jspsych_version":"6.3.1"},{"item":2,"shape_set":1,"distractor":"pd","choice_order":[2,0,1,3],"correct":0,"choice":0,"accuracy":1,"rt":3459.800000000745,"screen_resolution":[1440,900],"minimum_resolution":1,"all_loaded":true,"item_set":"practice","trial_type":"mars","trial_index":4,"time_elapsed":27454,"internal_node_id":"0.0-5.0-0.0","experiment":"validation-B","task_version":"2.0","jspsych_version":"6.3.1"},{"item":8,"shape_set":1,"distractor":"pd","choice_order":[1,2,0,3],"correct":0,"choice":0,"accuracy":1,"rt":5592.700000000186,"screen_resolution":[1440,900],"minimum_resolution":1,"all_loaded":true,"item_set":"practice","trial_type":"mars","trial_index":5,"time_elapsed":33804,"internal_node_id":"0.0-6.0-0.0","experiment":"validation-B","task_version":"2.0","jspsych_version":"6.3.1"},{"view_history":[{"page_index":0,"viewing_time":1608.1000000005588},{"page_index":1,"viewing_time":7650.200000000186}],"rt":9258.800000000745,"trial_type":"instructions","trial_index":6,"time_elapsed":43070,"internal_node_id":"0.0-7.0","experiment":"validation-B","task_version":"2.0","jspsych_version":"6.3.1"},{"rt":null,"stimulus":"<div style=\"font-size:24px;\">Loading puzzle:<br>1 / 24</div>","response":null,"trial_type":"html-keyboard-response","trial_index":7,"time_elapsed":44273,"internal_node_id":"0.0-8.0-1.0","experiment":"validation-B","task_version":"2.0","jspsych_version":"6.3.1"},{"item":45,"shape_set":1,"distractor":"pd","choice_order":[0,2,1,3],"correct":0,"choice":2,"accuracy":0,"rt":28210.5,"screen_resolution":[1440,900],"minimum_resolution":1,"all_loaded":true,"item_set":3,"long_form":2,"trial_type":"mars","trial_index":8,"time_elapsed":72487,"internal_node_id":"0.0-8.0-2.0","experiment":"validation-B","task_version":"2.0","jspsych_version":"6.3.1","browser_interactions":0},{"rt":null,"stimulus":"<div style=\"font-size:24px;\">Loading puzzle:<br>2 / 24</div>","response":null,"trial_type":"html-keyboard-response","trial_index":9,"time_elapsed":73694,"internal_node_id":"0.0-9.0-1.0","experiment":"validation-B","task_version":"2.0","jspsych_version":"6.3.1"},{"item":30,"shape_set":1,"distractor":"pd","choice_order":[0,3,1,2],"correct":0,"choice":0,"accuracy":1,"rt":23424.099999999627,"screen_resolution":[1440,900],"minimum_resolution":1,"all_loaded":true,"item_set":3,"long_form":2,"trial_type":"mars","trial_index":10,"time_elapsed":97120,"internal_node_id":"0.0-9.0-2.0","experiment":"validation-B","task_version":"2.0","jspsych_version":"6.3.1","browser_interactions":0},{"rt":null,"stimulus":"<div style=\"font-size:24px;\">Loading puzzle:<br>3 / 24</div>","response":null,"trial_type":"html-keyboard-response","trial_index":11,"time_elapsed":98327,"internal_node_id":"0.0-10.0-1.0","experiment":"validation-B","task_version":"2.0","jspsych_version":"6.3.1"},{"item":55,"shape_set":3,"distractor":"pd","choice_order":[1,0,2,3],"correct":0,"choice":0,"accuracy":1,"rt":14641.799999999814,"screen_resolution":[1440,900],"minimum_resolution":1,"all_loaded":true,"item_set":3,"long_form":2,"trial_type":"mars","trial_index":12,"time_elapsed":112970,"internal_node_id":"0.0-10.0-2.0","experiment":"validation-B","task_version":"2.0","jspsych_version":"6.3.1","browser_interactions":0},{"rt":null,"stimulus":"<div style=\"font-size:24px;\">Loading puzzle:<br>4 / 24</div>","response":null,"trial_type":"html-keyboard-response","trial_index":13,"time_elapsed":114177,"internal_node_id":"0.0-11.0-1.0","experiment":"validation-B","task_version":"2.0","jspsych_version":"6.3.1"},{"item":58,"shape_set":2,"distractor":"md","choice_order":[3,2,0,1],"correct":0,"choice":0,"accuracy":1,"rt":21325.099999999627,"screen_resolution":[1440,900],"minimum_resolution":1,"all_loaded":true,"item_set":3,"long_form":2,"trial_type":"mars","trial_index":14,"time_elapsed":135504,"internal_node_id":"0.0-11.0-2.0","experiment":"validation-B","task_version":"2.0","jspsych_version":"6.3.1","browser_interactions":0},{"rt":null,"stimulus":"<div style=\"font-size:24px;\">Loading puzzle:<br>5 / 24</div>","response":null,"trial_type":"html-keyboard-response","trial_index":15,"time_elapsed":136714,"internal_node_id":"0.0-12.0-1.0","experiment":"validation-B","task_version":"2.0","jspsych_version":"6.3.1"},{"item":42,"shape_set":1,"distractor":"pd","choice_order":[0,1,3,2],"correct":0,"choice":0,"accuracy":1,"rt":21421.200000000186,"screen_resolution":[1440,900],"minimum_resolution":1,"all_loaded":true,"item_set":3,"long_form":2,"trial_type":"mars","trial_index":16,"time_elapsed":158137,"internal_node_id":"0.0-12.0-2.0","experiment":"validation-B","task_version":"2.0","jspsych_version":"6.3.1","browser_interactions":0},{"rt":null,"stimulus":"<div style=\"font-size:24px;\">Loading puzzle:<br>6 / 24</div>","response":null,"trial_type":"html-keyboard-response","trial_index":17,"time_elapsed":159345,"internal_node_id":"0.0-13.0-1.0","experiment":"validation-B","task_version":"2.0","jspsych_version":"6.3.1"},{"item":52,"shape_set":2,"distractor":"pd","choice_order":[3,2,1,0],"correct":0,"choice":0,"accuracy":1,"rt":18456.700000000186,"screen_resolution":[1440,900],"minimum_resolution":1,"all_loaded":true,"item_set":3,"long_form":2,"trial_type":"mars","trial_index":18,"time_elapsed":177804,"internal_node_id":"0.0-13.0-2.0","experiment":"validation-B","task_version":"2.0","jspsych_version":"6.3.1","browser_interactions":0},{"rt":null,"stimulus":"<div style=\"font-size:24px;\">Loading puzzle:<br>7 / 24</div>","response":null,"trial_type":"html-keyboard-response","trial_index":19,"time_elapsed":179014,"internal_node_id":"0.0-14.0-1.0","experiment":"validation-B","task_version":"2.0","jspsych_version":"6.3.1"},{"item":29,"shape_set":3,"distractor":"pd","choice_order":[0,2,1,3],"correct":0,"choice":0,"accuracy":1,"rt":11137.899999999441,"screen_resolution":[1440,900],"minimum_resolution":1,"all_loaded":true,"item_set":3,"long_form":2,"trial_type":"mars","trial_index":20,"time_elapsed":190154,"internal_node_id":"0.0-14.0-2.0","experiment":"validation-B","task_version":"2.0","jspsych_version":"6.3.1","browser_interactions":0},{"rt":null,"stimulus":"<div style=\"font-size:24px;\">Loading puzzle:<br>8 / 24</div>","response":null,"trial_type":"html-keyboard-response","trial_index":21,"time_elapsed":191361,"internal_node_id":"0.0-15.0-1.0","experiment":"validation-B","task_version":"2.0","jspsych_version":"6.3.1"},{"item":24,"shape_set":1,"distractor":"pd","choice_order":[0,2,1,3],"correct":0,"choice":0,"accuracy":1,"rt":10341.200000000186,"screen_resolution":[1440,900],"minimum_resolution":1,"all_loaded":true,"item_set":3,"long_form":2,"trial_type":"mars","trial_index":22,"time_elapsed":201704,"internal_node_id":"0.0-15.0-2.0","experiment":"validation-B","task_version":"2.0","jspsych_version":"6.3.1","browser_interactions":0},{"rt":null,"stimulus":"<div style=\"font-size:24px;\">Loading puzzle:<br>9 / 24</div>","response":null,"trial_type":"html-keyboard-response","trial_index":23,"time_elapsed":202915,"internal_node_id":"0.0-16.0-1.0","experiment":"validation-B","task_version":"2.0","jspsych_version":"6.3.1"},{"item":17,"shape_set":2,"distractor":"pd","choice_order":[1,0,2,3],"correct":0,"choice":0,"accuracy":1,"rt":20921.299999999814,"screen_resolution":[1440,900],"minimum_resolution":1,"all_loaded":true,"item_set":3,"long_form":2,"trial_type":"mars","trial_index":24,"time_elapsed":223838,"internal_node_id":"0.0-16.0-2.0","experiment":"validation-B","task_version":"2.0","jspsych_version":"6.3.1","browser_interactions":0},{"rt":null,"stimulus":"<div style=\"font-size:24px;\">Loading puzzle:<br>10 / 24</div>","response":null,"trial_type":"html-keyboard-response","trial_index":25,"time_elapsed":225044,"internal_node_id":"0.0-17.0-1.0","experiment":"validation-B","task_version":"2.0","jspsych_version":"6.3.1"},{"item":76,"shape_set":2,"distractor":"pd","choice_order":[1,3,2,0],"correct":0,"choice":0,"accuracy":1,"rt":6226,"screen_resolution":[1440,900],"minimum_resolution":1,"all_loaded":true,"item_set":3,"long_form":2,"trial_type":"mars","trial_index":26,"time_elapsed":231272,"internal_node_id":"0.0-17.0-2.0","experiment":"validation-B","task_version":"2.0","jspsych_version":"6.3.1","browser_interactions":0},{"rt":null,"stimulus":"<div style=\"font-size:24px;\">Loading puzzle:<br>11 / 24</div>","response":null,"trial_type":"html-keyboard-response","trial_index":27,"time_elapsed":232481,"internal_node_id":"0.0-18.0-1.0","experiment":"validation-B","task_version":"2.0","jspsych_version":"6.3.1"},{"item":75,"shape_set":3,"distractor":"pd","choice_order":[3,1,0,2],"correct":0,"choice":0,"accuracy":1,"rt":13571.899999999441,"screen_resolution":[1440,900],"minimum_resolution":1,"all_loaded":true,"item_set":3,"long_form":2,"trial_type":"mars","trial_index":28,"time_elapsed":246055,"internal_node_id":"0.0-18.0-2.0","experiment":"validation-B","task_version":"2.0","jspsych_version":"6.3.1","browser_interactions":0},{"rt":null,"stimulus":"<div style=\"font-size:24px;\">Loading puzzle:<br>12 / 24</div>","response":null,"trial_type":"html-keyboard-response","trial_index":29,"time_elapsed":247265,"internal_node_id":"0.0-19.0-1.0","experiment":"validation-B","task_version":"2.0","jspsych_version":"6.3.1"},{"item":72,"shape_set":2,"distractor":"pd","choice_order":[1,2,0,3],"correct":0,"choice":0,"accuracy":1,"rt":17988.299999999814,"screen_resolution":[1440,900],"minimum_resolution":1,"all_loaded":true,"item_set":3,"long_form":2,"trial_type":"mars","trial_index":30,"time_elapsed":265255,"internal_node_id":"0.0-19.0-2.0","experiment":"validation-B","task_version":"2.0","jspsych_version":"6.3.1","browser_interactions":0},{"view_history":[{"page_index":0,"viewing_time":12728.299999999814},{"page_index":1,"viewing_time":1650.2000000001863}],"rt":14379,"trial_type":"instructions","trial_index":31,"time_elapsed":279638,"internal_node_id":"0.0-20.0","experiment":"validation-B","task_version":"2.0","jspsych_version":"6.3.1"},{"rt":null,"stimulus":"<div style=\"font-size:24px;\">Loading puzzle:<br>13 / 24</div>","response":null,"trial_type":"html-keyboard-response","trial_index":32,"time_elapsed":280844,"internal_node_id":"0.0-21.0-1.0","experiment":"validation-B","task_version":"2.0","jspsych_version":"6.3.1"},{"item":35,"shape_set":2,"distractor":"pd","choice_order":[3,0,2,1],"correct":0,"choice":0,"accuracy":1,"rt":26092.700000000186,"screen_resolution":[1440,900],"minimum_resolution":1,"all_loaded":true,"item_set":3,"long_form":2,"trial_type":"mars","trial_index":33,"time_elapsed":306939,"internal_node_id":"0.0-21.0-2.0","experiment":"validation-B","task_version":"2.0","jspsych_version":"6.3.1","browser_interactions":0},{"rt":null,"stimulus":"<div style=\"font-size:24px;\">Loading puzzle:<br>14 / 24</div>","response":null,"trial_type":"html-keyboard-response","trial_index":34,"time_elapsed":308145,"internal_node_id":"0.0-22.0-1.0","experiment":"validation-B","task_version":"2.0","jspsych_version":"6.3.1"},{"item":36,"shape_set":1,"distractor":"pd","choice_order":[3,1,0,2],"correct":0,"choice":0,"accuracy":1,"rt":23024.700000000186,"screen_resolution":[1440,900],"minimum_resolution":1,"all_loaded":true,"item_set":3,"long_form":2,"trial_type":"mars","trial_index":35,"time_elapsed":331172,"internal_node_id":"0.0-22.0-2.0","experiment":"validation-B","task_version":"2.0","jspsych_version":"6.3.1","browser_interactions":0},{"rt":null,"stimulus":"<div style=\"font-size:24px;\">Loading puzzle:<br>15 / 24</div>","response":null,"trial_type":"html-keyboard-response","trial_index":36,"time_elapsed":332382,"internal_node_id":"0.0-23.0-1.0","experiment":"validation-B","task_version":"2.0","jspsych_version":"6.3.1"},{"item":64,"shape_set":3,"distractor":"pd","choice_order":[1,3,0,2],"correct":0,"choice":0,"accuracy":1,"rt":13704.200000000186,"screen_resolution":[1440,900],"minimum_resolution":1,"all_loaded":true,"item_set":3,"long_form":2,"trial_type":"mars","trial_index":37,"time_elapsed":346088,"internal_node_id":"0.0-23.0-2.0","experiment":"validation-B","task_version":"2.0","jspsych_version":"6.3.1","browser_interactions":0},{"rt":null,"stimulus":"<div style=\"font-size:24px;\">Loading puzzle:<br>16 / 24</div>","response":null,"trial_type":"html-keyboard-response","trial_index":38,"time_elapsed":347294,"internal_node_id":"0.0-24.0-1.0","experiment":"validation-B","task_version":"2.0","jspsych_version":"6.3.1"},{"item":80,"shape_set":1,"distractor":"pd","choice_order":[2,0,1,3],"correct":0,"choice":0,"accuracy":1,"rt":8992.100000000559,"screen_resolution":[1440,900],"minimum_resolution":1,"all_loaded":true,"item_set":3,"long_form":2,"trial_type":"mars","trial_index":39,"time_elapsed":356288,"internal_node_id":"0.0-24.0-2.0","experiment":"validation-B","task_version":"2.0","jspsych_version":"6.3.1","browser_interactions":0},{"rt":null,"stimulus":"<div style=\"font-size:24px;\">Loading puzzle:<br>17 / 24</div>","response":null,"trial_type":"html-keyboard-response","trial_index":40,"time_elapsed":357495,"internal_node_id":"0.0-25.0-1.0","experiment":"validation-B","task_version":"2.0","jspsych_version":"6.3.1"},{"item":74,"shape_set":1,"distractor":"pd","choice_order":[3,2,0,1],"correct":0,"choice":0,"accuracy":1,"rt":27658.400000000373,"screen_resolution":[1440,900],"minimum_resolution":1,"all_loaded":true,"item_set":3,"long_form":2,"trial_type":"mars","trial_index":41,"time_elapsed":385154,"internal_node_id":"0.0-25.0-2.0","experiment":"validation-B","task_version":"2.0","jspsych_version":"6.3.1","browser_interactions":0},{"rt":null,"stimulus":"<div style=\"font-size:24px;\">Loading puzzle:<br>18 / 24</div>","response":null,"trial_type":"html-keyboard-response","trial_index":42,"time_elapsed":386359,"internal_node_id":"0.0-26.0-1.0","experiment":"validation-B","task_version":"2.0","jspsych_version":"6.3.1"},{"item":46,"shape_set":2,"distractor":"pd","choice_order":[2,1,0,3],"correct":0,"choice":null,"accuracy":null,"rt":null,"screen_resolution":[1440,900],"minimum_resolution":1,"all_loaded":true,"item_set":3,"long_form":2,"trial_type":"mars","trial_index":43,"time_elapsed":416364,"internal_node_id":"0.0-26.0-2.0","experiment":"validation-B","task_version":"2.0","jspsych_version":"6.3.1","browser_interactions":0},{"rt":null,"stimulus":"<div style=\"font-size:24px;\">Loading puzzle:<br>19 / 24</div>","response":null,"trial_type":"html-keyboard-response","trial_index":44,"time_elapsed":417570,"internal_node_id":"0.0-27.0-1.0","experiment":"validation-B","task_version":"2.0","jspsych_version":"6.3.1"},{"item":59,"shape_set":2,"distractor":"pd","choice_order":[2,0,1,3],"correct":0,"choice":0,"accuracy":1,"rt":14817.599999999627,"screen_resolution":[1440,900],"minimum_resolution":1,"all_loaded":true,"item_set":3,"long_form":2,"trial_type":"mars","trial_index":45,"time_elapsed":432389,"internal_node_id":"0.0-27.0-2.0","experiment":"validation-B","task_version":"2.0","jspsych_version":"6.3.1","browser_interactions":0},{"rt":null,"stimulus":"<div style=\"font-size:24px;\">Loading puzzle:<br>20 / 24</div>","response":null,"trial_type":"html-keyboard-response","trial_index":46,"time_elapsed":433596,"internal_node_id":"0.0-28.0-1.0","experiment":"validation-B","task_version":"2.0","jspsych_version":"6.3.1"},{"item":66,"shape_set":3,"distractor":"pd","choice_order":[0,2,3,1],"correct":0,"choice":null,"accuracy":null,"rt":null,"screen_resolution":[1440,900],"minimum_resolution":1,"all_loaded":false,"item_set":3,"long_form":2,"trial_type":"mars","trial_index":47,"time_elapsed":463599,"internal_node_id":"0.0-28.0-2.0","experiment":"validation-B","task_version":"2.0","jspsych_version":"6.3.1","browser_interactions":1},{"rt":null,"stimulus":"<div style=\"font-size:24px;\">Loading puzzle:<br>21 / 24</div>","response":null,"trial_type":"html-keyboard-response","trial_index":48,"time_elapsed":464804,"internal_node_id":"0.0-29.0-1.0","experiment":"validation-B","task_version":"2.0","jspsych_version":"6.3.1"},{"item":63,"shape_set":1,"distractor":"pd","choice_order":[3,2,0,1],"correct":0,"choice":0,"accuracy":1,"rt":8834.099999999627,"screen_resolution":[1440,900],"minimum_resolution":1,"all_loaded":true,"item_set":3,"long_form":2,"trial_type":"mars","trial_index":49,"time_elapsed":473640,"internal_node_id":"0.0-29.0-2.0","experiment":"validation-B","task_version":"2.0","jspsych_version":"6.3.1","browser_interactions":0},{"rt":null,"stimulus":"<div style=\"font-size:24px;\">Loading puzzle:<br>22 / 24</div>","response":null,"trial_type":"html-keyboard-response","trial_index":50,"time_elapsed":474850,"internal_node_id":"0.0-30.0-1.0","experiment":"validation-B","task_version":"2.0","jspsych_version":"6.3.1"},{"item":21,"shape_set":3,"distractor":"pd","choice_order":[2,0,1,3],"correct":0,"choice":0,"accuracy":1,"rt":15704.5,"screen_resolution":[1440,900],"minimum_resolution":1,"all_loaded":true,"item_set":3,"long_form":2,"trial_type":"mars","trial_index":51,"time_elapsed":490556,"internal_node_id":"0.0-30.0-2.0","experiment":"validation-B","task_version":"2.0","jspsych_version":"6.3.1","browser_interactions":0},{"rt":null,"stimulus":"<div style=\"font-size:24px;\">Loading puzzle:<br>23 / 24</div>","response":null,"trial_type":"html-keyboard-response","trial_index":52,"time_elapsed":491763,"internal_node_id":"0.0-31.0-1.0","experiment":"validation-B","task_version":"2.0","jspsych_version":"6.3.1"},{"item":78,"shape_set":3,"distractor":"pd","choice_order":[1,0,2,3],"correct":0,"choice":1,"accuracy":0,"rt":26707.299999999814,"screen_resolution":[1440,900],"minimum_resolution":1,"all_loaded":true,"item_set":3,"long_form":2,"trial_type":"mars","trial_index":53,"time_elapsed":518472,"internal_node_id":"0.0-31.0-2.0","experiment":"validation-B","task_version":"2.0","jspsych_version":"6.3.1","browser_interactions":0},{"rt":null,"stimulus":"<div style=\"font-size:24px;\">Loading puzzle:<br>24 / 24</div>","response":null,"trial_type":"html-keyboard-response","trial_index":54,"time_elapsed":519682,"internal_node_id":"0.0-32.0-1.0","experiment":"validation-B","task_version":"2.0","jspsych_version":"6.3.1"},{"item":44,"shape_set":2,"distractor":"pd","choice_order":[1,0,3,2],"correct":0,"choice":0,"accuracy":1,"rt":11838.799999999814,"screen_resolution":[1440,900],"minimum_resolution":1,"all_loaded":true,"item_set":3,"long_form":2,"trial_type":"mars","trial_index":55,"time_elapsed":531523,"internal_node_id":"0.0-32.0-2.0","experiment":"validation-B","task_version":"2.0","jspsych_version":"6.3.1","browser_interactions":0},{"value":[0,2,0],"trial_type":"call-function","trial_index":56,"time_elapsed":531528,"internal_node_id":"0.0-33.0","experiment":"validation-B","task_version":"2.0","jspsych_version":"6.3.1","interactions":"[{\"event\":\"fullscreenenter\",\"trial\":1,\"time\":7847},{\"event\":\"blur\",\"trial\":47,\"time\":460785},{\"event\":\"focus\",\"trial\":48,\"time\":463604}]"}]