[{"view_history":[{"page_index":0,"viewing_time":3457.7000000476837}],"rt":3458.3000000715256,"trial_type":"instructions","trial_index":0,"time_elapsed":3466,"internal_node_id":"0.0-0.0","experiment":"validation","task_version":"2.0","jspsych_version":"6.3.1"},{"rt":14238.700000047684,"responses":{"age":"23","gender-categorical":"Female","gender-free-response":"","ethnicity":"Not Hispanic or Latino","race":["White"],"education":"Some college"},"survey":"demographics","trial_type":"survey-demo","trial_index":1,"time_elapsed":17712,"internal_node_id":"0.0-1.0","experiment":"validation","task_version":"2.0","jspsych_version":"6.3.1"},{"responses":{"Q03":"1","Q04":"0","Q09":"4","Q01":"2","Q05":"2","Q08":"3","Q06":"2","Q07":"4","Q02":"2"},"rt":47544.39999997616,"item_order":[2,3,8,0,4,7,5,6,1],"radio_events":[4290.600000023842,7803.899999976158,14226.299999952316,18784.899999976158,23706.699999928474,30420.100000023842,31723.5,37521.5,40021.199999928474,45151.10000002384],"key_events":[],"mouse_events":[4290.600000023842,7803.899999976158,14226.299999952316,17649.600000023842,18784.899999976158,23706.699999928474,30420.100000023842,31723.5,37521.5,40021.199999928474,45151.10000002384,47540.60000002384],"straightlining":0.4444444444444444,"zigzagging":0.375,"honeypot":0,"survey":"pcf","trial_type":"survey-template","trial_index":2,"time_elapsed":65264,"internal_node_id":"0.0-2.0","experiment":"validation","task_version":"2.0","jspsych_version":"6.3.1","infrequency":0},{"rt":97422.70000004768,"response":{"Q0":1,"Q7":3,"Q2":2,"Q8":0,"Q4":2,"Q3":3,"Q6":0,"Q5":1,"Q1":1},"question_order":[0,7,2,8,4,3,6,5,1],"survey":"sns","trial_type":"survey-likert","trial_index":3,"time_elapsed":162695,"internal_node_id":"0.0-3.0","experiment":"validation","task_version":"2.0","jspsych_version":"6.3.1","infrequency":0},{"responses":{"Q06":"3","Q10":"2","Q08":"4","Q01":"1","Q03":"3","Q09":"3","Q11":"0","Q07":"1","Q05":"4","Q02":"3","Q04":"1"},"rt":88658.69999992847,"item_order":[5,9,7,0,2,8,10,6,4,1,3],"radio_events":[22560.299999952316,31939.399999976158,39914.60000002384,44811.5,48179.39999997616,52911.10000002384,62615.299999952316,69994,74626.10000002384,77723.39999997616,87684.29999995232],"key_events":[],"mouse_events":[22560.299999952316,31939.399999976158,39914.60000002384,44811.5,48179.39999997616,51749,52911.10000002384,62615.299999952316,69994,74626.10000002384,77723.39999997616,87684.29999995232,88656.60000002384],"straightlining":0.36363636363636365,"zigzagging":0.3,"honeypot":0,"survey":"nfc10","trial_type":"survey-template","trial_index":4,"time_elapsed":251358,"internal_node_id":"0.0-4.0","experiment":"validation","task_version":"2.0","jspsych_version":"6.3.1","infrequency":0},{"value":0,"trial_type":"call-function","trial_index":5,"time_elapsed":251360,"internal_node_id":"0.0-5.0","experiment":"validation","task_version":"2.0","jspsych_version":"6.3.1","interactions":"[{\"event\":\"blur\",\"trial\":3,\"time\":84832},{\"event\":\"focus\",\"trial\":3,\"time\":120538}]"}]