[{"view_history":[{"page_index":0,"viewing_time":3282.0999999996275}],"rt":3282.7999999988824,"trial_type":"instructions","trial_index":0,"time_elapsed":3298,"internal_node_id":"0.0-0.0","experiment":"validation","task_version":"2.0","jspsych_version":"6.3.1"},{"rt":25645.599999999627,"responses":{"age":"40","gender-categorical":"Other","gender-free-response":"Genderqueer","ethnicity":"Not Hispanic or Latino","race":["White"],"education":"Bachelor degree"},"survey":"demographics","trial_type":"survey-demo","trial_index":1,"time_elapsed":28946,"internal_node_id":"0.0-1.0","experiment":"validation","task_version":"2.0","jspsych_version":"6.3.1"},{"responses":{"Q04":"3","Q02":"3","Q09":"4","Q03":"3","Q05":"3","Q07":"3","Q06":"3","Q01":"3","Q08":"3"},"rt":35020.5,"item_order":[3,1,8,2,4,6,5,0,7],"radio_events":[3115.4000000003725,5883,8907.200000001118,11651.300000000745,18347.400000000373,19347.200000001118,20715.300000000745,22891.099999999627,24171.400000000373,25611.400000000373,26907,30187.200000001118,31123.099999999627],"key_events":[],"mouse_events":[3115.4000000003725,5883,8907.200000001118,11651.300000000745,18347.400000000373,19347.200000001118,20715.300000000745,22891.099999999627,24171.400000000373,25611.400000000373,26907,28779.300000000745,29179.200000001118,29651.300000000745,30187.200000001118,31123.099999999627,35019.40000000037],"straightlining":0.8888888888888888,"zigzagging":0,"honeypot":0,"survey":"pcf","trial_type":"survey-template","trial_index":2,"time_elapsed":63971,"internal_node_id":"0.0-2.0","experiment":"validation","task_version":"2.0","jspsych_version":"6.3.1","infrequency":0},{"rt":24620.200000001118,"response":{"Q1":1,"Q2":2,"Q8":0,"Q0":1,"Q3":4,"Q4":5,"Q6":0,"Q7":5,"Q5":5},"question_order":[1,2,8,0,3,4,6,7,5],"survey":"sns","trial_type":"survey-likert","trial_index":3,"time_elapsed":88595,"internal_node_id":"0.0-3.0","experiment":"validation","task_version":"2.0","jspsych_version":"6.3.1","infrequency":0},{"responses":{"Q05":"4","Q04":"3","Q07":"1","Q01":"1","Q08":"1","Q06":"1","Q09":"0","Q10":"1","Q02":"3","Q03":"3","Q11":"0"},"rt":48876.90000000037,"item_order":[4,3,6,0,7,5,8,9,1,2,10],"radio_events":[6523.9000000003725,9707.800000000745,11932,17459.800000000745,18779.700000001118,20339.800000000745,21059.900000000373,21411.5,22644.200000001118,23643.800000000745,24459.800000000745,26867.900000000373,29419.900000000373,33867.90000000037,34883.90000000037,36331.70000000112,38643.800000000745,46323.5,47436],"key_events":[],"mouse_events":[6523.9000000003725,8371.700000001118,9707.800000000745,11932,14611.800000000745,17459.800000000745,18779.700000001118,20339.800000000745,21059.900000000373,21411.5,22644.200000001118,23004.300000000745,23643.800000000745,24459.800000000745,26867.900000000373,29419.900000000373,33867.90000000037,34883.90000000037,36331.70000000112,38643.800000000745,41835.800000000745,46323.5,47436,48875.90000000037],"straightlining":0.6363636363636364,"zigzagging":0.4,"honeypot":0,"survey":"nfc10","trial_type":"survey-template","trial_index":4,"time_elapsed":137476,"internal_node_id":"0.0-4.0","experiment":"validation","task_version":"2.0","jspsych_version":"6.3.1","infrequency":0},{"value":0,"trial_type":"call-function","trial_index":5,"time_elapsed":137477,"internal_node_id":"0.0-5.0","experiment":"validation","task_version":"2.0","jspsych_version":"6.3.1","interactions":"[{\"event\":\"blur\",\"trial\":1,\"time\":17197},{\"event\":\"focus\",\"trial\":1,\"time\":22424}]"}]