[{"view_history":[{"page_index":0,"viewing_time":105355.90000000002}],"rt":105356.69999999995,"trial_type":"instructions","trial_index":0,"time_elapsed":105364,"internal_node_id":"0.0-0.0","experiment":"validation","task_version":"2.0","jspsych_version":"6.3.1"},{"rt":141740.5,"responses":{"age":"28","gender-categorical":"Male","gender-free-response":"","ethnicity":"Not Hispanic or Latino","race":["Black or African American"],"education":"High school"},"survey":"demographics","trial_type":"survey-demo","trial_index":1,"time_elapsed":247108,"internal_node_id":"0.0-1.0","experiment":"validation","task_version":"2.0","jspsych_version":"6.3.1"},{"responses":{"Q01":"3","Q05":"2","Q02":"4","Q09":"4","Q08":"2","Q06":"2","Q03":"2","Q07":"4","Q04":"2"},"rt":993874.5,"item_order":[0,4,1,8,7,5,2,6,3],"radio_events":[7226.5,17550.79999999993,19728.29999999993,91775.59999999998,101747,109886.59999999998,304183.69999999995,690220.3,718997.5999999999,986876.8],"key_events":[],"mouse_events":[6044.199999999953,6643.599999999977,7226.5,17550.79999999993,19728.29999999993,91775.59999999998,101747,109886.59999999998,304183.69999999995,688515.5,689717.5,690220.3,718997.5999999999,984324.7,985280.7,986298.0999999999,986876.8,993872.3999999999],"straightlining":0.5555555555555556,"zigzagging":0.25,"honeypot":0,"survey":"pcf","trial_type":"survey-template","trial_index":2,"time_elapsed":1240987,"internal_node_id":"0.0-2.0","experiment":"validation","task_version":"2.0","jspsych_version":"6.3.1","infrequency":0},{"rt":412421.1999999997,"response":{"Q0":2,"Q5":4,"Q2":1,"Q6":5,"Q3":2,"Q4":3,"Q8":0,"Q1":2,"Q7":3},"question_order":[0,5,2,6,3,4,8,1,7],"survey":"sns","trial_type":"survey-likert","trial_index":3,"time_elapsed":1653413,"internal_node_id":"0.0-3.0","experiment":"validation","task_version":"2.0","jspsych_version":"6.3.1","infrequency":0},{"responses":{"Q04":"1","Q07":"2","Q10":"2","Q06":"1","Q11":"0","Q08":"1","Q03":"2","Q09":"1","Q01":"3","Q02":"2","Q05":"1"},"rt":464763.7999999998,"item_order":[3,6,9,5,10,7,2,8,0,1,4],"radio_events":[75195,89602.8999999999,98975.29999999981,206395,257509,318842,324555.2000000002,333882.3999999999,338877.1000000001,342915.8999999999,461262.7999999998,462070.3999999999],"key_events":[],"mouse_events":[75195,89602.8999999999,98975.29999999981,206395,257509,317433.6000000001,318842,324555.2000000002,333143.5,333882.3999999999,338877.1000000001,342265.7000000002,342915.8999999999,460572.3999999999,461262.7999999998,462070.3999999999,464762.7000000002],"straightlining":0.36363636363636365,"zigzagging":0.8,"honeypot":0,"survey":"nfc10","trial_type":"survey-template","trial_index":4,"time_elapsed":2118180,"internal_node_id":"0.0-4.0","experiment":"validation","task_version":"2.0","jspsych_version":"6.3.1","infrequency":0},{"value":0,"trial_type":"call-function","trial_index":5,"time_elapsed":2118182,"internal_node_id":"0.0-5.0","experiment":"validation","task_version":"2.0","jspsych_version":"6.3.1","interactions":"[{\"event\":\"blur\",\"trial\":1,\"time\":109093},{\"event\":\"focus\",\"trial\":1,\"time\":128641},{\"event\":\"blur\",\"trial\":4,\"time\":1655176},{\"event\":\"focus\",\"trial\":4,\"time\":1656406},{\"event\":\"blur\",\"trial\":4,\"time\":1869359},{\"event\":\"focus\",\"trial\":4,\"time\":1875122}]"}]