[{"view_history":[{"page_index":0,"viewing_time":1606.8999999761581}],"rt":1607.1000000238419,"trial_type":"instructions","trial_index":0,"time_elapsed":1612,"internal_node_id":"0.0-0.0","experiment":"validation","task_version":"2.0","jspsych_version":"6.3.1"},{"rt":6590.299999952316,"responses":{"age":"25","gender-categorical":"Female","gender-free-response":"","ethnicity":"Not Hispanic or Latino","race":["Asian"],"education":"Bachelor degree"},"survey":"demographics","trial_type":"survey-demo","trial_index":1,"time_elapsed":8205,"internal_node_id":"0.0-1.0","experiment":"validation","task_version":"2.0","jspsych_version":"6.3.1"},{"responses":{"Q09":"4","Q02":"3","Q07":"3","Q08":"4","Q06":"3","Q01":"3","Q04":"3","Q05":"3","Q03":"3"},"rt":24732.300000071526,"item_order":[8,1,6,7,5,0,3,4,2],"radio_events":[7600.700000047684,8500.200000047684,10185.100000023842,11522.700000047684,12536.300000071526,14584.800000071526,16060.200000047684,18681.200000047684,19232.300000071526,22731.700000047684],"key_events":[],"mouse_events":[3820.2000000476837,5072.100000023842,5584.100000023842,5973.5,6986.899999976158,7600.700000047684,8500.200000047684,10185.100000023842,11522.700000047684,12536.300000071526,12872.800000071526,13512.200000047684,14060.100000023842,14584.800000071526,16060.200000047684,16748.300000071526,17456.600000023842,17968.600000023842,18681.200000047684,19232.300000071526,19889,20212.399999976158,22731.700000047684,24731.100000023842],"straightlining":0.7777777777777778,"zigzagging":0.25,"honeypot":0,"survey":"pcf","trial_type":"survey-template","trial_index":2,"time_elapsed":32946,"internal_node_id":"0.0-2.0","experiment":"validation","task_version":"2.0","jspsych_version":"6.3.1","infrequency":0},{"rt":34885.10000002384,"response":{"Q8":0,"Q1":1,"Q4":1,"Q2":1,"Q7":3,"Q0":2,"Q3":1,"Q6":1,"Q5":4},"question_order":[8,1,4,2,7,0,3,6,5],"survey":"sns","trial_type":"survey-likert","trial_index":3,"time_elapsed":67838,"internal_node_id":"0.0-3.0","experiment":"validation","task_version":"2.0","jspsych_version":"6.3.1","infrequency":0},{"responses":{"Q05":"3","Q11":"0","Q08":"3","Q02":"3","Q10":"2","Q04":"2","Q07":"3","Q09":"3","Q06":"3","Q03":"3","Q01":"2"},"rt":43058.799999952316,"item_order":[4,10,7,1,9,3,6,8,5,2,0],"radio_events":[4061,8961.700000047684,12578.100000023842,14399.799999952316,26367.200000047684,27669.299999952316,34809.799999952316,36665.10000002384,38933.10000002384,40456.60000002384,42298.60000002384],"key_events":[],"mouse_events":[4061,8494.399999976158,8961.700000047684,11553.600000023842,12129.299999952316,12578.100000023842,13626.399999976158,14399.799999952316,25088.5,26025.899999976158,26367.200000047684,27669.299999952316,34809.799999952316,36665.10000002384,37213.89999997616,38933.10000002384,40456.60000002384,42298.60000002384,43057.200000047684],"straightlining":0.45454545454545453,"zigzagging":0.4,"honeypot":0,"survey":"nfc10","trial_type":"survey-template","trial_index":4,"time_elapsed":110902,"internal_node_id":"0.0-4.0","experiment":"validation","task_version":"2.0","jspsych_version":"6.3.1","infrequency":0},{"value":0,"trial_type":"call-function","trial_index":5,"time_elapsed":110905,"internal_node_id":"0.0-5.0","experiment":"validation","task_version":"2.0","jspsych_version":"6.3.1","interactions":"[]"}]