[{"view_history":[{"page_index":0,"viewing_time":3357.7000000476837}],"rt":3358.2000000476837,"trial_type":"instructions","trial_index":0,"time_elapsed":3364,"internal_node_id":"0.0-0.0","experiment":"validation","task_version":"2.0","jspsych_version":"6.3.1"},{"rt":23096.80000001192,"responses":{"age":"63","gender-categorical":"Female","gender-free-response":"","ethnicity":"Not Hispanic or Latino","race":["White"],"education":"Bachelor degree"},"survey":"demographics","trial_type":"survey-demo","trial_index":1,"time_elapsed":26463,"internal_node_id":"0.0-1.0","experiment":"validation","task_version":"2.0","jspsych_version":"6.3.1"},{"rt":61733.30000001192,"response":{"Q0":1,"Q3":4,"Q4":3,"Q2":4,"Q7":4,"Q5":4,"Q6":0,"Q8":0,"Q1":3},"question_order":[0,3,4,2,7,5,6,8,1],"survey":"sns","trial_type":"survey-likert","trial_index":2,"time_elapsed":88200,"internal_node_id":"0.0-2.0","experiment":"validation","task_version":"2.0","jspsych_version":"6.3.1","infrequency":0},{"responses":{"Q06":"3","Q09":"3","Q01":"3","Q02":"3","Q07":"3","Q03":"4","Q11":"0","Q05":"4","Q10":"3","Q08":"4","Q04":"4"},"rt":67403.69999998808,"item_order":[5,8,0,1,6,2,10,4,9,7,3],"radio_events":[8718.199999988079,18233.299999952316,18301.599999964237,20351.799999952316,22936.69999998808,27655.899999976158,30421.399999976158,39826.19999998808,46833.59999996424,53415.09999996424,58485.5,66161.5],"key_events":[],"mouse_events":[8718.199999988079,18233.299999952316,18301.599999964237,20351.799999952316,22936.69999998808,27655.899999976158,30421.399999976158,39826.19999998808,46833.59999996424,53415.09999996424,58485.5,66161.5,67402.79999995232],"straightlining":0.5454545454545454,"zigzagging":0.2,"honeypot":0,"survey":"nfc10","trial_type":"survey-template","trial_index":3,"time_elapsed":155607,"internal_node_id":"0.0-3.0","experiment":"validation","task_version":"2.0","jspsych_version":"6.3.1","infrequency":0},{"responses":{"Q03":"3","Q07":"4","Q01":"4","Q06":"3","Q08":"3","Q02":"2","Q05":"3","Q09":"4","Q04":"3"},"rt":48973.19999998808,"item_order":[2,6,0,5,7,1,4,8,3],"radio_events":[10482.699999988079,13466.699999988079,16260.600000023842,19770.80000001192,23618.69999998808,35710.60000002384,38242.10000002384,41784.60000002384,47862.5],"key_events":[],"mouse_events":[10482.699999988079,13466.699999988079,16260.600000023842,19770.80000001192,23618.69999998808,35710.60000002384,38242.10000002384,41784.60000002384,47862.5,48972.60000002384],"straightlining":0.5555555555555556,"zigzagging":0.5,"honeypot":0,"survey":"pcf","trial_type":"survey-template","trial_index":4,"time_elapsed":204584,"internal_node_id":"0.0-4.0","experiment":"validation","task_version":"2.0","jspsych_version":"6.3.1","infrequency":0},{"value":0,"trial_type":"call-function","trial_index":5,"time_elapsed":204586,"internal_node_id":"0.0-5.0","experiment":"validation","task_version":"2.0","jspsych_version":"6.3.1","interactions":"[{\"event\":\"blur\",\"trial\":2,\"time\":65869},{\"event\":\"focus\",\"trial\":2,\"time\":66613}]"}]