[{"view_history":[{"page_index":0,"viewing_time":4311.299999999814}],"rt":4311.5999999996275,"trial_type":"instructions","trial_index":0,"time_elapsed":4317,"internal_node_id":"0.0-0.0","experiment":"validation","task_version":"2.0","jspsych_version":"6.3.1"},{"rt":11617.399999999441,"responses":{"age":"42","gender-categorical":"Male","gender-free-response":"","ethnicity":"Not Hispanic or Latino","race":["White"],"education":"Bachelor degree"},"survey":"demographics","trial_type":"survey-demo","trial_index":1,"time_elapsed":15936,"internal_node_id":"0.0-1.0","experiment":"validation","task_version":"2.0","jspsych_version":"6.3.1"},{"rt":28731.299999999814,"response":{"Q3":5,"Q7":5,"Q8":0,"Q4":5,"Q5":5,"Q2":5,"Q6":0,"Q1":4,"Q0":3},"question_order":[3,7,8,4,5,2,6,1,0],"survey":"sns","trial_type":"survey-likert","trial_index":2,"time_elapsed":44670,"internal_node_id":"0.0-2.0","experiment":"validation","task_version":"2.0","jspsych_version":"6.3.1","infrequency":0},{"responses":{"Q05":"2","Q06":"2","Q03":"2","Q02":"2","Q07":"2","Q01":"2","Q04":"3","Q08":"4","Q09":"4"},"rt":30095.700000000186,"item_order":[4,5,2,1,6,0,3,7,8],"radio_events":[7672.799999999814,8474.900000000373,9129.299999999814,10517.799999999814,11417.900000000373,12989.900000000373,14419.799999999814,14871.799999999814,16423.900000000373,18141.799999999814,22449.700000000186,25692.599999999627,27030.599999999627],"key_events":[],"mouse_events":[2637,3014.9000000003725,3577,4426.9000000003725,5316.799999999814,5880.9000000003725,6760.9000000003725,7079.200000000186,7672.799999999814,8156.799999999814,8474.900000000373,9129.299999999814,9667.799999999814,10150.799999999814,10517.799999999814,10986.900000000373,11417.900000000373,12989.900000000373,13329.799999999814,13993.900000000373,14419.799999999814,14871.799999999814,15825.799999999814,16423.900000000373,18141.799999999814,19293.799999999814,21387.700000000186,22449.700000000186,24826.799999999814,25692.599999999627,26670.5,27030.599999999627,30094.900000000373],"straightlining":0.6666666666666666,"zigzagging":0.375,"honeypot":0,"survey":"pcf","trial_type":"survey-template","trial_index":3,"time_elapsed":74768,"internal_node_id":"0.0-3.0","experiment":"validation","task_version":"2.0","jspsych_version":"6.3.1","infrequency":0},{"responses":{"Q04":"4","Q03":"4","Q07":"4","Q06":"4","Q05":"0","Q08":"4","Q09":"4","Q01":"4","Q02":"4","Q10":"4","Q11":"0"},"rt":46393.10000000056,"item_order":[3,2,6,5,4,7,8,0,1,9,10],"radio_events":[14194.100000000559,16055.900000000373,17661.700000000186,25463.10000000056,26868.900000000373,28573,30830.700000000186,34087.5,38267.700000000186,38871.300000000745,40073.5,40943.5,43163.5],"key_events":[],"mouse_events":[14194.100000000559,15035.900000000373,15680,16055.900000000373,16750.60000000056,17661.700000000186,24140.900000000373,25114.700000000186,25463.10000000056,26224.700000000186,26868.900000000373,28573,29573.300000000745,30088.700000000186,30830.700000000186,32443,32884.5,33573.5,34087.5,38267.700000000186,38871.300000000745,40073.5,40943.5,43163.5,46392.5],"straightlining":0.7272727272727273,"zigzagging":0.2,"honeypot":0,"survey":"nfc10","trial_type":"survey-template","trial_index":4,"time_elapsed":121162,"internal_node_id":"0.0-4.0","experiment":"validation","task_version":"2.0","jspsych_version":"6.3.1","infrequency":0},{"value":0,"trial_type":"call-function","trial_index":5,"time_elapsed":121163,"internal_node_id":"0.0-5.0","experiment":"validation","task_version":"2.0","jspsych_version":"6.3.1","interactions":"[{\"event\":\"blur\",\"trial\":0,\"time\":1436},{\"event\":\"focus\",\"trial\":0,\"time\":3217}]"}]