[{"view_history":[{"page_index":0,"viewing_time":1557.5}],"rt":1557.6000000238419,"trial_type":"instructions","trial_index":0,"time_elapsed":1564,"internal_node_id":"0.0-0.0","experiment":"validation","task_version":"2.0","jspsych_version":"6.3.1"},{"rt":37963.89999997616,"responses":{"age":"35","gender-categorical":"Male","gender-free-response":"","ethnicity":"Not Hispanic or Latino","race":["White"],"education":"Master degree or higher"},"survey":"demographics","trial_type":"survey-demo","trial_index":1,"time_elapsed":39530,"internal_node_id":"0.0-1.0","experiment":"validation","task_version":"2.0","jspsych_version":"6.3.1"},{"responses":{"Q05":"2","Q02":"3","Q07":"3","Q01":"3","Q03":"3","Q04":"3","Q08":"4","Q06":"4","Q09":"4"},"rt":417240.59999996424,"item_order":[4,1,6,0,2,3,7,5,8],"radio_events":[396330.5,399308.1999999881,400428.7999999523,400692.7999999523,402092.89999997616,405702,408069.89999997616,411933.89999997616,414679.09999996424,416063.39999997616],"key_events":[],"mouse_events":[396330.5,399308.1999999881,399621,400428.7999999523,400692.7999999523,402092.89999997616,405332.7999999523,405702,407733.89999997616,408069.89999997616,411286.09999996424,411933.89999997616,414679.09999996424,416063.39999997616,417239.5],"straightlining":0.5555555555555556,"zigzagging":0.375,"honeypot":0,"survey":"pcf","trial_type":"survey-template","trial_index":2,"time_elapsed":456773,"internal_node_id":"0.0-2.0","experiment":"validation","task_version":"2.0","jspsych_version":"6.3.1","infrequency":0},{"responses":{"Q09":"2","Q10":"3","Q07":"2","Q06":"2","Q05":"3","Q01":"3","Q11":"0","Q02":"2","Q04":"2","Q08":"2","Q03":"3"},"rt":668765,"item_order":[8,9,6,5,4,0,10,1,3,7,2],"radio_events":[2396.199999988079,628181.6999999881,639302.3000000119,641983.1999999881,643967.3999999762,645521.3000000119,649218.5,652179.1999999881,653307.5,655467.8999999762,656538.6999999881,667933.3000000119],"key_events":[],"mouse_events":[2396.199999988079,628181.6999999881,638639.1999999881,639302.3000000119,641983.1999999881,643503.8999999762,643967.3999999762,644977.5999999642,645521.3000000119,648370.5,648930.1999999881,649218.5,651762.3000000119,652179.1999999881,653307.5,655467.8999999762,656538.6999999881,667556.8999999762,667933.3000000119,668764.0999999642],"straightlining":0.5454545454545454,"zigzagging":0.4,"honeypot":0,"survey":"nfc10","trial_type":"survey-template","trial_index":3,"time_elapsed":1125540,"internal_node_id":"0.0-3.0","experiment":"validation","task_version":"2.0","jspsych_version":"6.3.1","infrequency":0},{"rt":20510.5,"response":{"Q3":5,"Q5":4,"Q8":0,"Q7":4,"Q6":1,"Q2":5,"Q4":4,"Q1":5,"Q0":5},"question_order":[3,5,8,7,6,2,4,1,0],"survey":"sns","trial_type":"survey-likert","trial_index":4,"time_elapsed":1146054,"internal_node_id":"0.0-4.0","experiment":"validation","task_version":"2.0","jspsych_version":"6.3.1","infrequency":0},{"value":0,"trial_type":"call-function","trial_index":5,"time_elapsed":1146055,"internal_node_id":"0.0-5.0","experiment":"validation","task_version":"2.0","jspsych_version":"6.3.1","interactions":"[{\"event\":\"blur\",\"trial\":1,\"time\":21904},{\"event\":\"focus\",\"trial\":1,\"time\":38447},{\"event\":\"blur\",\"trial\":2,\"time\":41345},{\"event\":\"focus\",\"trial\":2,\"time\":433163},{\"event\":\"blur\",\"trial\":3,\"time\":460533},{\"event\":\"focus\",\"trial\":3,\"time\":1080850}]"}]