[{"view_history":[{"page_index":0,"viewing_time":5084.79999999702}],"rt":5086.39999999851,"trial_type":"instructions","trial_index":0,"time_elapsed":5114,"internal_node_id":"0.0-0.0","experiment":"validation","task_version":"2.0","jspsych_version":"6.3.1"},{"rt":17747.19999999553,"responses":{"age":"52","gender-categorical":"Male","gender-free-response":"","ethnicity":"Not Hispanic or Latino","race":["White"],"education":"Bachelor degree"},"survey":"demographics","trial_type":"survey-demo","trial_index":1,"time_elapsed":22868,"internal_node_id":"0.0-1.0","experiment":"validation","task_version":"2.0","jspsych_version":"6.3.1"},{"rt":93860.80000000447,"response":{"Q8":0,"Q4":5,"Q7":3,"Q6":1,"Q2":4,"Q3":4,"Q1":3,"Q0":2,"Q5":4},"question_order":[8,4,7,6,2,3,1,0,5],"survey":"sns","trial_type":"survey-likert","trial_index":2,"time_elapsed":116738,"internal_node_id":"0.0-2.0","experiment":"validation","task_version":"2.0","jspsych_version":"6.3.1","infrequency":0},{"responses":{"Q01":"2","Q08":"2","Q05":"3","Q04":"2","Q09":"4","Q06":"2","Q07":"2","Q03":"3","Q02":"2"},"rt":37568.89999999851,"item_order":[0,7,4,3,8,5,6,2,1],"radio_events":[5334.79999999702,8967.39999999851,11215.5,14646.79999999702,18758.79999999702,24942.29999999702,27910.29999999702,31678.29999999702,36518.20000000298],"key_events":[],"mouse_events":[5334.79999999702,7414.20000000298,8967.39999999851,11215.5,14646.79999999702,18758.79999999702,24942.29999999702,27910.29999999702,31678.29999999702,34494.79999999702,36518.20000000298,37566.39999999851],"straightlining":0.6666666666666666,"zigzagging":0.5,"honeypot":0,"survey":"pcf","trial_type":"survey-template","trial_index":3,"time_elapsed":154319,"internal_node_id":"0.0-3.0","experiment":"validation","task_version":"2.0","jspsych_version":"6.3.1","infrequency":0},{"responses":{"Q07":"3","Q04":"2","Q10":"3","Q01":"3","Q08":"3","Q11":"0","Q05":"3","Q09":"2","Q03":"2","Q02":"3","Q06":"3"},"rt":59304.10000000149,"item_order":[6,3,9,0,7,10,4,8,2,1,5],"radio_events":[10462.40000000596,15142.20000000298,19248,21950.20000000298,24824.5,31567.80000000447,42087.60000000149,45326.5,48822.30000000447,53230.40000000596,57920.30000000447],"key_events":[],"mouse_events":[10462.40000000596,15142.20000000298,19248,20510.60000000149,21950.20000000298,23647,24824.5,25937,31567.80000000447,42087.60000000149,45326.5,48822.30000000447,53230.40000000596,54198.5,55497.90000000596,57920.30000000447,59302.80000000447],"straightlining":0.5454545454545454,"zigzagging":0.5,"honeypot":0,"survey":"nfc10","trial_type":"survey-template","trial_index":4,"time_elapsed":213630,"internal_node_id":"0.0-4.0","experiment":"validation","task_version":"2.0","jspsych_version":"6.3.1","infrequency":0},{"value":0,"trial_type":"call-function","trial_index":5,"time_elapsed":213633,"internal_node_id":"0.0-5.0","experiment":"validation","task_version":"2.0","jspsych_version":"6.3.1","interactions":"[{\"event\":\"blur\",\"trial\":2,\"time\":79247},{\"event\":\"focus\",\"trial\":2,\"time\":114694}]"}]