[{"view_history":[{"page_index":0,"viewing_time":2597.600000023842}],"rt":2597.800000011921,"trial_type":"instructions","trial_index":0,"time_elapsed":2602,"internal_node_id":"0.0-0.0","experiment":"validation","task_version":"2.0","jspsych_version":"6.3.1"},{"rt":14553.400000035763,"responses":{"age":"50","gender-categorical":"Male","gender-free-response":"","ethnicity":"Not Hispanic or Latino","race":["White"],"education":"Some college"},"survey":"demographics","trial_type":"survey-demo","trial_index":1,"time_elapsed":17157,"internal_node_id":"0.0-1.0","experiment":"validation","task_version":"2.0","jspsych_version":"6.3.1"},{"responses":{"Q08":"3","Q07":"3","Q05":"4","Q03":"4","Q01":"2","Q06":"3","Q11":"0","Q10":"3","Q04":"3","Q02":"3","Q09":"4"},"rt":65194.90000003576,"item_order":[7,6,4,2,0,5,10,9,3,1,8],"radio_events":[10592.100000023842,11559.900000035763,16830.30000001192,19120.100000023842,23098.100000023842,25748.19999998808,29366.100000023842,35576,50020,58108,62082,64420.10000002384],"key_events":[],"mouse_events":[5090.100000023842,10592.100000023842,11100.300000011921,11559.900000035763,16830.30000001192,19120.100000023842,23098.100000023842,24796.19999998808,25748.19999998808,29366.100000023842,34396.10000002384,35164,35576,50020,58108,62082,64420.10000002384,65194],"straightlining":0.45454545454545453,"zigzagging":0.2,"honeypot":0,"survey":"nfc10","trial_type":"survey-template","trial_index":2,"time_elapsed":82354,"internal_node_id":"0.0-2.0","experiment":"validation","task_version":"2.0","jspsych_version":"6.3.1","infrequency":0},{"responses":{"Q09":"4","Q06":"4","Q05":"3","Q08":"4","Q04":"4","Q01":"4","Q03":"4","Q07":"4","Q02":"4"},"rt":34732.89999997616,"item_order":[8,5,4,7,3,0,2,6,1],"radio_events":[4818.5,10292.399999976158,13242.599999964237,17678.30000001192,24182.399999976158,26356.30000001192,29024.599999964237,30650.30000001192,33780.30000001192],"key_events":[],"mouse_events":[4818.5,10292.399999976158,12760.399999976158,13242.599999964237,16702.399999976158,17678.30000001192,22192.599999964237,24182.399999976158,26356.30000001192,28186.399999976158,29024.599999964237,30650.30000001192,32540.30000001192,33780.30000001192,34732.39999997616],"straightlining":0.7777777777777778,"zigzagging":0.375,"honeypot":0,"survey":"pcf","trial_type":"survey-template","trial_index":3,"time_elapsed":117090,"internal_node_id":"0.0-3.0","experiment":"validation","task_version":"2.0","jspsych_version":"6.3.1","infrequency":0},{"rt":41331.19999998808,"response":{"Q2":5,"Q5":5,"Q6":0,"Q4":5,"Q8":0,"Q1":5,"Q3":5,"Q7":5,"Q0":4},"question_order":[2,5,6,4,8,1,3,7,0],"survey":"sns","trial_type":"survey-likert","trial_index":4,"time_elapsed":158424,"internal_node_id":"0.0-4.0","experiment":"validation","task_version":"2.0","jspsych_version":"6.3.1","infrequency":0},{"value":0,"trial_type":"call-function","trial_index":5,"time_elapsed":158426,"internal_node_id":"0.0-5.0","experiment":"validation","task_version":"2.0","jspsych_version":"6.3.1","interactions":"[]"}]