[{"view_history":[{"page_index":0,"viewing_time":2718.5}],"rt":2718.800000000745,"trial_type":"instructions","trial_index":0,"time_elapsed":2725,"internal_node_id":"0.0-0.0","experiment":"validation","task_version":"2.0","jspsych_version":"6.3.1"},{"rt":154502.5,"responses":{"age":"36","gender-categorical":"Male","gender-free-response":"","ethnicity":"Not Hispanic or Latino","race":["White"],"education":"Bachelor degree"},"survey":"demographics","trial_type":"survey-demo","trial_index":1,"time_elapsed":157229,"internal_node_id":"0.0-1.0","experiment":"validation","task_version":"2.0","jspsych_version":"6.3.1"},{"responses":{"Q09":"4","Q08":"4","Q01":"4","Q03":"4","Q06":"4","Q04":"3","Q02":"4","Q07":"4","Q05":"3"},"rt":33336.09999999963,"item_order":[8,7,0,2,5,3,1,6,4],"radio_events":[13449.39999999851,16344.199999999255,21038.299999998882,22202.39999999851,24911.299999998882,28456.199999999255,29984.099999999627,31586.199999999255,32497.199999999255],"key_events":[],"mouse_events":[13449.39999999851,16344.199999999255,17363.39999999851,19280.199999999255,21038.299999998882,21314.099999999627,22202.39999999851,24911.299999998882,28456.199999999255,29984.099999999627,31586.199999999255,32497.199999999255,33335.09999999963],"straightlining":0.6666666666666666,"zigzagging":0.5,"honeypot":0,"survey":"pcf","trial_type":"survey-template","trial_index":2,"time_elapsed":190568,"internal_node_id":"0.0-2.0","experiment":"validation","task_version":"2.0","jspsych_version":"6.3.1","infrequency":0},{"responses":{"Q10":"3","Q05":"3","Q07":"3","Q06":"3","Q09":"2","Q08":"3","Q01":"2","Q02":"3","Q04":"3","Q11":"0","Q03":"3"},"rt":43695.90000000037,"item_order":[9,4,6,5,8,7,0,1,3,10,2],"radio_events":[7797.5,13835.900000000373,17294.800000000745,20530.900000000373,22774.800000000745,25408.200000001118,29666,31718.900000000373,36405.800000000745,39496.90000000037,42729.800000000745],"key_events":[],"mouse_events":[7797.5,12849.900000000373,13835.900000000373,17294.800000000745,19712,20530.900000000373,22774.800000000745,24647.900000000373,25010,25408.200000001118,29666,31718.900000000373,36405.800000000745,39496.90000000037,41731.70000000112,42729.800000000745,43694.90000000037],"straightlining":0.45454545454545453,"zigzagging":0.6,"honeypot":0,"survey":"nfc10","trial_type":"survey-template","trial_index":3,"time_elapsed":234266,"internal_node_id":"0.0-3.0","experiment":"validation","task_version":"2.0","jspsych_version":"6.3.1","infrequency":0},{"rt":33533.10000000149,"response":{"Q1":4,"Q2":5,"Q8":0,"Q3":5,"Q6":0,"Q4":4,"Q0":3,"Q5":1,"Q7":4},"question_order":[1,2,8,3,6,4,0,5,7],"survey":"sns","trial_type":"survey-likert","trial_index":4,"time_elapsed":267802,"internal_node_id":"0.0-4.0","experiment":"validation","task_version":"2.0","jspsych_version":"6.3.1","infrequency":0},{"value":0,"trial_type":"call-function","trial_index":5,"time_elapsed":267804,"internal_node_id":"0.0-5.0","experiment":"validation","task_version":"2.0","jspsych_version":"6.3.1","interactions":"[]"}]