[{"view_history":[{"page_index":0,"viewing_time":2310}],"rt":2310.699999988079,"trial_type":"instructions","trial_index":0,"time_elapsed":2338,"internal_node_id":"0.0-0.0","experiment":"validation","task_version":"2.0","jspsych_version":"6.3.1"},{"rt":11157.900000035763,"responses":{"age":"24","gender-categorical":"Male","gender-free-response":"","ethnicity":"Not Hispanic or Latino","race":["White"],"education":"Bachelor degree"},"survey":"demographics","trial_type":"survey-demo","trial_index":1,"time_elapsed":13499,"internal_node_id":"0.0-1.0","experiment":"validation","task_version":"2.0","jspsych_version":"6.3.1"},{"responses":{"Q05":"0","Q03":"3","Q08":"4","Q02":"3","Q09":"4","Q04":"0","Q01":"3","Q06":"1","Q07":"2"},"rt":38319.69999998808,"item_order":[4,2,7,1,8,3,0,5,6],"radio_events":[13938.900000035763,18354,21236.80000001192,23249.600000023842,31605.600000023842,32151.900000035763,34664.69999998808,36403.5,37669.60000002384],"key_events":[],"mouse_events":[13536.5,13938.900000035763,15517.699999988079,17208.900000035763,17554,17851.600000023842,18354,20892,21236.80000001192,23249.600000023842,30985.30000001192,31308.600000023842,31605.600000023842,32151.900000035763,34664.69999998808,36403.5,37669.60000002384,38318.10000002384],"straightlining":0.3333333333333333,"zigzagging":0.375,"honeypot":0,"survey":"pcf","trial_type":"survey-template","trial_index":2,"time_elapsed":51825,"internal_node_id":"0.0-2.0","experiment":"validation","task_version":"2.0","jspsych_version":"6.3.1","infrequency":0},{"rt":35620,"response":{"Q3":5,"Q1":5,"Q6":0,"Q7":4,"Q2":5,"Q5":4,"Q8":0,"Q0":5,"Q4":5},"question_order":[3,1,6,7,2,5,8,0,4],"survey":"sns","trial_type":"survey-likert","trial_index":3,"time_elapsed":87451,"internal_node_id":"0.0-3.0","experiment":"validation","task_version":"2.0","jspsych_version":"6.3.1","infrequency":0},{"responses":{"Q06":"4","Q09":"4","Q07":"4","Q01":"4","Q10":"4","Q04":"3","Q08":"4","Q02":"4","Q03":"4","Q11":"0","Q05":"4"},"rt":34613.799999952316,"item_order":[5,8,6,0,9,3,7,1,2,10,4],"radio_events":[2736.699999988079,5493.699999988079,8362.799999952316,10375.699999988079,13107.599999964237,16795,19607.299999952316,21618.599999964237,24122,25290.19999998808,30096.099999964237,31282.5,33718.5],"key_events":[],"mouse_events":[2736.699999988079,4270.599999964237,4521.799999952316,4826.399999976158,5493.699999988079,7369.899999976158,7812.5,8362.799999952316,10375.699999988079,13107.599999964237,15903.299999952316,16343.299999952316,16795,19607.299999952316,20899.799999952316,21618.599999964237,22940.19999998808,24122,25290.19999998808,29105.799999952316,29810.299999952316,30096.099999964237,30931.899999976158,31282.5,33718.5,34611.89999997616],"straightlining":0.6363636363636364,"zigzagging":0.1,"honeypot":0,"survey":"nfc10","trial_type":"survey-template","trial_index":4,"time_elapsed":122068,"internal_node_id":"0.0-4.0","experiment":"validation","task_version":"2.0","jspsych_version":"6.3.1","infrequency":0},{"value":0,"trial_type":"call-function","trial_index":5,"time_elapsed":122070,"internal_node_id":"0.0-5.0","experiment":"validation","task_version":"2.0","jspsych_version":"6.3.1","interactions":"[{\"event\":\"blur\",\"trial\":2,\"time\":14569},{\"event\":\"focus\",\"trial\":2,\"time\":24609}]"}]