[{"view_history":[{"page_index":0,"viewing_time":1540}],"rt":1540.199999988079,"trial_type":"instructions","trial_index":0,"time_elapsed":1546,"internal_node_id":"0.0-0.0","experiment":"validation","task_version":"2.0","jspsych_version":"6.3.1"},{"rt":7086.099999964237,"responses":{"age":"33","gender-categorical":"Male","gender-free-response":"","ethnicity":"Not Hispanic or Latino","race":["White"],"education":"Bachelor degree"},"survey":"demographics","trial_type":"survey-demo","trial_index":1,"time_elapsed":8635,"internal_node_id":"0.0-1.0","experiment":"validation","task_version":"2.0","jspsych_version":"6.3.1"},{"responses":{"Q08":"3","Q07":"3","Q03":"2","Q05":"1","Q09":"4","Q01":"3","Q04":"2","Q06":"2","Q02":"1"},"rt":24426.5,"item_order":[7,6,2,4,8,0,3,5,1],"radio_events":[3201.399999976158,7776.300000011921,10549.099999964237,12646.599999964237,14723.300000011921,18059.899999976158,18877.69999998808,20740.899999976158,23749.599999964237],"key_events":[],"mouse_events":[2689.099999964237,3201.399999976158,5606.599999964237,7776.300000011921,9859.399999976158,10549.099999964237,12646.599999964237,13308.399999976158,14126.099999964237,14723.300000011921,15889.699999988079,16643.399999976158,18059.899999976158,18877.69999998808,20740.899999976158,23010.19999998808,23749.599999964237,24425.399999976158],"straightlining":0.3333333333333333,"zigzagging":0.625,"honeypot":0,"survey":"pcf","trial_type":"survey-template","trial_index":2,"time_elapsed":33065,"internal_node_id":"0.0-2.0","experiment":"validation","task_version":"2.0","jspsych_version":"6.3.1","infrequency":0},{"rt":37233.39999997616,"response":{"Q1":4,"Q0":4,"Q7":4,"Q8":0,"Q6":1,"Q2":4,"Q5":4,"Q4":3,"Q3":4},"question_order":[1,0,7,8,6,2,5,4,3],"survey":"sns","trial_type":"survey-likert","trial_index":3,"time_elapsed":70300,"internal_node_id":"0.0-3.0","experiment":"validation","task_version":"2.0","jspsych_version":"6.3.1","infrequency":0},{"responses":{"Q03":"2","Q09":"2","Q06":"1","Q08":"1","Q04":"1","Q05":"2","Q10":"2","Q01":"1","Q11":"0","Q07":"2","Q02":"1"},"rt":36180,"item_order":[2,8,5,7,3,4,9,0,10,6,1],"radio_events":[4076.300000011921,7318.399999976158,12260.800000011921,14674.599999964237,15060.699999988079,17781.599999964237,19971.599999964237,24590.899999976158,26780.899999976158,31771.899999976158,34585.69999998808],"key_events":[],"mouse_events":[2677,4076.300000011921,7318.399999976158,10902.599999964237,12260.800000011921,13122.699999988079,14022.399999976158,14674.599999964237,15060.699999988079,17781.599999964237,19971.599999964237,24061.69999998808,24590.899999976158,26780.899999976158,27524.599999964237,31771.899999976158,33844,34585.69999998808,35702.30000001192,36178.19999998808],"straightlining":0.45454545454545453,"zigzagging":0.5,"honeypot":0,"survey":"nfc10","trial_type":"survey-template","trial_index":4,"time_elapsed":106484,"internal_node_id":"0.0-4.0","experiment":"validation","task_version":"2.0","jspsych_version":"6.3.1","infrequency":0},{"value":0,"trial_type":"call-function","trial_index":5,"time_elapsed":106486,"internal_node_id":"0.0-5.0","experiment":"validation","task_version":"2.0","jspsych_version":"6.3.1","interactions":"[{\"event\":\"blur\",\"trial\":2,\"time\":9906},{\"event\":\"focus\",\"trial\":2,\"time\":11176},{\"event\":\"focus\",\"trial\":2,\"time\":11176},{\"event\":\"blur\",\"trial\":2,\"time\":17286},{\"event\":\"focus\",\"trial\":2,\"time\":18362},{\"event\":\"focus\",\"trial\":2,\"time\":18362},{\"event\":\"blur\",\"trial\":3,\"time\":55330},{\"event\":\"focus\",\"trial\":3,\"time\":59694},{\"event\":\"blur\",\"trial\":3,\"time\":60284},{\"event\":\"focus\",\"trial\":3,\"time\":62473}]"}]