[{"view_history":[{"page_index":0,"viewing_time":2729.899999976158}],"rt":2730,"trial_type":"instructions","trial_index":0,"time_elapsed":2735,"internal_node_id":"0.0-0.0","experiment":"validation","task_version":"2.0","jspsych_version":"6.3.1"},{"rt":15136.600000023842,"responses":{"age":"30","gender-categorical":"Male","gender-free-response":"","ethnicity":"Not Hispanic or Latino","race":["White"],"education":"Associate degree"},"survey":"demographics","trial_type":"survey-demo","trial_index":1,"time_elapsed":17873,"internal_node_id":"0.0-1.0","experiment":"validation","task_version":"2.0","jspsych_version":"6.3.1"},{"responses":{"Q05":"3","Q08":"3","Q04":"2","Q07":"1","Q10":"1","Q03":"1","Q01":"3","Q09":"4","Q02":"3","Q11":"0","Q06":"1"},"rt":51283.30000001192,"item_order":[4,7,3,6,9,2,0,8,1,10,5],"radio_events":[2963.900000035763,5234,6249.900000035763,7689.800000011921,10263,11271.600000023842,12632.900000035763,14078.900000035763,22926.80000001192,26343.69999998808,27789.600000023842,28562,29294.80000001192,36982.10000002384],"key_events":[],"mouse_events":[2963.900000035763,4168.600000023842,5234,5731.900000035763,6249.900000035763,7689.800000011921,8256.400000035763,10263,11271.600000023842,12001.5,12632.900000035763,14078.900000035763,22926.80000001192,26343.69999998808,26953.80000001192,27789.600000023842,28562,29294.80000001192,36982.10000002384,51282.30000001192],"straightlining":0.36363636363636365,"zigzagging":0.5,"honeypot":0,"survey":"nfc10","trial_type":"survey-template","trial_index":2,"time_elapsed":69160,"internal_node_id":"0.0-2.0","experiment":"validation","task_version":"2.0","jspsych_version":"6.3.1","infrequency":0},{"responses":{"Q02":"1","Q06":"2","Q08":"1","Q05":"1","Q01":"1","Q07":"1","Q09":"4","Q03":"1","Q04":"1"},"rt":32729.799999952316,"item_order":[1,5,7,4,0,6,8,2,3],"radio_events":[4855.599999964237,6700.099999964237,10282.899999976158,10683.099999964237,11088.199999988079,14821.299999952316,22014.399999976158,29225,31691],"key_events":[],"mouse_events":[3693.699999988079,4855.599999964237,5344.199999988079,6700.099999964237,7386.199999988079,8690.5,9216.299999952316,10282.899999976158,10683.099999964237,11088.199999988079,14821.299999952316,22014.399999976158,29225,31691,32729.099999964237],"straightlining":0.7777777777777778,"zigzagging":0.5,"honeypot":0,"survey":"pcf","trial_type":"survey-template","trial_index":3,"time_elapsed":101893,"internal_node_id":"0.0-3.0","experiment":"validation","task_version":"2.0","jspsych_version":"6.3.1","infrequency":0},{"rt":35108.30000001192,"response":{"Q7":3,"Q0":3,"Q1":1,"Q6":1,"Q3":3,"Q5":2,"Q2":3,"Q4":3,"Q8":0},"question_order":[7,0,1,6,3,5,2,4,8],"survey":"sns","trial_type":"survey-likert","trial_index":4,"time_elapsed":137005,"internal_node_id":"0.0-4.0","experiment":"validation","task_version":"2.0","jspsych_version":"6.3.1","infrequency":0},{"value":0,"trial_type":"call-function","trial_index":5,"time_elapsed":137007,"internal_node_id":"0.0-5.0","experiment":"validation","task_version":"2.0","jspsych_version":"6.3.1","interactions":"[]"}]