[{"view_history":[{"page_index":0,"viewing_time":2974.5999999940395}],"rt":3044.4000000059605,"trial_type":"instructions","trial_index":0,"time_elapsed":3114,"internal_node_id":"0.0-0.0","experiment":"validation","task_version":"2.0","jspsych_version":"6.3.1"},{"rt":65121.19999998808,"responses":{"age":"40","gender-categorical":"Male","gender-free-response":"","ethnicity":"Not Hispanic or Latino","race":["White"],"education":"High school"},"survey":"demographics","trial_type":"survey-demo","trial_index":1,"time_elapsed":68303,"internal_node_id":"0.0-1.0","experiment":"validation","task_version":"2.0","jspsych_version":"6.3.1"},{"responses":{"Q03":"4","Q02":"4","Q07":"4","Q08":"4","Q04":"4","Q09":"4","Q10":"4","Q06":"4","Q11":"0","Q01":"4","Q05":"4"},"rt":67115.79999998212,"item_order":[2,1,6,7,3,8,9,5,10,0,4],"radio_events":[8084,14265.5,17389.899999976158,20253.399999976158,25277.399999976158,28721.79999998212,34673.69999998808,41763.29999998212,44527.19999998808,49575.69999998808,53599.79999998212],"key_events":[],"mouse_events":[8084,13077.699999988079,13525.59999999404,13917.199999988079,14265.5,17389.899999976158,20253.399999976158,25277.399999976158,26127.59999999404,28721.79999998212,34673.69999998808,41763.29999998212,44527.19999998808,49575.69999998808,53599.79999998212,67113.39999997616],"straightlining":0.6363636363636364,"zigzagging":0.6,"honeypot":0,"survey":"nfc10","trial_type":"survey-template","trial_index":2,"time_elapsed":135472,"internal_node_id":"0.0-2.0","experiment":"validation","task_version":"2.0","jspsych_version":"6.3.1","infrequency":0},{"responses":{"Q08":"3","Q01":"4","Q06":"3","Q07":"4","Q02":"4","Q04":"3","Q09":"4","Q05":"3","Q03":"4"},"rt":56695.40000000596,"item_order":[7,0,5,6,1,3,8,4,2],"radio_events":[10480.800000011921,14936.40000000596,18808.5,24210,27888.70000001788,32384.100000023842,34664.60000002384,39778.5,44803],"key_events":[],"mouse_events":[10480.800000011921,14348.800000011921,14936.40000000596,18808.5,24210,25172.30000001192,27888.70000001788,32384.100000023842,34664.60000002384,39778.5,44803,56694.30000001192],"straightlining":0.4444444444444444,"zigzagging":0.625,"honeypot":0,"survey":"pcf","trial_type":"survey-template","trial_index":3,"time_elapsed":192193,"internal_node_id":"0.0-3.0","experiment":"validation","task_version":"2.0","jspsych_version":"6.3.1","infrequency":0},{"rt":67039.40000000596,"response":{"Q0":1,"Q8":0,"Q6":0,"Q5":5,"Q4":5,"Q2":5,"Q7":4,"Q1":5,"Q3":5},"question_order":[0,8,6,5,4,2,7,1,3],"survey":"sns","trial_type":"survey-likert","trial_index":4,"time_elapsed":259237,"internal_node_id":"0.0-4.0","experiment":"validation","task_version":"2.0","jspsych_version":"6.3.1","infrequency":0},{"value":0,"trial_type":"call-function","trial_index":5,"time_elapsed":259239,"internal_node_id":"0.0-5.0","experiment":"validation","task_version":"2.0","jspsych_version":"6.3.1","interactions":"[{\"event\":\"blur\",\"trial\":3,\"time\":139663},{\"event\":\"focus\",\"trial\":3,\"time\":140846}]"}]