[{"view_history":[{"page_index":0,"viewing_time":1663.0999999996275}],"rt":1664,"trial_type":"instructions","trial_index":0,"time_elapsed":1676,"internal_node_id":"0.0-0.0","experiment":"validation","task_version":"2.0","jspsych_version":"6.3.1"},{"rt":10097.900000000373,"responses":{"age":"34","gender-categorical":"Male","gender-free-response":"","ethnicity":"Not Hispanic or Latino","race":["White"],"education":"Associate degree"},"survey":"demographics","trial_type":"survey-demo","trial_index":1,"time_elapsed":11780,"internal_node_id":"0.0-1.0","experiment":"validation","task_version":"2.0","jspsych_version":"6.3.1"},{"responses":{"Q05":"3","Q01":"4","Q06":"3","Q09":"4","Q04":"3","Q08":"3","Q02":"4","Q07":"4","Q03":"3"},"rt":29678.799999998882,"item_order":[4,0,5,8,3,7,1,6,2],"radio_events":[6590,7592.299999998882,11202.299999998882,13874,17738.5,20382.799999998882,22685.89999999851,25216.5,28619.39999999851],"key_events":[],"mouse_events":[2500.699999999255,3308.39999999851,5879.0999999996275,6590,7592.299999998882,9449.799999998882,9959.799999998882,11202.299999998882,13292.89999999851,13874,17738.5,20382.799999998882,22685.89999999851,25216.5,28619.39999999851,29677],"straightlining":0.5555555555555556,"zigzagging":0.5,"honeypot":0,"survey":"pcf","trial_type":"survey-template","trial_index":2,"time_elapsed":41469,"internal_node_id":"0.0-2.0","experiment":"validation","task_version":"2.0","jspsych_version":"6.3.1","infrequency":0},{"responses":{"Q06":"3","Q08":"3","Q10":"3","Q01":"3","Q03":"3","Q05":"3","Q07":"3","Q04":"3","Q11":"0","Q02":"3","Q09":"3"},"rt":46526.300000000745,"item_order":[5,7,9,0,2,4,6,3,10,1,8],"radio_events":[4614.0999999996275,5725.200000001118,10349.5,13365.700000001118,16497.400000000373,19783,22270.599999999627,28003.099999999627,29406.900000000373,39430.90000000037,40328.20000000112],"key_events":[],"mouse_events":[4614.0999999996275,5725.200000001118,6569.4000000003725,7998.5999999996275,9799.800000000745,10349.5,13365.700000001118,16497.400000000373,17387.300000000745,19160.599999999627,19783,22270.599999999627,28003.099999999627,29406.900000000373,30216.900000000373,35503.20000000112,39101.5,39430.90000000037,40328.20000000112,46524.70000000112],"straightlining":0.6363636363636364,"zigzagging":0.1,"honeypot":0,"survey":"nfc10","trial_type":"survey-template","trial_index":3,"time_elapsed":88007,"internal_node_id":"0.0-3.0","experiment":"validation","task_version":"2.0","jspsych_version":"6.3.1","infrequency":0},{"rt":32957.800000000745,"response":{"Q7":4,"Q4":4,"Q3":4,"Q1":4,"Q0":1,"Q6":1,"Q2":4,"Q8":0,"Q5":4},"question_order":[7,4,3,1,0,6,2,8,5],"survey":"sns","trial_type":"survey-likert","trial_index":4,"time_elapsed":120977,"internal_node_id":"0.0-4.0","experiment":"validation","task_version":"2.0","jspsych_version":"6.3.1","infrequency":0},{"value":0,"trial_type":"call-function","trial_index":5,"time_elapsed":120983,"internal_node_id":"0.0-5.0","experiment":"validation","task_version":"2.0","jspsych_version":"6.3.1","interactions":"[]"}]