[{"view_history":[{"page_index":0,"viewing_time":2314}],"rt":2314.199999999255,"trial_type":"instructions","trial_index":0,"time_elapsed":2320,"internal_node_id":"0.0-0.0","experiment":"validation","task_version":"2.0","jspsych_version":"6.3.1"},{"rt":11222.89999999851,"responses":{"age":"37","gender-categorical":"Male","gender-free-response":"","ethnicity":"Not Hispanic or Latino","race":["White"],"education":"Bachelor degree"},"survey":"demographics","trial_type":"survey-demo","trial_index":1,"time_elapsed":13544,"internal_node_id":"0.0-1.0","experiment":"validation","task_version":"2.0","jspsych_version":"6.3.1"},{"rt":106580.70000000298,"response":{"Q8":0,"Q1":5,"Q4":4,"Q5":4,"Q3":4,"Q6":1,"Q7":4,"Q2":4,"Q0":4},"question_order":[8,1,4,5,3,6,7,2,0],"survey":"sns","trial_type":"survey-likert","trial_index":2,"time_elapsed":120128,"internal_node_id":"0.0-2.0","experiment":"validation","task_version":"2.0","jspsych_version":"6.3.1","infrequency":0},{"responses":{"Q09":"0","Q02":"4","Q07":"4","Q03":"4","Q08":"4","Q04":"4","Q06":"4","Q05":"4","Q01":"4"},"rt":52622,"item_order":[8,1,6,2,7,3,5,4,0],"radio_events":[19100.5,20348.60000000149,20805.900000002235,21812.800000000745,24156.5,25221.300000000745,25580.900000002235,25884.5,26228.60000000149,48148.60000000149],"key_events":[],"mouse_events":[19100.5,19316.60000000149,19556.5,20348.60000000149,20805.900000002235,21492.5,21812.800000000745,22269.699999999255,22652.300000000745,23212.900000002235,24156.5,24844.900000002235,25221.300000000745,25580.900000002235,25884.5,26228.60000000149,26676.5,46188.699999999255,47580.400000002235,48148.60000000149,52621.199999999255],"straightlining":1,"zigzagging":0,"honeypot":0,"survey":"pcf","trial_type":"survey-template","trial_index":3,"time_elapsed":172753,"internal_node_id":"0.0-3.0","experiment":"validation","task_version":"2.0","jspsych_version":"6.3.1","infrequency":1},{"responses":{"Q03":"4","Q06":"4","Q07":"3","Q01":"3","Q10":"3","Q04":"4","Q05":"4","Q11":"0","Q09":"3","Q08":"3","Q02":"4"},"rt":92773,"item_order":[2,5,6,0,9,3,4,10,8,7,1],"radio_events":[32268.39999999851,36372.89999999851,43372.5,44372.39999999851,50676.5,51972.5,63020.699999999255,63860.199999999255,77804.89999999851,90221.09999999776,91476.30000000075],"key_events":[],"mouse_events":[32268.39999999851,33188.89999999851,33540.199999999255,33980.800000000745,34356.300000000745,36372.89999999851,42540.89999999851,43044.099999997765,43372.5,43740.89999999851,44372.39999999851,49956.39999999851,50676.5,51621,51972.5,62308.5,63020.699999999255,63468.599999997765,63860.199999999255,76068.89999999851,76396.30000000075,77804.89999999851,86804.80000000075,89436.30000000075,89868.30000000075,90221.09999999776,90564.30000000075,91172.39999999851,91476.30000000075,92772.30000000075],"straightlining":0.45454545454545453,"zigzagging":0.3,"honeypot":0,"survey":"nfc10","trial_type":"survey-template","trial_index":4,"time_elapsed":265528,"internal_node_id":"0.0-4.0","experiment":"validation","task_version":"2.0","jspsych_version":"6.3.1","infrequency":0},{"value":1,"trial_type":"call-function","trial_index":5,"time_elapsed":265529,"internal_node_id":"0.0-5.0","experiment":"validation","task_version":"2.0","jspsych_version":"6.3.1","interactions":"[{\"event\":\"blur\",\"trial\":3,\"time\":148464},{\"event\":\"focus\",\"trial\":3,\"time\":165162}]"}]