[{"view_history":[{"page_index":0,"viewing_time":34528.699999809265}],"rt":34529.299999952316,"trial_type":"instructions","trial_index":0,"time_elapsed":34539,"internal_node_id":"0.0-0.0","experiment":"validation","task_version":"2.0","jspsych_version":"6.3.1"},{"rt":11751.5,"responses":{"age":"29","gender-categorical":"Female","gender-free-response":"","ethnicity":"Not Hispanic or Latino","race":["White"],"education":"Master degree or higher"},"survey":"demographics","trial_type":"survey-demo","trial_index":1,"time_elapsed":46292,"internal_node_id":"0.0-1.0","experiment":"validation","task_version":"2.0","jspsych_version":"6.3.1"},{"responses":{"Q04":"3","Q06":"2","Q09":"3","Q02":"1","Q03":"1","Q05":"2","Q10":"2","Q08":"3","Q11":"0","Q01":"3","Q07":"3"},"rt":62675.699999809265,"item_order":[3,5,8,1,2,4,9,7,10,0,6],"radio_events":[11509.799999952316,14886.299999952316,18937,26130.89999985695,28261.89999985695,31891,41963.699999809265,43493.299999952316,50346.699999809265,54675.799999952316,58683.59999990463,61903.59999990463],"key_events":[],"mouse_events":[11509.799999952316,14886.299999952316,16841.799999952316,17782.39999985695,18937,25554.39999985695,26130.89999985695,28261.89999985695,31891,41963.699999809265,42827.39999985695,43493.299999952316,50346.699999809265,54675.799999952316,58683.59999990463,60244.09999990463,61903.59999990463,62673.199999809265],"straightlining":0.45454545454545453,"zigzagging":0.4,"honeypot":0,"survey":"nfc10","trial_type":"survey-template","trial_index":2,"time_elapsed":108971,"internal_node_id":"0.0-2.0","experiment":"validation","task_version":"2.0","jspsych_version":"6.3.1","infrequency":0},{"rt":38132.59999990463,"response":{"Q5":5,"Q6":0,"Q1":4,"Q7":4,"Q8":0,"Q4":5,"Q2":5,"Q3":5,"Q0":4},"question_order":[5,6,1,7,8,4,2,3,0],"survey":"sns","trial_type":"survey-likert","trial_index":3,"time_elapsed":147107,"internal_node_id":"0.0-3.0","experiment":"validation","task_version":"2.0","jspsych_version":"6.3.1","infrequency":0},{"responses":{"Q07":"4","Q04":"3","Q06":"2","Q01":"3","Q03":"3","Q09":"4","Q08":"4","Q02":"4","Q05":"3"},"rt":30472.39999985695,"item_order":[6,3,5,0,2,8,7,1,4],"radio_events":[3920,11384.399999856949,12142,13771.599999904633,17372.099999904633,19820.099999904633,22071.799999952316,25176.099999904633,28485.700000047684,29653.299999952316],"key_events":[],"mouse_events":[3920,7746.299999952316,9135.200000047684,11384.399999856949,12142,13771.599999904633,17372.099999904633,19820.099999904633,22071.799999952316,25176.099999904633,28485.700000047684,29653.299999952316,30471.5],"straightlining":0.4444444444444444,"zigzagging":0.625,"honeypot":0,"survey":"pcf","trial_type":"survey-template","trial_index":4,"time_elapsed":177581,"internal_node_id":"0.0-4.0","experiment":"validation","task_version":"2.0","jspsych_version":"6.3.1","infrequency":0},{"value":0,"trial_type":"call-function","trial_index":5,"time_elapsed":177583,"internal_node_id":"0.0-5.0","experiment":"validation","task_version":"2.0","jspsych_version":"6.3.1","interactions":"[]"}]