[{"success":true,"timeout":false,"failed_images":[],"failed_audio":[],"failed_video":[],"trial_type":"preload","trial_index":0,"time_elapsed":5571,"internal_node_id":"0.0-0.0","experiment":"validation-B","task_version":"2.0","jspsych_version":"6.3.1"},{"success":true,"trial_type":"fullscreen","trial_index":1,"time_elapsed":10631,"internal_node_id":"0.0-1.0","experiment":"validation-B","task_version":"2.0","jspsych_version":"6.3.1"},{"view_history":[{"page_index":0,"viewing_time":5071.199999988079},{"page_index":1,"viewing_time":5079.600000023842},{"page_index":2,"viewing_time":1277.1000000238419},{"page_index":3,"viewing_time":829.1999999880791}],"rt":12257.800000011921,"trial_type":"instructions","trial_index":2,"time_elapsed":22890,"internal_node_id":"0.0-3.0","experiment":"validation-B","task_version":"2.0","jspsych_version":"6.3.1"},{"item":5,"shape_set":1,"distractor":"pd","choice_order":[3,1,2,0],"correct":0,"choice":0,"accuracy":1,"rt":1650.5,"screen_resolution":[1366,768],"minimum_resolution":1,"all_loaded":true,"item_set":"practice","trial_type":"mars","trial_index":3,"time_elapsed":25305,"internal_node_id":"0.0-4.0-0.0","experiment":"validation-B","task_version":"2.0","jspsych_version":"6.3.1"},{"item":2,"shape_set":1,"distractor":"pd","choice_order":[0,1,3,2],"correct":0,"choice":0,"accuracy":1,"rt":3807,"screen_resolution":[1366,768],"minimum_resolution":1,"all_loaded":true,"item_set":"practice","trial_type":"mars","trial_index":4,"time_elapsed":29868,"internal_node_id":"0.0-5.0-0.0","experiment":"validation-B","task_version":"2.0","jspsych_version":"6.3.1"},{"item":8,"shape_set":1,"distractor":"pd","choice_order":[1,3,0,2],"correct":0,"choice":0,"accuracy":1,"rt":2931.699999988079,"screen_resolution":[1366,768],"minimum_resolution":1,"all_loaded":true,"item_set":"practice","trial_type":"mars","trial_index":5,"time_elapsed":33559,"internal_node_id":"0.0-6.0-0.0","experiment":"validation-B","task_version":"2.0","jspsych_version":"6.3.1"},{"view_history":[{"page_index":0,"viewing_time":1175.6000000238419},{"page_index":1,"viewing_time":3373.5}],"rt":4549.300000011921,"trial_type":"instructions","trial_index":6,"time_elapsed":38110,"internal_node_id":"0.0-7.0","experiment":"validation-B","task_version":"2.0","jspsych_version":"6.3.1"},{"rt":null,"stimulus":"<div style=\"font-size:24px;\">Loading puzzle:<br>1 / 24</div>","response":null,"trial_type":"html-keyboard-response","trial_index":7,"time_elapsed":39317,"internal_node_id":"0.0-8.0-1.0","experiment":"validation-B","task_version":"2.0","jspsych_version":"6.3.1"},{"item":45,"shape_set":1,"distractor":"pd","choice_order":[2,3,1,0],"correct":0,"choice":0,"accuracy":1,"rt":6205.099999964237,"screen_resolution":[1366,768],"minimum_resolution":1,"all_loaded":true,"item_set":3,"long_form":2,"trial_type":"mars","trial_index":8,"time_elapsed":45524,"internal_node_id":"0.0-8.0-2.0","experiment":"validation-B","task_version":"2.0","jspsych_version":"6.3.1","browser_interactions":0},{"rt":null,"stimulus":"<div style=\"font-size:24px;\">Loading puzzle:<br>2 / 24</div>","response":null,"trial_type":"html-keyboard-response","trial_index":9,"time_elapsed":46730,"internal_node_id":"0.0-9.0-1.0","experiment":"validation-B","task_version":"2.0","jspsych_version":"6.3.1"},{"item":30,"shape_set":1,"distractor":"pd","choice_order":[0,3,2,1],"correct":0,"choice":0,"accuracy":1,"rt":8938.199999988079,"screen_resolution":[1366,768],"minimum_resolution":1,"all_loaded":true,"item_set":3,"long_form":2,"trial_type":"mars","trial_index":10,"time_elapsed":55670,"internal_node_id":"0.0-9.0-2.0","experiment":"validation-B","task_version":"2.0","jspsych_version":"6.3.1","browser_interactions":0},{"rt":null,"stimulus":"<div style=\"font-size:24px;\">Loading puzzle:<br>3 / 24</div>","response":null,"trial_type":"html-keyboard-response","trial_index":11,"time_elapsed":56877,"internal_node_id":"0.0-10.0-1.0","experiment":"validation-B","task_version":"2.0","jspsych_version":"6.3.1"},{"item":55,"shape_set":3,"distractor":"pd","choice_order":[3,2,1,0],"correct":0,"choice":0,"accuracy":1,"rt":6574.300000011921,"screen_resolution":[1366,768],"minimum_resolution":1,"all_loaded":true,"item_set":3,"long_form":2,"trial_type":"mars","trial_index":12,"time_elapsed":63452,"internal_node_id":"0.0-10.0-2.0","experiment":"validation-B","task_version":"2.0","jspsych_version":"6.3.1","browser_interactions":0},{"rt":null,"stimulus":"<div style=\"font-size:24px;\">Loading puzzle:<br>4 / 24</div>","response":null,"trial_type":"html-keyboard-response","trial_index":13,"time_elapsed":64654,"internal_node_id":"0.0-11.0-1.0","experiment":"validation-B","task_version":"2.0","jspsych_version":"6.3.1"},{"item":58,"shape_set":2,"distractor":"md","choice_order":[0,3,1,2],"correct":0,"choice":0,"accuracy":1,"rt":6931.100000023842,"screen_resolution":[1366,768],"minimum_resolution":1,"all_loaded":true,"item_set":3,"long_form":2,"trial_type":"mars","trial_index":14,"time_elapsed":71587,"internal_node_id":"0.0-11.0-2.0","experiment":"validation-B","task_version":"2.0","jspsych_version":"6.3.1","browser_interactions":0},{"rt":null,"stimulus":"<div style=\"font-size:24px;\">Loading puzzle:<br>5 / 24</div>","response":null,"trial_type":"html-keyboard-response","trial_index":15,"time_elapsed":72792,"internal_node_id":"0.0-12.0-1.0","experiment":"validation-B","task_version":"2.0","jspsych_version":"6.3.1"},{"item":42,"shape_set":1,"distractor":"pd","choice_order":[0,2,1,3],"correct":0,"choice":1,"accuracy":0,"rt":14889.099999964237,"screen_resolution":[1366,768],"minimum_resolution":1,"all_loaded":true,"item_set":3,"long_form":2,"trial_type":"mars","trial_index":16,"time_elapsed":87683,"internal_node_id":"0.0-12.0-2.0","experiment":"validation-B","task_version":"2.0","jspsych_version":"6.3.1","browser_interactions":0},{"rt":null,"stimulus":"<div style=\"font-size:24px;\">Loading puzzle:<br>6 / 24</div>","response":null,"trial_type":"html-keyboard-response","trial_index":17,"time_elapsed":88895,"internal_node_id":"0.0-13.0-1.0","experiment":"validation-B","task_version":"2.0","jspsych_version":"6.3.1"},{"item":52,"shape_set":2,"distractor":"pd","choice_order":[0,3,2,1],"correct":0,"choice":0,"accuracy":1,"rt":13627,"screen_resolution":[1366,768],"minimum_resolution":1,"all_loaded":true,"item_set":3,"long_form":2,"trial_type":"mars","trial_index":18,"time_elapsed":102523,"internal_node_id":"0.0-13.0-2.0","experiment":"validation-B","task_version":"2.0","jspsych_version":"6.3.1","browser_interactions":0},{"rt":null,"stimulus":"<div style=\"font-size:24px;\">Loading puzzle:<br>7 / 24</div>","response":null,"trial_type":"html-keyboard-response","trial_index":19,"time_elapsed":103726,"internal_node_id":"0.0-14.0-1.0","experiment":"validation-B","task_version":"2.0","jspsych_version":"6.3.1"},{"item":29,"shape_set":3,"distractor":"pd","choice_order":[3,0,2,1],"correct":0,"choice":0,"accuracy":1,"rt":9099,"screen_resolution":[1366,768],"minimum_resolution":1,"all_loaded":true,"item_set":3,"long_form":2,"trial_type":"mars","trial_index":20,"time_elapsed":112826,"internal_node_id":"0.0-14.0-2.0","experiment":"validation-B","task_version":"2.0","jspsych_version":"6.3.1","browser_interactions":0},{"rt":null,"stimulus":"<div style=\"font-size:24px;\">Loading puzzle:<br>8 / 24</div>","response":null,"trial_type":"html-keyboard-response","trial_index":21,"time_elapsed":114031,"internal_node_id":"0.0-15.0-1.0","experiment":"validation-B","task_version":"2.0","jspsych_version":"6.3.1"},{"item":24,"shape_set":1,"distractor":"pd","choice_order":[1,3,0,2],"correct":0,"choice":0,"accuracy":1,"rt":9364.399999976158,"screen_resolution":[1366,768],"minimum_resolution":1,"all_loaded":true,"item_set":3,"long_form":2,"trial_type":"mars","trial_index":22,"time_elapsed":123397,"internal_node_id":"0.0-15.0-2.0","experiment":"validation-B","task_version":"2.0","jspsych_version":"6.3.1","browser_interactions":0},{"rt":null,"stimulus":"<div style=\"font-size:24px;\">Loading puzzle:<br>9 / 24</div>","response":null,"trial_type":"html-keyboard-response","trial_index":23,"time_elapsed":124604,"internal_node_id":"0.0-16.0-1.0","experiment":"validation-B","task_version":"2.0","jspsych_version":"6.3.1"},{"item":17,"shape_set":2,"distractor":"pd","choice_order":[3,1,2,0],"correct":0,"choice":1,"accuracy":0,"rt":8519,"screen_resolution":[1366,768],"minimum_resolution":1,"all_loaded":true,"item_set":3,"long_form":2,"trial_type":"mars","trial_index":24,"time_elapsed":133124,"internal_node_id":"0.0-16.0-2.0","experiment":"validation-B","task_version":"2.0","jspsych_version":"6.3.1","browser_interactions":0},{"rt":null,"stimulus":"<div style=\"font-size:24px;\">Loading puzzle:<br>10 / 24</div>","response":null,"trial_type":"html-keyboard-response","trial_index":25,"time_elapsed":134332,"internal_node_id":"0.0-17.0-1.0","experiment":"validation-B","task_version":"2.0","jspsych_version":"6.3.1"},{"item":76,"shape_set":2,"distractor":"pd","choice_order":[3,0,1,2],"correct":0,"choice":2,"accuracy":0,"rt":7342.300000011921,"screen_resolution":[1366,768],"minimum_resolution":1,"all_loaded":true,"item_set":3,"long_form":2,"trial_type":"mars","trial_index":26,"time_elapsed":141675,"internal_node_id":"0.0-17.0-2.0","experiment":"validation-B","task_version":"2.0","jspsych_version":"6.3.1","browser_interactions":0},{"rt":null,"stimulus":"<div style=\"font-size:24px;\">Loading puzzle:<br>11 / 24</div>","response":null,"trial_type":"html-keyboard-response","trial_index":27,"time_elapsed":142879,"internal_node_id":"0.0-18.0-1.0","experiment":"validation-B","task_version":"2.0","jspsych_version":"6.3.1"},{"item":75,"shape_set":3,"distractor":"pd","choice_order":[3,1,2,0],"correct":0,"choice":0,"accuracy":1,"rt":7698.5,"screen_resolution":[1366,768],"minimum_resolution":1,"all_loaded":true,"item_set":3,"long_form":2,"trial_type":"mars","trial_index":28,"time_elapsed":150578,"internal_node_id":"0.0-18.0-2.0","experiment":"validation-B","task_version":"2.0","jspsych_version":"6.3.1","browser_interactions":0},{"rt":null,"stimulus":"<div style=\"font-size:24px;\">Loading puzzle:<br>12 / 24</div>","response":null,"trial_type":"html-keyboard-response","trial_index":29,"time_elapsed":151788,"internal_node_id":"0.0-19.0-1.0","experiment":"validation-B","task_version":"2.0","jspsych_version":"6.3.1"},{"item":72,"shape_set":2,"distractor":"pd","choice_order":[0,3,1,2],"correct":0,"choice":1,"accuracy":0,"rt":3463.5,"screen_resolution":[1366,768],"minimum_resolution":1,"all_loaded":true,"item_set":3,"long_form":2,"trial_type":"mars","trial_index":30,"time_elapsed":155253,"internal_node_id":"0.0-19.0-2.0","experiment":"validation-B","task_version":"2.0","jspsych_version":"6.3.1","browser_interactions":0},{"view_history":[{"page_index":0,"viewing_time":1041.199999988079},{"page_index":1,"viewing_time":3084.100000023842}],"rt":4125.600000023842,"trial_type":"instructions","trial_index":31,"time_elapsed":159379,"internal_node_id":"0.0-20.0","experiment":"validation-B","task_version":"2.0","jspsych_version":"6.3.1"},{"rt":null,"stimulus":"<div style=\"font-size:24px;\">Loading puzzle:<br>13 / 24</div>","response":null,"trial_type":"html-keyboard-response","trial_index":32,"time_elapsed":160590,"internal_node_id":"0.0-21.0-1.0","experiment":"validation-B","task_version":"2.0","jspsych_version":"6.3.1"},{"item":35,"shape_set":2,"distractor":"pd","choice_order":[2,1,0,3],"correct":0,"choice":3,"accuracy":0,"rt":8300.699999988079,"screen_resolution":[1366,768],"minimum_resolution":1,"all_loaded":true,"item_set":3,"long_form":2,"trial_type":"mars","trial_index":33,"time_elapsed":168892,"internal_node_id":"0.0-21.0-2.0","experiment":"validation-B","task_version":"2.0","jspsych_version":"6.3.1","browser_interactions":0},{"rt":null,"stimulus":"<div style=\"font-size:24px;\">Loading puzzle:<br>14 / 24</div>","response":null,"trial_type":"html-keyboard-response","trial_index":34,"time_elapsed":170097,"internal_node_id":"0.0-22.0-1.0","experiment":"validation-B","task_version":"2.0","jspsych_version":"6.3.1"},{"item":36,"shape_set":1,"distractor":"pd","choice_order":[1,3,2,0],"correct":0,"choice":0,"accuracy":1,"rt":6207.900000035763,"screen_resolution":[1366,768],"minimum_resolution":1,"all_loaded":true,"item_set":3,"long_form":2,"trial_type":"mars","trial_index":35,"time_elapsed":176306,"internal_node_id":"0.0-22.0-2.0","experiment":"validation-B","task_version":"2.0","jspsych_version":"6.3.1","browser_interactions":0},{"rt":null,"stimulus":"<div style=\"font-size:24px;\">Loading puzzle:<br>15 / 24</div>","response":null,"trial_type":"html-keyboard-response","trial_index":36,"time_elapsed":177520,"internal_node_id":"0.0-23.0-1.0","experiment":"validation-B","task_version":"2.0","jspsych_version":"6.3.1"},{"item":64,"shape_set":3,"distractor":"pd","choice_order":[0,1,3,2],"correct":0,"choice":3,"accuracy":0,"rt":4030.400000035763,"screen_resolution":[1366,768],"minimum_resolution":1,"all_loaded":true,"item_set":3,"long_form":2,"trial_type":"mars","trial_index":37,"time_elapsed":181552,"internal_node_id":"0.0-23.0-2.0","experiment":"validation-B","task_version":"2.0","jspsych_version":"6.3.1","browser_interactions":0},{"rt":null,"stimulus":"<div style=\"font-size:24px;\">Loading puzzle:<br>16 / 24</div>","response":null,"trial_type":"html-keyboard-response","trial_index":38,"time_elapsed":182758,"internal_node_id":"0.0-24.0-1.0","experiment":"validation-B","task_version":"2.0","jspsych_version":"6.3.1"},{"item":80,"shape_set":1,"distractor":"pd","choice_order":[1,2,0,3],"correct":0,"choice":0,"accuracy":1,"rt":4682.5,"screen_resolution":[1366,768],"minimum_resolution":1,"all_loaded":true,"item_set":3,"long_form":2,"trial_type":"mars","trial_index":39,"time_elapsed":187442,"internal_node_id":"0.0-24.0-2.0","experiment":"validation-B","task_version":"2.0","jspsych_version":"6.3.1","browser_interactions":0},{"rt":null,"stimulus":"<div style=\"font-size:24px;\">Loading puzzle:<br>17 / 24</div>","response":null,"trial_type":"html-keyboard-response","trial_index":40,"time_elapsed":188650,"internal_node_id":"0.0-25.0-1.0","experiment":"validation-B","task_version":"2.0","jspsych_version":"6.3.1"},{"item":74,"shape_set":1,"distractor":"pd","choice_order":[1,3,2,0],"correct":0,"choice":1,"accuracy":0,"rt":11061.899999976158,"screen_resolution":[1366,768],"minimum_resolution":1,"all_loaded":true,"item_set":3,"long_form":2,"trial_type":"mars","trial_index":41,"time_elapsed":199713,"internal_node_id":"0.0-25.0-2.0","experiment":"validation-B","task_version":"2.0","jspsych_version":"6.3.1","browser_interactions":0},{"rt":null,"stimulus":"<div style=\"font-size:24px;\">Loading puzzle:<br>18 / 24</div>","response":null,"trial_type":"html-keyboard-response","trial_index":42,"time_elapsed":200920,"internal_node_id":"0.0-26.0-1.0","experiment":"validation-B","task_version":"2.0","jspsych_version":"6.3.1"},{"item":46,"shape_set":2,"distractor":"pd","choice_order":[2,1,3,0],"correct":0,"choice":2,"accuracy":0,"rt":4093.899999976158,"screen_resolution":[1366,768],"minimum_resolution":1,"all_loaded":true,"item_set":3,"long_form":2,"trial_type":"mars","trial_index":43,"time_elapsed":205015,"internal_node_id":"0.0-26.0-2.0","experiment":"validation-B","task_version":"2.0","jspsych_version":"6.3.1","browser_interactions":0},{"rt":null,"stimulus":"<div style=\"font-size:24px;\">Loading puzzle:<br>19 / 24</div>","response":null,"trial_type":"html-keyboard-response","trial_index":44,"time_elapsed":206217,"internal_node_id":"0.0-27.0-1.0","experiment":"validation-B","task_version":"2.0","jspsych_version":"6.3.1"},{"item":59,"shape_set":2,"distractor":"pd","choice_order":[2,3,1,0],"correct":0,"choice":0,"accuracy":1,"rt":4590.900000035763,"screen_resolution":[1366,768],"minimum_resolution":1,"all_loaded":true,"item_set":3,"long_form":2,"trial_type":"mars","trial_index":45,"time_elapsed":210809,"internal_node_id":"0.0-27.0-2.0","experiment":"validation-B","task_version":"2.0","jspsych_version":"6.3.1","browser_interactions":0},{"rt":null,"stimulus":"<div style=\"font-size:24px;\">Loading puzzle:<br>20 / 24</div>","response":null,"trial_type":"html-keyboard-response","trial_index":46,"time_elapsed":212015,"internal_node_id":"0.0-28.0-1.0","experiment":"validation-B","task_version":"2.0","jspsych_version":"6.3.1"},{"item":66,"shape_set":3,"distractor":"pd","choice_order":[1,2,3,0],"correct":0,"choice":2,"accuracy":0,"rt":7522.300000011921,"screen_resolution":[1366,768],"minimum_resolution":1,"all_loaded":true,"item_set":3,"long_form":2,"trial_type":"mars","trial_index":47,"time_elapsed":219539,"internal_node_id":"0.0-28.0-2.0","experiment":"validation-B","task_version":"2.0","jspsych_version":"6.3.1","browser_interactions":0},{"rt":null,"stimulus":"<div style=\"font-size:24px;\">Loading puzzle:<br>21 / 24</div>","response":null,"trial_type":"html-keyboard-response","trial_index":48,"time_elapsed":220747,"internal_node_id":"0.0-29.0-1.0","experiment":"validation-B","task_version":"2.0","jspsych_version":"6.3.1"},{"item":63,"shape_set":1,"distractor":"pd","choice_order":[0,1,2,3],"correct":0,"choice":0,"accuracy":1,"rt":12768.900000035763,"screen_resolution":[1366,768],"minimum_resolution":1,"all_loaded":true,"item_set":3,"long_form":2,"trial_type":"mars","trial_index":49,"time_elapsed":233517,"internal_node_id":"0.0-29.0-2.0","experiment":"validation-B","task_version":"2.0","jspsych_version":"6.3.1","browser_interactions":0},{"rt":null,"stimulus":"<div style=\"font-size:24px;\">Loading puzzle:<br>22 / 24</div>","response":null,"trial_type":"html-keyboard-response","trial_index":50,"time_elapsed":234730,"internal_node_id":"0.0-30.0-1.0","experiment":"validation-B","task_version":"2.0","jspsych_version":"6.3.1"},{"item":21,"shape_set":3,"distractor":"pd","choice_order":[1,2,3,0],"correct":0,"choice":0,"accuracy":1,"rt":5903.699999988079,"screen_resolution":[1366,768],"minimum_resolution":1,"all_loaded":true,"item_set":3,"long_form":2,"trial_type":"mars","trial_index":51,"time_elapsed":240635,"internal_node_id":"0.0-30.0-2.0","experiment":"validation-B","task_version":"2.0","jspsych_version":"6.3.1","browser_interactions":0},{"rt":null,"stimulus":"<div style=\"font-size:24px;\">Loading puzzle:<br>23 / 24</div>","response":null,"trial_type":"html-keyboard-response","trial_index":52,"time_elapsed":241840,"internal_node_id":"0.0-31.0-1.0","experiment":"validation-B","task_version":"2.0","jspsych_version":"6.3.1"},{"item":78,"shape_set":3,"distractor":"pd","choice_order":[2,1,0,3],"correct":0,"choice":0,"accuracy":1,"rt":10406,"screen_resolution":[1366,768],"minimum_resolution":1,"all_loaded":true,"item_set":3,"long_form":2,"trial_type":"mars","trial_index":53,"time_elapsed":252247,"internal_node_id":"0.0-31.0-2.0","experiment":"validation-B","task_version":"2.0","jspsych_version":"6.3.1","browser_interactions":0},{"rt":null,"stimulus":"<div style=\"font-size:24px;\">Loading puzzle:<br>24 / 24</div>","response":null,"trial_type":"html-keyboard-response","trial_index":54,"time_elapsed":253452,"internal_node_id":"0.0-32.0-1.0","experiment":"validation-B","task_version":"2.0","jspsych_version":"6.3.1"},{"item":44,"shape_set":2,"distractor":"pd","choice_order":[1,2,3,0],"correct":0,"choice":2,"accuracy":0,"rt":12059.599999964237,"screen_resolution":[1366,768],"minimum_resolution":1,"all_loaded":true,"item_set":3,"long_form":2,"trial_type":"mars","trial_index":55,"time_elapsed":265507,"internal_node_id":"0.0-32.0-2.0","experiment":"validation-B","task_version":"2.0","jspsych_version":"6.3.1","browser_interactions":0},{"value":[0,0,0],"trial_type":"call-function","trial_index":56,"time_elapsed":265508,"internal_node_id":"0.0-33.0","experiment":"validation-B","task_version":"2.0","jspsych_version":"6.3.1","interactions":"[{\"event\":\"fullscreenenter\",\"trial\":1,\"time\":9637}]"}]