[{"view_history":[{"page_index":0,"viewing_time":1542591.800000012}],"rt":1542592.5,"trial_type":"instructions","trial_index":0,"time_elapsed":1542603,"internal_node_id":"0.0-0.0","experiment":"validation","task_version":"2.0","jspsych_version":"6.3.1"},{"rt":11701.099999964237,"responses":{"age":"46","gender-categorical":"Female","gender-free-response":"","ethnicity":"Not Hispanic or Latino","race":["White"],"education":"Bachelor degree"},"survey":"demographics","trial_type":"survey-demo","trial_index":1,"time_elapsed":1554306,"internal_node_id":"0.0-1.0","experiment":"validation","task_version":"2.0","jspsych_version":"6.3.1"},{"rt":77325,"response":{"Q5":5,"Q6":0,"Q4":5,"Q1":5,"Q3":5,"Q2":5,"Q8":0,"Q7":5,"Q0":5},"question_order":[5,6,4,1,3,2,8,7,0],"survey":"sns","trial_type":"survey-likert","trial_index":2,"time_elapsed":1631631,"internal_node_id":"0.0-2.0","experiment":"validation","task_version":"2.0","jspsych_version":"6.3.1","infrequency":0},{"responses":{"Q07":"4","Q08":"4","Q09":"0","Q01":"4","Q02":"4","Q06":"4","Q03":"4","Q05":"4","Q04":"4"},"rt":23930.69999998808,"item_order":[6,7,8,0,1,5,2,4,3],"radio_events":[3408,4667.199999988079,5819.599999964237,6610,7555.399999976158,13035,14217.699999988079,15845.199999988079,22348.899999976158],"key_events":[],"mouse_events":[3408,4667.199999988079,5819.599999964237,6610,7555.399999976158,13035,14217.699999988079,15845.199999988079,22348.899999976158,23929.399999976158],"straightlining":1,"zigzagging":0,"honeypot":0,"survey":"pcf","trial_type":"survey-template","trial_index":3,"time_elapsed":1655565,"internal_node_id":"0.0-3.0","experiment":"validation","task_version":"2.0","jspsych_version":"6.3.1","infrequency":1},{"responses":{"Q09":"3","Q03":"4","Q11":"0","Q01":"2","Q08":"3","Q07":"3","Q10":"3","Q05":"4","Q02":"3","Q06":"0","Q04":"4"},"rt":46805.40000003576,"item_order":[8,2,10,0,7,6,9,4,1,5,3],"radio_events":[3488.5,6650.300000011921,10180.300000011921,10986.400000035763,11550,15830.700000047684,17248.400000035763,19830.30000001192,21433.900000035763,22516.400000035763,26243.400000035763,26844.400000035763,29624,31838.700000047684,33546.30000001192,35118.30000001192,41514.10000002384],"key_events":[],"mouse_events":[3488.5,5320.700000047684,6650.300000011921,8880.5,10180.300000011921,10986.400000035763,11550,15440.5,15830.700000047684,17248.400000035763,18992.700000047684,19830.30000001192,21433.900000035763,22516.400000035763,23377.400000035763,25756.80000001192,26243.400000035763,26844.400000035763,29624,31838.700000047684,33546.30000001192,35118.30000001192,35980.5,41514.10000002384,46804.30000001192],"straightlining":0.45454545454545453,"zigzagging":0.1,"honeypot":0,"survey":"nfc10","trial_type":"survey-template","trial_index":4,"time_elapsed":1702375,"internal_node_id":"0.0-4.0","experiment":"validation","task_version":"2.0","jspsych_version":"6.3.1","infrequency":0},{"value":1,"trial_type":"call-function","trial_index":5,"time_elapsed":1702377,"internal_node_id":"0.0-5.0","experiment":"validation","task_version":"2.0","jspsych_version":"6.3.1","interactions":"[{\"event\":\"blur\",\"trial\":0,\"time\":1633},{\"event\":\"focus\",\"trial\":0,\"time\":1455940},{\"event\":\"blur\",\"trial\":0,\"time\":1457858},{\"event\":\"focus\",\"trial\":0,\"time\":1459653},{\"event\":\"blur\",\"trial\":0,\"time\":1461003},{\"event\":\"focus\",\"trial\":0,\"time\":1538859},{\"event\":\"blur\",\"trial\":0,\"time\":1539451},{\"event\":\"focus\",\"trial\":0,\"time\":1541496}]"}]