[{"view_history":[{"page_index":0,"viewing_time":2518.699999988079}],"rt":2519.699999988079,"trial_type":"instructions","trial_index":0,"time_elapsed":2534,"internal_node_id":"0.0-0.0","experiment":"validation","task_version":"2.0","jspsych_version":"6.3.1"},{"rt":11266.699999988079,"responses":{"age":"42","gender-categorical":"Female","gender-free-response":"","ethnicity":"Not Hispanic or Latino","race":["White"],"education":"Bachelor degree"},"survey":"demographics","trial_type":"survey-demo","trial_index":1,"time_elapsed":13809,"internal_node_id":"0.0-1.0","experiment":"validation","task_version":"2.0","jspsych_version":"6.3.1"},{"responses":{"Q10":"1","Q04":"1","Q03":"3","Q02":"1","Q09":"1","Q01":"1","Q07":"1","Q06":"0","Q05":"1","Q08":"1","Q11":"0"},"rt":83825.20000004768,"item_order":[9,3,2,1,8,0,6,5,4,7,10],"radio_events":[12703.5,18080.100000023842,20282.30000001192,26718.200000047684,34716.80000001192,35736.90000003576,42844.5,52393.30000001192,54691.700000047684,70729.70000004768,73923.5,81237.20000004768,82776.20000004768],"key_events":[],"mouse_events":[12703.5,17199.30000001192,18080.100000023842,20282.30000001192,26718.200000047684,29610.5,30570.80000001192,33916.60000002384,34716.80000001192,35736.90000003576,41883.700000047684,42844.5,52393.30000001192,54691.700000047684,70729.70000004768,73923.5,77589,81237.20000004768,82776.20000004768,83819.10000002384],"straightlining":0.6363636363636364,"zigzagging":0.2,"honeypot":0,"survey":"nfc10","trial_type":"survey-template","trial_index":2,"time_elapsed":97653,"internal_node_id":"0.0-2.0","experiment":"validation","task_version":"2.0","jspsych_version":"6.3.1","infrequency":0},{"responses":{"Q08":"3","Q04":"4","Q06":"3","Q02":"3","Q05":"3","Q03":"4","Q07":"4","Q01":"4","Q09":"4"},"rt":44437.5,"item_order":[7,3,5,1,4,2,6,0,8],"radio_events":[4780.799999952316,10420.799999952316,16389.399999976158,21527.899999976158,22999.799999952316,30611.5,31592.599999964237,33345.69999998808,42702.5],"key_events":[],"mouse_events":[4780.799999952316,9178,10420.799999952316,16389.399999976158,21527.899999976158,22999.799999952316,25753.5,29809.5,30611.5,31592.599999964237,33345.69999998808,34579.69999998808,42702.5,44434.69999998808],"straightlining":0.4444444444444444,"zigzagging":0.5,"honeypot":0,"survey":"pcf","trial_type":"survey-template","trial_index":3,"time_elapsed":142099,"internal_node_id":"0.0-3.0","experiment":"validation","task_version":"2.0","jspsych_version":"6.3.1","infrequency":0},{"rt":59809.59999996424,"response":{"Q6":0,"Q2":5,"Q8":0,"Q1":5,"Q5":5,"Q7":5,"Q3":5,"Q4":4,"Q0":4},"question_order":[6,2,8,1,5,7,3,4,0],"survey":"sns","trial_type":"survey-likert","trial_index":4,"time_elapsed":201921,"internal_node_id":"0.0-4.0","experiment":"validation","task_version":"2.0","jspsych_version":"6.3.1","infrequency":0},{"value":0,"trial_type":"call-function","trial_index":5,"time_elapsed":201926,"internal_node_id":"0.0-5.0","experiment":"validation","task_version":"2.0","jspsych_version":"6.3.1","interactions":"[]"}]