[{"view_history":[{"page_index":0,"viewing_time":1204.9000000357628}],"rt":1205.199999988079,"trial_type":"instructions","trial_index":0,"time_elapsed":1210,"internal_node_id":"0.0-0.0","experiment":"validation","task_version":"2.0","jspsych_version":"6.3.1"},{"rt":10050.600000023842,"responses":{"age":"31","gender-categorical":"Female","gender-free-response":"","ethnicity":"Not Hispanic or Latino","race":["White"],"education":"Some college"},"survey":"demographics","trial_type":"survey-demo","trial_index":1,"time_elapsed":11263,"internal_node_id":"0.0-1.0","experiment":"validation","task_version":"2.0","jspsych_version":"6.3.1"},{"rt":29386.19999998808,"response":{"Q3":0,"Q1":1,"Q2":0,"Q8":0,"Q7":3,"Q6":1,"Q0":2,"Q5":4,"Q4":4},"question_order":[3,1,2,8,7,6,0,5,4],"survey":"sns","trial_type":"survey-likert","trial_index":2,"time_elapsed":40658,"internal_node_id":"0.0-2.0","experiment":"validation","task_version":"2.0","jspsych_version":"6.3.1","infrequency":0},{"responses":{"Q06":"1","Q04":"2","Q08":"2","Q02":"2","Q05":"3","Q09":"2","Q10":"3","Q01":"2","Q03":"3","Q07":"2","Q11":"2"},"rt":92585.30000001192,"item_order":[5,3,7,1,4,8,9,0,2,6,10],"radio_events":[77251.19999998808,77758.80000001192,80333.19999998808,82061.60000002384,82820.89999997616,84188.80000001192,85653,86317,87279.69999998808,87937,89251.19999998808],"key_events":[],"mouse_events":[76407.89999997616,76961.60000002384,77251.19999998808,77758.80000001192,78433,78949.30000001192,79284.69999998808,79747.80000001192,80333.19999998808,81045.39999997616,81522.89999997616,81787,82061.60000002384,82820.89999997616,83743.10000002384,84188.80000001192,85653,86317,87279.69999998808,87937,88436.89999997616,89251.19999998808,92583.39999997616],"straightlining":0.6363636363636364,"zigzagging":0.7,"honeypot":0,"survey":"nfc10","trial_type":"survey-template","trial_index":3,"time_elapsed":133248,"internal_node_id":"0.0-3.0","experiment":"validation","task_version":"2.0","jspsych_version":"6.3.1","infrequency":1},{"responses":{"Q07":"2","Q03":"2","Q04":"3","Q09":"4","Q05":"2","Q08":"3","Q01":"2","Q02":"2","Q06":"3"},"rt":23844.69999998808,"item_order":[6,2,3,8,4,7,0,1,5],"radio_events":[5031.199999988079,7056.799999952316,8496.799999952316,10561,11068.699999988079,12775.099999964237,16138.799999952316,18226.69999998808,20339.19999998808,23272.599999964237],"key_events":[],"mouse_events":[2934.899999976158,5031.199999988079,7056.799999952316,7433.299999952316,7667,8496.799999952316,9013.199999988079,9513.5,10561,11068.699999988079,12775.099999964237,16138.799999952316,18226.69999998808,19776.599999964237,20339.19999998808,21112.599999964237,21354.799999952316,21661,22074.799999952316,22967,23272.599999964237,23843.399999976158],"straightlining":0.5555555555555556,"zigzagging":0.5,"honeypot":0,"survey":"pcf","trial_type":"survey-template","trial_index":4,"time_elapsed":157098,"internal_node_id":"0.0-4.0","experiment":"validation","task_version":"2.0","jspsych_version":"6.3.1","infrequency":0},{"value":1,"trial_type":"call-function","trial_index":5,"time_elapsed":157103,"internal_node_id":"0.0-5.0","experiment":"validation","task_version":"2.0","jspsych_version":"6.3.1","interactions":"[{\"event\":\"blur\",\"trial\":3,\"time\":44345},{\"event\":\"focus\",\"trial\":3,\"time\":115115}]"}]