[{"view_history":[{"page_index":0,"viewing_time":2126.5999999940395}],"rt":2127,"trial_type":"instructions","trial_index":0,"time_elapsed":2133,"internal_node_id":"0.0-0.0","experiment":"validation","task_version":"2.0","jspsych_version":"6.3.1"},{"rt":17492,"responses":{"age":"28","gender-categorical":"Female","gender-free-response":"","ethnicity":"Not Hispanic or Latino","race":["White"],"education":"Bachelor degree"},"survey":"demographics","trial_type":"survey-demo","trial_index":1,"time_elapsed":19628,"internal_node_id":"0.0-1.0","experiment":"validation","task_version":"2.0","jspsych_version":"6.3.1"},{"rt":125539,"response":{"Q7":5,"Q5":0,"Q8":0,"Q3":2,"Q4":5,"Q2":3,"Q6":0,"Q0":2,"Q1":3},"question_order":[7,5,8,3,4,2,6,0,1],"survey":"sns","trial_type":"survey-likert","trial_index":2,"time_elapsed":145170,"internal_node_id":"0.0-2.0","experiment":"validation","task_version":"2.0","jspsych_version":"6.3.1","infrequency":0},{"responses":{"Q04":"3","Q02":"2","Q08":"2","Q05":"2","Q07":"3","Q01":"3","Q09":"4","Q06":"2","Q03":"3"},"rt":73850,"item_order":[3,1,7,4,6,0,8,5,2],"radio_events":[37341.19999998808,39327.30000001192,40653.40000000596,44843.59999999404,46372.69999998808,47095.19999998808,65112.59999999404,67153.19999998808,70371,72278.69999998808],"key_events":[],"mouse_events":[37341.19999998808,39327.30000001192,40653.40000000596,44843.59999999404,46372.69999998808,47095.19999998808,65112.59999999404,67153.19999998808,70371,72278.69999998808,73847.40000000596],"straightlining":0.4444444444444444,"zigzagging":0.375,"honeypot":0,"survey":"pcf","trial_type":"survey-template","trial_index":3,"time_elapsed":219025,"internal_node_id":"0.0-3.0","experiment":"validation","task_version":"2.0","jspsych_version":"6.3.1","infrequency":0},{"responses":{"Q08":"4","Q02":"3","Q10":"4","Q11":"0","Q03":"3","Q07":"3","Q09":"1","Q05":"4","Q04":"4","Q01":"2","Q06":"3"},"rt":68037.39999997616,"item_order":[7,1,9,10,2,6,8,4,3,0,5],"radio_events":[19680.09999999404,23031.399999976158,26900.79999998212,30857.29999998212,33361.09999999404,36609.5,50243.19999998808,51693,52471.29999998212,56215.29999998212,58617.39999997616,63153,67382.29999998212],"key_events":[],"mouse_events":[19680.09999999404,23031.399999976158,25824.899999976158,26900.79999998212,30857.29999998212,33361.09999999404,36609.5,49660.59999999404,50243.19999998808,51139.5,51693,52471.29999998212,56215.29999998212,58617.39999997616,63153,65915.09999999404,66693,67382.29999998212,68035.29999998212],"straightlining":0.2727272727272727,"zigzagging":0.6,"honeypot":0,"survey":"nfc10","trial_type":"survey-template","trial_index":4,"time_elapsed":287067,"internal_node_id":"0.0-4.0","experiment":"validation","task_version":"2.0","jspsych_version":"6.3.1","infrequency":0},{"value":0,"trial_type":"call-function","trial_index":5,"time_elapsed":287068,"internal_node_id":"0.0-5.0","experiment":"validation","task_version":"2.0","jspsych_version":"6.3.1","interactions":"[{\"event\":\"blur\",\"trial\":1,\"time\":8970},{\"event\":\"focus\",\"trial\":1,\"time\":17596},{\"event\":\"blur\",\"trial\":2,\"time\":39727},{\"event\":\"focus\",\"trial\":2,\"time\":126940},{\"event\":\"blur\",\"trial\":3,\"time\":146746},{\"event\":\"focus\",\"trial\":3,\"time\":182425},{\"event\":\"blur\",\"trial\":3,\"time\":193870},{\"event\":\"focus\",\"trial\":3,\"time\":210220},{\"event\":\"blur\",\"trial\":4,\"time\":226701},{\"event\":\"focus\",\"trial\":4,\"time\":238619},{\"event\":\"blur\",\"trial\":4,\"time\":257475},{\"event\":\"focus\",\"trial\":4,\"time\":268600}]"}]