[{"view_history":[{"page_index":0,"viewing_time":4294.799999952316}],"rt":4295.399999976158,"trial_type":"instructions","trial_index":0,"time_elapsed":4301,"internal_node_id":"0.0-0.0","experiment":"validation","task_version":"2.0","jspsych_version":"6.3.1"},{"rt":15212.599999904633,"responses":{"age":"37","gender-categorical":"Female","gender-free-response":"","ethnicity":"Not Hispanic or Latino","race":["White"],"education":"Less than high school"},"survey":"demographics","trial_type":"survey-demo","trial_index":1,"time_elapsed":19515,"internal_node_id":"0.0-1.0","experiment":"validation","task_version":"2.0","jspsych_version":"6.3.1"},{"rt":55162.39999997616,"response":{"Q4":2,"Q7":2,"Q6":0,"Q3":1,"Q1":0,"Q8":0,"Q5":2,"Q2":0,"Q0":0},"question_order":[4,7,6,3,1,8,5,2,0],"survey":"sns","trial_type":"survey-likert","trial_index":2,"time_elapsed":74682,"internal_node_id":"0.0-2.0","experiment":"validation","task_version":"2.0","jspsych_version":"6.3.1","infrequency":0},{"responses":{"Q07":"2","Q09":"3","Q08":"3","Q05":"2","Q10":"2","Q02":"0","Q06":"2","Q11":"0","Q03":"4","Q01":"2","Q04":"2"},"rt":64629.800000071526,"item_order":[6,8,7,4,9,1,5,10,2,0,3],"radio_events":[10169.899999976158,12302.200000047684,14624.399999976158,18418.800000071526,22011.5,30274.100000023842,34834.700000047684,39999.60000002384,48674.5,56481.10000002384,60291.800000071526],"key_events":[],"mouse_events":[8197.899999976158,8749.600000023842,9637.700000047684,10169.899999976158,12302.200000047684,14624.399999976158,18418.800000071526,20843.100000023842,22011.5,29304.399999976158,30274.100000023842,34322.700000047684,34834.700000047684,39999.60000002384,48674.5,56481.10000002384,60291.800000071526,64628.700000047684],"straightlining":0.5454545454545454,"zigzagging":0.2,"honeypot":0,"survey":"nfc10","trial_type":"survey-template","trial_index":3,"time_elapsed":139316,"internal_node_id":"0.0-3.0","experiment":"validation","task_version":"2.0","jspsych_version":"6.3.1","infrequency":0},{"responses":{"Q08":"3","Q04":"4","Q02":"4","Q09":"4","Q03":"4","Q01":"4","Q05":"4","Q06":"4","Q07":"4"},"rt":58495,"item_order":[7,3,1,8,2,0,4,5,6],"radio_events":[7763.799999952316,13384.799999952316,14040.799999952316,17393.399999976158,24804.399999976158,26974.299999952316,28466.299999952316,33480.89999997616,34283.09999990463,57482.699999928474],"key_events":[],"mouse_events":[7763.799999952316,11658.799999952316,13384.799999952316,14040.799999952316,17393.399999976158,24804.399999976158,26974.299999952316,28466.299999952316,30372.399999976158,31272.699999928474,32697.199999928474,33480.89999997616,34283.09999990463,56994,57482.699999928474,58494.299999952316],"straightlining":0.7777777777777778,"zigzagging":0.375,"honeypot":0,"survey":"pcf","trial_type":"survey-template","trial_index":4,"time_elapsed":197815,"internal_node_id":"0.0-4.0","experiment":"validation","task_version":"2.0","jspsych_version":"6.3.1","infrequency":0},{"value":0,"trial_type":"call-function","trial_index":5,"time_elapsed":197818,"internal_node_id":"0.0-5.0","experiment":"validation","task_version":"2.0","jspsych_version":"6.3.1","interactions":"[]"}]