[{"view_history":[{"page_index":0,"viewing_time":2886.899999976158}],"rt":2887.099999964237,"trial_type":"instructions","trial_index":0,"time_elapsed":2897,"internal_node_id":"0.0-0.0","experiment":"validation","task_version":"2.0","jspsych_version":"6.3.1"},{"rt":15566,"responses":{"age":"42","gender-categorical":"Male","gender-free-response":"","ethnicity":"Not Hispanic or Latino","race":["White"],"education":"Some college"},"survey":"demographics","trial_type":"survey-demo","trial_index":1,"time_elapsed":18464,"internal_node_id":"0.0-1.0","experiment":"validation","task_version":"2.0","jspsych_version":"6.3.1"},{"rt":37653,"response":{"Q2":5,"Q1":4,"Q7":4,"Q8":0,"Q4":4,"Q3":5,"Q6":1,"Q5":4,"Q0":3},"question_order":[2,1,7,8,4,3,6,5,0],"survey":"sns","trial_type":"survey-likert","trial_index":2,"time_elapsed":56122,"internal_node_id":"0.0-2.0","experiment":"validation","task_version":"2.0","jspsych_version":"6.3.1","infrequency":0},{"responses":{"Q05":"4","Q06":"4","Q07":"4","Q04":"4","Q02":"4","Q01":"4","Q03":"4","Q08":"4","Q09":"4"},"rt":21957.5,"item_order":[4,5,6,3,1,0,2,7,8],"radio_events":[3388.600000023842,4374.800000011921,5225.5,7769.400000035763,8996.600000023842,9884.5,12270.100000023842,13986.100000023842,15935],"key_events":[],"mouse_events":[2651.300000011921,3388.600000023842,4374.800000011921,5225.5,6015.400000035763,7024.600000023842,7769.400000035763,8996.600000023842,9884.5,10607,11201.300000011921,12270.100000023842,12849.400000035763,13504.400000035763,13986.100000023842,15935,21956.600000023842],"straightlining":0.8888888888888888,"zigzagging":0.125,"honeypot":0,"survey":"pcf","trial_type":"survey-template","trial_index":3,"time_elapsed":78084,"internal_node_id":"0.0-3.0","experiment":"validation","task_version":"2.0","jspsych_version":"6.3.1","infrequency":0},{"responses":{"Q05":"4","Q11":"0","Q07":"4","Q06":"4","Q09":"2","Q01":"2","Q03":"4","Q08":"3","Q10":"3","Q04":"4","Q02":"4"},"rt":38504.30000001192,"item_order":[4,10,6,5,8,0,2,7,9,3,1],"radio_events":[9542.100000023842,10437.400000035763,13161,13966.5,16269.200000047684,18700.30000001192,21476.80000001192,23020.600000023842,26932.200000047684,28514,31509.200000047684,33940.200000047684,37635.30000001192],"key_events":[],"mouse_events":[5030.900000035763,5767.900000035763,6875.200000047684,7750.100000023842,9542.100000023842,10437.400000035763,13161,13966.5,16269.200000047684,18105.900000035763,18700.30000001192,21476.80000001192,22454.80000001192,23020.600000023842,25925.5,26932.200000047684,28514,31509.200000047684,33940.200000047684,36318.200000047684,36838.30000001192,37635.30000001192,38500.60000002384],"straightlining":0.36363636363636365,"zigzagging":0.2,"honeypot":0,"survey":"nfc10","trial_type":"survey-template","trial_index":4,"time_elapsed":116595,"internal_node_id":"0.0-4.0","experiment":"validation","task_version":"2.0","jspsych_version":"6.3.1","infrequency":0},{"value":0,"trial_type":"call-function","trial_index":5,"time_elapsed":116606,"internal_node_id":"0.0-5.0","experiment":"validation","task_version":"2.0","jspsych_version":"6.3.1","interactions":"[]"}]