[{"view_history":[{"page_index":0,"viewing_time":2895.900000035763}],"rt":2896.100000023842,"trial_type":"instructions","trial_index":0,"time_elapsed":2904,"internal_node_id":"0.0-0.0","experiment":"validation","task_version":"2.0","jspsych_version":"6.3.1"},{"rt":16581.30000001192,"responses":{"age":"31","gender-categorical":"Male","gender-free-response":"","ethnicity":"Not Hispanic or Latino","race":["White"],"education":"Some college"},"survey":"demographics","trial_type":"survey-demo","trial_index":1,"time_elapsed":19487,"internal_node_id":"0.0-1.0","experiment":"validation","task_version":"2.0","jspsych_version":"6.3.1"},{"responses":{"Q05":"3","Q09":"3","Q01":"3","Q06":"3","Q02":"3","Q11":"0","Q10":"3","Q07":"4","Q08":"3","Q03":"4","Q04":"4"},"rt":43477.39999997616,"item_order":[4,8,0,5,1,10,9,6,7,2,3],"radio_events":[4364.800000011921,6901.899999976158,10447.800000011921,14044.199999988079,15071.899999976158,17872.399999976158,21102.30000001192,24582,28920.19999998808,32938.10000002384,34565.80000001192,39844.5],"key_events":[],"mouse_events":[4364.800000011921,6901.899999976158,9582.399999976158,10137.800000011921,10447.800000011921,13672.399999976158,14044.199999988079,14530.399999976158,15071.899999976158,17574.5,17872.399999976158,21102.30000001192,24582,28920.19999998808,32938.10000002384,34565.80000001192,39180.19999998808,39566.39999997616,39844.5,43476.19999998808],"straightlining":0.5454545454545454,"zigzagging":0.2,"honeypot":0,"survey":"nfc10","trial_type":"survey-template","trial_index":2,"time_elapsed":62967,"internal_node_id":"0.0-2.0","experiment":"validation","task_version":"2.0","jspsych_version":"6.3.1","infrequency":0},{"rt":42100.89999997616,"response":{"Q0":2,"Q3":4,"Q5":4,"Q2":3,"Q1":3,"Q6":1,"Q4":2,"Q8":0,"Q7":4},"question_order":[0,3,5,2,1,6,4,8,7],"survey":"sns","trial_type":"survey-likert","trial_index":3,"time_elapsed":105072,"internal_node_id":"0.0-3.0","experiment":"validation","task_version":"2.0","jspsych_version":"6.3.1","infrequency":0},{"responses":{"Q05":"3","Q01":"3","Q06":"3","Q04":"4","Q08":"3","Q03":"3","Q09":"4","Q07":"3","Q02":"3"},"rt":30334.599999964237,"item_order":[4,0,5,3,7,2,8,6,1],"radio_events":[1870,3057.899999976158,6024.5,10235.800000011921,13139.199999988079,18063.69999998808,21893.399999976158,24158.19999998808,27445.30000001192,29643.69999998808],"key_events":[],"mouse_events":[1870,2728.399999976158,3057.899999976158,4813.699999988079,6024.5,10235.800000011921,13139.199999988079,18063.69999998808,21531.399999976158,21893.399999976158,23813.69999998808,24158.19999998808,27445.30000001192,29643.69999998808,30333.599999964237],"straightlining":0.7777777777777778,"zigzagging":0.25,"honeypot":0,"survey":"pcf","trial_type":"survey-template","trial_index":4,"time_elapsed":135409,"internal_node_id":"0.0-4.0","experiment":"validation","task_version":"2.0","jspsych_version":"6.3.1","infrequency":0},{"value":0,"trial_type":"call-function","trial_index":5,"time_elapsed":135411,"internal_node_id":"0.0-5.0","experiment":"validation","task_version":"2.0","jspsych_version":"6.3.1","interactions":"[{\"event\":\"blur\",\"trial\":1,\"time\":10010},{\"event\":\"focus\",\"trial\":1,\"time\":14906}]"}]