[{"view_history":[{"page_index":0,"viewing_time":9528.800000011921}],"rt":9529,"trial_type":"instructions","trial_index":0,"time_elapsed":9533,"internal_node_id":"0.0-0.0","experiment":"validation","task_version":"2.0","jspsych_version":"6.3.1"},{"rt":14555,"responses":{"age":"34","gender-categorical":"Male","gender-free-response":"","ethnicity":"Hispanic or Latino","race":["White"],"education":"Some college"},"survey":"demographics","trial_type":"survey-demo","trial_index":1,"time_elapsed":24090,"internal_node_id":"0.0-1.0","experiment":"validation","task_version":"2.0","jspsych_version":"6.3.1"},{"responses":{"Q08":"4","Q09":"0","Q02":"3","Q01":"3","Q06":"3","Q07":"3","Q05":"3","Q04":"3","Q03":"3"},"rt":40684.200000047684,"item_order":[7,8,1,0,5,6,4,3,2],"radio_events":[6075.700000047684,7119.700000047684,10327.700000047684,16139.700000047684,21295.80000001192,23479.700000047684,26943.700000047684,35573.700000047684,39513.700000047684],"key_events":[],"mouse_events":[3905.7000000476837,5309.700000047684,6075.700000047684,7119.700000047684,10327.700000047684,13759.800000011921,16139.700000047684,21295.80000001192,23479.700000047684,25593.80000001192,26943.700000047684,35573.700000047684,39513.700000047684,40683.700000047684],"straightlining":0.7777777777777778,"zigzagging":0.125,"honeypot":0,"survey":"pcf","trial_type":"survey-template","trial_index":2,"time_elapsed":64776,"internal_node_id":"0.0-2.0","experiment":"validation","task_version":"2.0","jspsych_version":"6.3.1","infrequency":1},{"rt":53577.89999997616,"response":{"Q6":0,"Q0":4,"Q7":3,"Q3":5,"Q1":3,"Q5":2,"Q2":3,"Q8":0,"Q4":5},"question_order":[6,0,7,3,1,5,2,8,4],"survey":"sns","trial_type":"survey-likert","trial_index":3,"time_elapsed":118356,"internal_node_id":"0.0-3.0","experiment":"validation","task_version":"2.0","jspsych_version":"6.3.1","infrequency":0},{"responses":{"Q07":"4","Q04":"3","Q11":"0","Q01":"2","Q05":"3","Q02":"3","Q06":"3","Q10":"4","Q09":"3","Q08":"3","Q03":"3"},"rt":84270.30000001192,"item_order":[6,3,10,0,4,1,5,9,8,7,2],"radio_events":[9667.700000047684,16953.700000047684,26447.600000023842,31283.600000023842,33069.60000002384,46453.60000002384,56299.60000002384,62991.700000047684,68007.60000002384,73747.5,76563.60000002384,79823.60000002384,83357.5],"key_events":[],"mouse_events":[9667.700000047684,16953.700000047684,26447.600000023842,31283.600000023842,33069.60000002384,45751.5,46453.60000002384,56299.60000002384,61875.60000002384,62991.700000047684,68007.60000002384,71579.70000004768,72679.5,73747.5,75971.60000002384,76563.60000002384,79293.60000002384,79823.60000002384,82663.60000002384,83357.5,84269.70000004768],"straightlining":0.36363636363636365,"zigzagging":0.4,"honeypot":0,"survey":"nfc10","trial_type":"survey-template","trial_index":4,"time_elapsed":202628,"internal_node_id":"0.0-4.0","experiment":"validation","task_version":"2.0","jspsych_version":"6.3.1","infrequency":0},{"value":1,"trial_type":"call-function","trial_index":5,"time_elapsed":202629,"internal_node_id":"0.0-5.0","experiment":"validation","task_version":"2.0","jspsych_version":"6.3.1","interactions":"[{\"event\":\"focus\",\"trial\":0,\"time\":7575}]"}]