[{"view_history":[{"page_index":0,"viewing_time":9482.200000047684}],"rt":9483.400000035763,"trial_type":"instructions","trial_index":0,"time_elapsed":9502,"internal_node_id":"0.0-0.0","experiment":"validation","task_version":"2.0","jspsych_version":"6.3.1"},{"rt":10734.199999988079,"responses":{"age":"53","gender-categorical":"Female","gender-free-response":"","ethnicity":"Not Hispanic or Latino","race":["White"],"education":"Bachelor degree"},"survey":"demographics","trial_type":"survey-demo","trial_index":1,"time_elapsed":20240,"internal_node_id":"0.0-1.0","experiment":"validation","task_version":"2.0","jspsych_version":"6.3.1"},{"responses":{"Q05":"3","Q06":"3","Q03":"4","Q07":"4","Q08":"4","Q04":"4","Q01":"4","Q02":"4","Q10":"4","Q09":"4","Q11":"0"},"rt":42909.90000003576,"item_order":[4,5,2,6,7,3,0,1,9,8,10],"radio_events":[8129.5,10151.300000011921,12081.5,14403.800000011921,24864.100000023842,27495.80000001192,29971.600000023842,32711.80000001192,35661.200000047684,37281.10000002384,39605.30000001192],"key_events":[],"mouse_events":[8129.5,10151.300000011921,12081.5,14403.800000011921,16187.300000011921,24864.100000023842,27495.80000001192,29971.600000023842,32711.80000001192,34625.200000047684,35661.200000047684,37281.10000002384,39605.30000001192,42907.200000047684],"straightlining":0.5454545454545454,"zigzagging":0.4,"honeypot":0,"survey":"nfc10","trial_type":"survey-template","trial_index":2,"time_elapsed":63165,"internal_node_id":"0.0-2.0","experiment":"validation","task_version":"2.0","jspsych_version":"6.3.1","infrequency":0},{"responses":{"Q05":"4","Q04":"4","Q09":"4","Q06":"4","Q01":"4","Q08":"4","Q03":"4","Q07":"3","Q02":"3"},"rt":28007.30000001192,"item_order":[4,3,8,5,0,7,2,6,1],"radio_events":[4539.199999988079,9709.599999964237,13313.699999988079,16507.30000001192,17573.30000001192,19679.899999976158,23545.5,24463.69999998808,26129.19999998808,26917.69999998808],"key_events":[6764.599999964237],"mouse_events":[4539.199999988079,9709.599999964237,13313.699999988079,16507.30000001192,17573.30000001192,19679.899999976158,22311.69999998808,23545.5,24463.69999998808,26129.19999998808,26917.69999998808,28005.30000001192],"straightlining":0.6666666666666666,"zigzagging":0.375,"honeypot":0,"survey":"pcf","trial_type":"survey-template","trial_index":3,"time_elapsed":91184,"internal_node_id":"0.0-3.0","experiment":"validation","task_version":"2.0","jspsych_version":"6.3.1","infrequency":0},{"rt":29551.80000001192,"response":{"Q4":5,"Q1":3,"Q2":5,"Q3":5,"Q0":2,"Q7":5,"Q6":0,"Q5":3,"Q8":0},"question_order":[4,1,2,3,0,7,6,5,8],"survey":"sns","trial_type":"survey-likert","trial_index":4,"time_elapsed":120749,"internal_node_id":"0.0-4.0","experiment":"validation","task_version":"2.0","jspsych_version":"6.3.1","infrequency":0},{"value":0,"trial_type":"call-function","trial_index":5,"time_elapsed":120761,"internal_node_id":"0.0-5.0","experiment":"validation","task_version":"2.0","jspsych_version":"6.3.1","interactions":"[{\"event\":\"blur\",\"trial\":3,\"time\":74510},{\"event\":\"focus\",\"trial\":3,\"time\":76387},{\"event\":\"focus\",\"trial\":3,\"time\":76387}]"}]