[{"view_history":[{"page_index":0,"viewing_time":1529.5}],"rt":1530,"trial_type":"instructions","trial_index":0,"time_elapsed":1552,"internal_node_id":"0.0-0.0","experiment":"validation","task_version":"2.0","jspsych_version":"6.3.1"},{"rt":8232.400000000373,"responses":{"age":"24","gender-categorical":"Male","gender-free-response":"","ethnicity":"Not Hispanic or Latino","race":["Asian"],"education":"Associate degree"},"survey":"demographics","trial_type":"survey-demo","trial_index":1,"time_elapsed":9790,"internal_node_id":"0.0-1.0","experiment":"validation","task_version":"2.0","jspsych_version":"6.3.1"},{"responses":{"Q05":"0","Q06":"3","Q11":"3","Q09":"2","Q08":"2","Q03":"2","Q02":"3","Q01":"3","Q07":"3","Q10":"4","Q04":"0"},"rt":25126.89999999944,"item_order":[4,5,10,8,7,2,1,0,6,9,3],"radio_events":[3037.5999999996275,4916.699999999255,6569.699999999255,8322.599999999627,9124.099999999627,10696.199999999255,20690.599999999627,21786.199999999255,22853.199999999255,23706.199999999255,24387.299999999814],"key_events":[],"mouse_events":[327.5,1477,2078.399999999441,2662.699999999255,3037.5999999996275,3853.899999999441,4916.699999999255,6051.799999999814,6569.699999999255,7515,8322.599999999627,9124.099999999627,10183.299999999814,10696.199999999255,20690.599999999627,21434.699999999255,21786.199999999255,22345.599999999627,22853.199999999255,23706.199999999255,24387.299999999814,25123.39999999944],"straightlining":0.45454545454545453,"zigzagging":0.4,"honeypot":0,"survey":"nfc10","trial_type":"survey-template","trial_index":2,"time_elapsed":34926,"internal_node_id":"0.0-2.0","experiment":"validation","task_version":"2.0","jspsych_version":"6.3.1","infrequency":1},{"rt":23724.89999999944,"response":{"Q7":5,"Q5":4,"Q3":4,"Q8":0,"Q4":5,"Q2":5,"Q1":4,"Q6":3,"Q0":3},"question_order":[7,5,3,8,4,2,1,6,0],"survey":"sns","trial_type":"survey-likert","trial_index":3,"time_elapsed":58657,"internal_node_id":"0.0-3.0","experiment":"validation","task_version":"2.0","jspsych_version":"6.3.1","infrequency":0},{"responses":{"Q03":"1","Q05":"1","Q01":"1","Q08":"0","Q04":"0","Q07":"0","Q06":"1","Q09":"3","Q02":"0"},"rt":25906,"item_order":[2,4,0,7,3,6,5,8,1],"radio_events":[3848.100000000559,6946.700000000186,7517.5,10082.900000000373,10994.400000000373,11857.900000000373,12640.900000000373,13086.5,13844.800000000745],"key_events":[],"mouse_events":[2827.4000000003725,3848.100000000559,5254.9000000003725,6946.700000000186,7517.5,10082.900000000373,10994.400000000373,11857.900000000373,12640.900000000373,13086.5,13844.800000000745,25904.200000000186],"straightlining":0.5555555555555556,"zigzagging":0.375,"honeypot":0,"survey":"pcf","trial_type":"survey-template","trial_index":4,"time_elapsed":84568,"internal_node_id":"0.0-4.0","experiment":"validation","task_version":"2.0","jspsych_version":"6.3.1","infrequency":0.5},{"value":1.5,"trial_type":"call-function","trial_index":5,"time_elapsed":84572,"internal_node_id":"0.0-5.0","experiment":"validation","task_version":"2.0","jspsych_version":"6.3.1","interactions":"[]"}]