[{"view_history":[{"page_index":0,"viewing_time":1318.6999999997206}],"rt":1319,"trial_type":"instructions","trial_index":0,"time_elapsed":1328,"internal_node_id":"0.0-0.0","experiment":"validation","task_version":"2.0","jspsych_version":"6.3.1"},{"rt":11671.30000000028,"responses":{"age":"24","gender-categorical":"Female","gender-free-response":"","ethnicity":"Not Hispanic or Latino","race":["White"],"education":"Bachelor degree"},"survey":"demographics","trial_type":"survey-demo","trial_index":1,"time_elapsed":13002,"internal_node_id":"0.0-1.0","experiment":"validation","task_version":"2.0","jspsych_version":"6.3.1"},{"responses":{"Q02":"4","Q06":"4","Q04":"4","Q09":"4","Q07":"3","Q03":"4","Q01":"4","Q08":"4","Q05":"3"},"rt":28815.5,"item_order":[1,5,3,8,6,2,0,7,4],"radio_events":[4125.899999999907,6987.799999999814,8537.799999999814,10735.5,16127.799999999814,22837.600000000093,23837.600000000093,24891.5,25961.600000000093,27935.69999999972],"key_events":[],"mouse_events":[3407.899999999907,4125.899999999907,6119.299999999814,6987.799999999814,8537.799999999814,10735.5,16127.799999999814,22837.600000000093,23837.600000000093,24891.5,25961.600000000093,27935.69999999972,28813.600000000093],"straightlining":0.6666666666666666,"zigzagging":0.375,"honeypot":0,"survey":"pcf","trial_type":"survey-template","trial_index":2,"time_elapsed":41823,"internal_node_id":"0.0-2.0","experiment":"validation","task_version":"2.0","jspsych_version":"6.3.1","infrequency":0},{"responses":{"Q06":"1","Q05":"1","Q10":"2","Q07":"2","Q11":"0","Q09":"0","Q04":"1","Q03":"1","Q08":"2","Q01":"2","Q02":"2"},"rt":72871,"item_order":[5,4,9,6,10,8,3,2,7,0,1],"radio_events":[4609,7050.899999999907,9943.19999999972,12339.399999999907,16863.299999999814,23941.100000000093,27861.19999999972,57213,61365,66015,67243,69399,71438.79999999981],"key_events":[],"mouse_events":[4609,7050.899999999907,9943.19999999972,12339.399999999907,15689.299999999814,16863.299999999814,23941.100000000093,27861.19999999972,57213,60929.19999999972,61365,63363.10000000009,63807.19999999972,66015,67243,69399,71438.79999999981,72098.1000000001,72363.1000000001,72869.1000000001],"straightlining":0.45454545454545453,"zigzagging":0.2,"honeypot":0,"survey":"nfc10","trial_type":"survey-template","trial_index":3,"time_elapsed":114700,"internal_node_id":"0.0-3.0","experiment":"validation","task_version":"2.0","jspsych_version":"6.3.1","infrequency":0},{"rt":52339.700000000186,"response":{"Q0":4,"Q2":5,"Q6":0,"Q7":5,"Q5":5,"Q8":0,"Q3":5,"Q4":3,"Q1":4},"question_order":[0,2,6,7,5,8,3,4,1],"survey":"sns","trial_type":"survey-likert","trial_index":4,"time_elapsed":167045,"internal_node_id":"0.0-4.0","experiment":"validation","task_version":"2.0","jspsych_version":"6.3.1","infrequency":0},{"value":0,"trial_type":"call-function","trial_index":5,"time_elapsed":167047,"internal_node_id":"0.0-5.0","experiment":"validation","task_version":"2.0","jspsych_version":"6.3.1","interactions":"[{\"event\":\"blur\",\"trial\":3,\"time\":73085},{\"event\":\"focus\",\"trial\":3,\"time\":78657},{\"event\":\"blur\",\"trial\":4,\"time\":145911},{\"event\":\"focus\",\"trial\":4,\"time\":152426}]"}]