[{"view_history":[{"page_index":0,"viewing_time":2543.7000000476837}],"rt":2544,"trial_type":"instructions","trial_index":0,"time_elapsed":2550,"internal_node_id":"0.0-0.0","experiment":"validation","task_version":"2.0","jspsych_version":"6.3.1"},{"rt":10721.100000023842,"responses":{"age":"40","gender-categorical":"Female","gender-free-response":"","ethnicity":"Not Hispanic or Latino","race":["White"],"education":"Bachelor degree"},"survey":"demographics","trial_type":"survey-demo","trial_index":1,"time_elapsed":13273,"internal_node_id":"0.0-1.0","experiment":"validation","task_version":"2.0","jspsych_version":"6.3.1"},{"responses":{"Q03":"3","Q02":"4","Q04":"4","Q07":"4","Q08":"3","Q05":"2","Q06":"3","Q09":"4","Q01":"3"},"rt":26360,"item_order":[2,1,3,6,7,4,5,8,0],"radio_events":[9860.299999952316,10883.799999952316,13937.699999928474,14859.899999976158,17124.899999976158,19064.100000023842,21807.399999976158,23401.100000023842,25253.399999976158],"key_events":[],"mouse_events":[9860.299999952316,10883.799999952316,13028.899999976158,13424.399999976158,13937.699999928474,14859.899999976158,16851.899999976158,17124.899999976158,19064.100000023842,21807.399999976158,23401.100000023842,25253.399999976158,26359.100000023842],"straightlining":0.4444444444444444,"zigzagging":0.5,"honeypot":0,"survey":"pcf","trial_type":"survey-template","trial_index":2,"time_elapsed":39644,"internal_node_id":"0.0-2.0","experiment":"validation","task_version":"2.0","jspsych_version":"6.3.1","infrequency":0},{"rt":24620.399999976158,"response":{"Q8":0,"Q3":4,"Q5":3,"Q6":3,"Q7":4,"Q1":3,"Q2":2,"Q0":3,"Q4":3},"question_order":[8,3,5,6,7,1,2,0,4],"survey":"sns","trial_type":"survey-likert","trial_index":3,"time_elapsed":64274,"internal_node_id":"0.0-3.0","experiment":"validation","task_version":"2.0","jspsych_version":"6.3.1","infrequency":0},{"responses":{"Q03":"3","Q09":"3","Q07":"3","Q06":"3","Q04":"2","Q05":"3","Q11":"0","Q10":"2","Q01":"2","Q02":"3","Q08":"3"},"rt":31413.299999952316,"item_order":[2,8,6,5,3,4,10,9,0,1,7],"radio_events":[4913.100000023842,5873.5,7104.700000047684,8365.799999952316,9822,12034.299999952316,15056.399999976158,17719.200000047684,19615.700000047684,23291.100000023842,26954.600000023842],"key_events":[],"mouse_events":[4913.100000023842,5873.5,7104.700000047684,8365.799999952316,9822,12034.299999952316,15056.399999976158,17719.200000047684,19159.399999976158,19615.700000047684,20428.100000023842,23291.100000023842,24281.399999976158,26954.600000023842,31412.200000047684],"straightlining":0.45454545454545453,"zigzagging":0.4,"honeypot":0,"survey":"nfc10","trial_type":"survey-template","trial_index":4,"time_elapsed":95697,"internal_node_id":"0.0-4.0","experiment":"validation","task_version":"2.0","jspsych_version":"6.3.1","infrequency":0},{"value":0,"trial_type":"call-function","trial_index":5,"time_elapsed":95705,"internal_node_id":"0.0-5.0","experiment":"validation","task_version":"2.0","jspsych_version":"6.3.1","interactions":"[{\"event\":\"blur\",\"trial\":1,\"time\":3828},{\"event\":\"focus\",\"trial\":1,\"time\":4515},{\"event\":\"blur\",\"trial\":3,\"time\":57551},{\"event\":\"focus\",\"trial\":3,\"time\":61785},{\"event\":\"blur\",\"trial\":4,\"time\":65505},{\"event\":\"focus\",\"trial\":4,\"time\":69139}]"}]