[{"view_history":[{"page_index":0,"viewing_time":2457.5}],"rt":2457.899999976158,"trial_type":"instructions","trial_index":0,"time_elapsed":2463,"internal_node_id":"0.0-0.0","experiment":"validation","task_version":"2.0","jspsych_version":"6.3.1"},{"rt":8240.5,"responses":{"age":"28","gender-categorical":"Female","gender-free-response":"","ethnicity":"Not Hispanic or Latino","race":["White"],"education":"Bachelor degree"},"survey":"demographics","trial_type":"survey-demo","trial_index":1,"time_elapsed":10707,"internal_node_id":"0.0-1.0","experiment":"validation","task_version":"2.0","jspsych_version":"6.3.1"},{"rt":31402.19999998808,"response":{"Q2":4,"Q1":3,"Q8":0,"Q5":3,"Q7":5,"Q3":3,"Q4":3,"Q6":4,"Q0":3},"question_order":[2,1,8,5,7,3,4,6,0],"survey":"sns","trial_type":"survey-likert","trial_index":2,"time_elapsed":42115,"internal_node_id":"0.0-2.0","experiment":"validation","task_version":"2.0","jspsych_version":"6.3.1","infrequency":0},{"responses":{"Q03":"3","Q04":"3","Q07":"4","Q02":"4","Q05":"3","Q08":"3","Q01":"3","Q09":"4","Q06":"3"},"rt":33085.59999996424,"item_order":[2,3,6,1,4,7,0,8,5],"radio_events":[7170.099999964237,11189.399999976158,12202.599999964237,15829.799999952316,17632.299999952316,19529.099999964237,22004.899999976158,27749.799999952316,31468.5],"key_events":[],"mouse_events":[7170.099999964237,10447.299999952316,11189.399999976158,12202.599999964237,15829.799999952316,17632.299999952316,19529.099999964237,22004.899999976158,23624.299999952316,27749.799999952316,28580.799999952316,31468.5,33082.19999998808],"straightlining":0.6666666666666666,"zigzagging":0.25,"honeypot":0,"survey":"pcf","trial_type":"survey-template","trial_index":3,"time_elapsed":75206,"internal_node_id":"0.0-3.0","experiment":"validation","task_version":"2.0","jspsych_version":"6.3.1","infrequency":0},{"responses":{"Q03":"4","Q08":"4","Q07":"4","Q11":"0","Q05":"4","Q10":"4","Q04":"4","Q06":"3","Q02":"3","Q01":"3","Q09":"3"},"rt":30628.899999976158,"item_order":[2,7,6,10,4,9,3,5,1,0,8],"radio_events":[3109.5,5690.599999964237,9086.799999952316,11321.699999988079,14517.099999964237,16713.19999998808,21897.799999952316,23770.599999964237,26471.799999952316,27687.099999964237,29704.399999976158],"key_events":[],"mouse_events":[3109.5,5336.099999964237,5690.599999964237,9086.799999952316,11321.699999988079,14517.099999964237,16713.19999998808,21897.799999952316,23770.599999964237,26471.799999952316,27687.099999964237,29283,29704.399999976158,30626.099999964237],"straightlining":0.36363636363636365,"zigzagging":0.4,"honeypot":0,"survey":"nfc10","trial_type":"survey-template","trial_index":4,"time_elapsed":105841,"internal_node_id":"0.0-4.0","experiment":"validation","task_version":"2.0","jspsych_version":"6.3.1","infrequency":0},{"value":0,"trial_type":"call-function","trial_index":5,"time_elapsed":105845,"internal_node_id":"0.0-5.0","experiment":"validation","task_version":"2.0","jspsych_version":"6.3.1","interactions":"[{\"event\":\"blur\",\"trial\":2,\"time\":41673},{\"event\":\"focus\",\"trial\":2,\"time\":42077}]"}]