[{"view_history":[{"page_index":0,"viewing_time":2606.2999999998137}],"rt":2606.5,"trial_type":"instructions","trial_index":0,"time_elapsed":2611,"internal_node_id":"0.0-0.0","experiment":"validation","task_version":"2.0","jspsych_version":"6.3.1"},{"rt":7030.399999999907,"responses":{"age":"30","gender-categorical":"Male","gender-free-response":"","ethnicity":"Not Hispanic or Latino","race":["White"],"education":"High school"},"survey":"demographics","trial_type":"survey-demo","trial_index":1,"time_elapsed":9643,"internal_node_id":"0.0-1.0","experiment":"validation","task_version":"2.0","jspsych_version":"6.3.1"},{"rt":30446.899999999907,"response":{"Q4":0,"Q8":0,"Q0":3,"Q7":3,"Q2":5,"Q5":5,"Q1":5,"Q3":5,"Q6":0},"question_order":[4,8,0,7,2,5,1,3,6],"survey":"sns","trial_type":"survey-likert","trial_index":2,"time_elapsed":40092,"internal_node_id":"0.0-2.0","experiment":"validation","task_version":"2.0","jspsych_version":"6.3.1","infrequency":0},{"responses":{"Q01":"4","Q04":"4","Q02":"4","Q08":"4","Q07":"4","Q03":"4","Q05":"4","Q06":"4","Q09":"4"},"rt":42509.299999999814,"item_order":[0,3,1,7,6,2,4,5,8],"radio_events":[6068.5,6660.600000000093,13396.700000000186,14660.700000000186,15228.5,16276.5,17268.5,36493.299999999814,36988.700000000186,40556.5,41860.60000000009],"key_events":[],"mouse_events":[4708.5,5332.899999999907,6068.5,6660.600000000093,10020.399999999907,11156.799999999814,11548.5,11900.700000000186,12276.5,12556.399999999907,12844.5,13132.5,13396.700000000186,14101.299999999814,14660.700000000186,15228.5,16276.5,17268.5,35204.39999999991,35877.299999999814,36204.299999999814,36493.299999999814,36988.700000000186,37652.5,38700.39999999991,39268.5,39852.60000000009,40244.799999999814,40556.5,41860.60000000009,42508.60000000009],"straightlining":0.8888888888888888,"zigzagging":0.125,"honeypot":0,"survey":"pcf","trial_type":"survey-template","trial_index":3,"time_elapsed":82604,"internal_node_id":"0.0-3.0","experiment":"validation","task_version":"2.0","jspsych_version":"6.3.1","infrequency":0},{"responses":{"Q08":"4","Q04":"4","Q11":"0","Q10":"4","Q01":"4","Q02":"4","Q09":"4","Q05":"4","Q06":"4","Q03":"4","Q07":"4"},"rt":155030.19999999972,"item_order":[7,3,10,9,0,1,8,4,5,2,6],"radio_events":[16181.399999999907,19669.299999999814,114133.3999999999,118125.5,119733.5,141149.3999999999,143077.5,144453.59999999963,145765.3999999999,149061.3999999999,150925.5,154429.2999999998],"key_events":[],"mouse_events":[16181.399999999907,18253.5,18965.5,19229.5,19669.299999999814,37989.39999999991,112949.59999999963,113589.59999999963,114133.3999999999,117373.69999999972,118125.5,119733.5,138566.19999999972,140389.19999999972,140805.2999999998,141149.3999999999,143077.5,144453.59999999963,145485.2999999998,145765.3999999999,149061.3999999999,150077.5,150541.5,150925.5,151997.5,153149.3999999999,154429.2999999998,155029.5],"straightlining":0.6363636363636364,"zigzagging":0.6,"honeypot":0,"survey":"nfc10","trial_type":"survey-template","trial_index":4,"time_elapsed":237635,"internal_node_id":"0.0-4.0","experiment":"validation","task_version":"2.0","jspsych_version":"6.3.1","infrequency":0},{"value":0,"trial_type":"call-function","trial_index":5,"time_elapsed":237636,"internal_node_id":"0.0-5.0","experiment":"validation","task_version":"2.0","jspsych_version":"6.3.1","interactions":"[]"}]