[{"view_history":[{"page_index":0,"viewing_time":4041.699999988079}],"rt":4042.699999988079,"trial_type":"instructions","trial_index":0,"time_elapsed":4055,"internal_node_id":"0.0-0.0","experiment":"validation","task_version":"2.0","jspsych_version":"6.3.1"},{"rt":17549.899999976158,"responses":{"age":"54","gender-categorical":"Female","gender-free-response":"","ethnicity":"Not Hispanic or Latino","race":["White"],"education":"Some college"},"survey":"demographics","trial_type":"survey-demo","trial_index":1,"time_elapsed":21609,"internal_node_id":"0.0-1.0","experiment":"validation","task_version":"2.0","jspsych_version":"6.3.1"},{"responses":{"Q09":"1","Q03":"3","Q10":"3","Q08":"0","Q04":"3","Q07":"1","Q02":"3","Q11":"0","Q01":"1","Q05":"4","Q06":"0"},"rt":63926.59999996424,"item_order":[8,2,9,7,3,6,1,10,0,4,5],"radio_events":[18438,24626.5,33085.59999996424,36337,40028.09999996424,43773.89999997616,48621.5,51400.39999997616,55464.89999997616,60930.80000001192,62999.80000001192],"key_events":[],"mouse_events":[18438,24626.5,33085.59999996424,36337,40028.09999996424,43773.89999997616,48621.5,51400.39999997616,55464.89999997616,60930.80000001192,62999.80000001192,63922.30000001192],"straightlining":0.45454545454545453,"zigzagging":0.3,"honeypot":0,"survey":"nfc10","trial_type":"survey-template","trial_index":2,"time_elapsed":85544,"internal_node_id":"0.0-2.0","experiment":"validation","task_version":"2.0","jspsych_version":"6.3.1","infrequency":0},{"rt":55004.19999998808,"response":{"Q1":3,"Q3":4,"Q8":0,"Q7":5,"Q2":4,"Q6":1,"Q4":5,"Q0":2,"Q5":3},"question_order":[1,3,8,7,2,6,4,0,5],"survey":"sns","trial_type":"survey-likert","trial_index":3,"time_elapsed":140554,"internal_node_id":"0.0-3.0","experiment":"validation","task_version":"2.0","jspsych_version":"6.3.1","infrequency":0},{"responses":{"Q02":"3","Q01":"3","Q06":"2","Q05":"2","Q09":"4","Q08":"2","Q04":"2","Q07":"3","Q03":"2"},"rt":42633.10000002384,"item_order":[1,0,5,4,8,7,3,6,2],"radio_events":[9127.300000011921,9995.300000011921,14189.900000035763,18543.600000023842,21536.900000035763,28366.5,31617.700000047684,38097.5,41819.60000002384],"key_events":[],"mouse_events":[9127.300000011921,9995.300000011921,14189.900000035763,18543.600000023842,21536.900000035763,28366.5,31617.700000047684,36219.10000002384,38097.5,41819.60000002384,42630.200000047684],"straightlining":0.5555555555555556,"zigzagging":0.375,"honeypot":0,"survey":"pcf","trial_type":"survey-template","trial_index":4,"time_elapsed":183191,"internal_node_id":"0.0-4.0","experiment":"validation","task_version":"2.0","jspsych_version":"6.3.1","infrequency":0},{"value":0,"trial_type":"call-function","trial_index":5,"time_elapsed":183194,"internal_node_id":"0.0-5.0","experiment":"validation","task_version":"2.0","jspsych_version":"6.3.1","interactions":"[{\"event\":\"blur\",\"trial\":2,\"time\":26325},{\"event\":\"focus\",\"trial\":2,\"time\":39971},{\"event\":\"blur\",\"trial\":3,\"time\":131126},{\"event\":\"focus\",\"trial\":3,\"time\":140485}]"}]