[{"view_history":[{"page_index":0,"viewing_time":1697.6000000238419}],"rt":1697.6000000238419,"trial_type":"instructions","trial_index":0,"time_elapsed":1701,"internal_node_id":"0.0-0.0","experiment":"validation","task_version":"2.0","jspsych_version":"6.3.1"},{"rt":12791.399999976158,"responses":{"age":"27","gender-categorical":"Female","gender-free-response":"","ethnicity":"Not Hispanic or Latino","race":["Asian"],"education":"High school"},"survey":"demographics","trial_type":"survey-demo","trial_index":1,"time_elapsed":14494,"internal_node_id":"0.0-1.0","experiment":"validation","task_version":"2.0","jspsych_version":"6.3.1"},{"responses":{"Q01":"3","Q07":"4","Q04":"4","Q05":"3","Q09":"4","Q02":"3","Q08":"3","Q06":"3","Q03":"3"},"rt":23480.80000001192,"item_order":[0,6,3,4,8,1,7,5,2],"radio_events":[3301.899999976158,6152.899999976158,6615.800000011921,8821,9639.800000011921,12216.899999976158,15888.899999976158,19919.899999976158,21152.30000001192],"key_events":[],"mouse_events":[2740,3301.899999976158,4782,5209.899999976158,5813,6152.899999976158,6615.800000011921,7810,8349.899999976158,8821,9316.899999976158,9639.800000011921,11489.800000011921,12216.899999976158,13339.899999976158,13991.899999976158,15125.899999976158,15888.899999976158,19919.899999976158,21152.30000001192,23113,23480.19999998808],"straightlining":0.6666666666666666,"zigzagging":0.25,"honeypot":0,"survey":"pcf","trial_type":"survey-template","trial_index":2,"time_elapsed":37976,"internal_node_id":"0.0-2.0","experiment":"validation","task_version":"2.0","jspsych_version":"6.3.1","infrequency":0},{"rt":29403,"response":{"Q1":1,"Q6":3,"Q4":4,"Q3":1,"Q5":2,"Q0":1,"Q7":3,"Q2":1,"Q8":0},"question_order":[1,6,4,3,5,0,7,2,8],"survey":"sns","trial_type":"survey-likert","trial_index":3,"time_elapsed":67381,"internal_node_id":"0.0-3.0","experiment":"validation","task_version":"2.0","jspsych_version":"6.3.1","infrequency":0},{"responses":{"Q03":"2","Q10":"1","Q04":"1","Q02":"1","Q06":"3","Q09":"2","Q08":"1","Q01":"1","Q11":"0","Q07":"2","Q05":"2"},"rt":30561.099999964237,"item_order":[2,9,3,1,5,8,7,0,10,6,4],"radio_events":[4389.699999988079,7488.699999988079,8193.699999988079,10199.800000011921,12771.599999964237,14735.699999988079,20839.80000001192,22163.69999998808,25454.599999964237,27706.69999998808,30047.599999964237],"key_events":[],"mouse_events":[1887.5999999642372,3586.599999964237,4087.800000011921,4389.699999988079,4897.800000011921,5332.599999964237,6094.800000011921,7146.5,7488.699999988079,8193.699999988079,10199.800000011921,12431.599999964237,12771.599999964237,14735.699999988079,18142.69999998808,18934.69999998808,19820.69999998808,20839.80000001192,21479.5,22163.69999998808,24546.69999998808,25454.599999964237,27356.599999964237,27706.69999998808,29789.599999964237,30047.599999964237,30560.599999964237],"straightlining":0.36363636363636365,"zigzagging":0.4,"honeypot":0,"survey":"nfc10","trial_type":"survey-template","trial_index":4,"time_elapsed":97944,"internal_node_id":"0.0-4.0","experiment":"validation","task_version":"2.0","jspsych_version":"6.3.1","infrequency":0},{"value":0,"trial_type":"call-function","trial_index":5,"time_elapsed":97944,"internal_node_id":"0.0-5.0","experiment":"validation","task_version":"2.0","jspsych_version":"6.3.1","interactions":"[]"}]