[{"view_history":[{"page_index":0,"viewing_time":3641.5}],"rt":3648.2999999523163,"trial_type":"instructions","trial_index":0,"time_elapsed":3671,"internal_node_id":"0.0-0.0","experiment":"validation","task_version":"2.0","jspsych_version":"6.3.1"},{"rt":9482,"responses":{"age":"27","gender-categorical":"Male","gender-free-response":"","ethnicity":"Hispanic or Latino","race":["White"],"education":"Some college"},"survey":"demographics","trial_type":"survey-demo","trial_index":1,"time_elapsed":13166,"internal_node_id":"0.0-1.0","experiment":"validation","task_version":"2.0","jspsych_version":"6.3.1"},{"responses":{"Q07":"4","Q09":"0","Q05":"2","Q01":"4","Q08":"4","Q06":"2","Q04":"4","Q03":"3","Q02":"4"},"rt":39813,"item_order":[6,8,4,0,7,5,3,2,1],"radio_events":[3455.3000000715256,7483.200000047684,8979,11111.200000047684,12382.700000047684,16128.100000023842,19459.200000047684,31783.800000071526,33772.300000071526,38534.700000047684],"key_events":[],"mouse_events":[3455.3000000715256,4542.600000023842,6348.399999976158,7483.200000047684,8979,10415.700000047684,11111.200000047684,12382.700000047684,16128.100000023842,19459.200000047684,25182.5,31783.800000071526,33772.300000071526,37071.89999997616,37738.89999997616,38534.700000047684,39807.60000002384],"straightlining":0.6666666666666666,"zigzagging":0.25,"honeypot":0,"survey":"pcf","trial_type":"survey-template","trial_index":2,"time_elapsed":52992,"internal_node_id":"0.0-2.0","experiment":"validation","task_version":"2.0","jspsych_version":"6.3.1","infrequency":1},{"rt":47179.799999952316,"response":{"Q5":4,"Q7":5,"Q2":5,"Q4":4,"Q3":5,"Q8":0,"Q0":5,"Q6":4,"Q1":5},"question_order":[5,7,2,4,3,8,0,6,1],"survey":"sns","trial_type":"survey-likert","trial_index":3,"time_elapsed":100199,"internal_node_id":"0.0-3.0","experiment":"validation","task_version":"2.0","jspsych_version":"6.3.1","infrequency":0},{"responses":{"Q10":"3","Q05":"4","Q08":"4","Q06":"3","Q09":"3","Q11":"0","Q01":"4","Q04":"4","Q02":"3","Q03":"4","Q07":"4"},"rt":90602,"item_order":[9,4,7,5,8,10,0,3,1,2,6],"radio_events":[10587.399999976158,42424.39999997616,46626,47762.199999928474,52847.799999952316,55188,58935.89999997616,68049.79999995232,69117.89999997616,77610.5,79696.39999997616,81685.5,89722.5],"key_events":[],"mouse_events":[10587.399999976158,41673,42424.39999997616,46626,47762.199999928474,52847.799999952316,55188,58935.89999997616,63759.89999997616,67299.5,68049.79999995232,69117.89999997616,77610.5,79696.39999997616,81685.5,89033.89999997616,89722.5,90596.89999997616],"straightlining":0.36363636363636365,"zigzagging":0.5,"honeypot":0,"survey":"nfc10","trial_type":"survey-template","trial_index":4,"time_elapsed":190814,"internal_node_id":"0.0-4.0","experiment":"validation","task_version":"2.0","jspsych_version":"6.3.1","infrequency":0},{"value":1,"trial_type":"call-function","trial_index":5,"time_elapsed":190819,"internal_node_id":"0.0-5.0","experiment":"validation","task_version":"2.0","jspsych_version":"6.3.1","interactions":"[]"}]