[{"view_history":[{"page_index":0,"viewing_time":2578.899999976158}],"rt":2579.7999999523163,"trial_type":"instructions","trial_index":0,"time_elapsed":2621,"internal_node_id":"0.0-0.0","experiment":"validation","task_version":"2.0","jspsych_version":"6.3.1"},{"rt":17434.600000023842,"responses":{"age":"34","gender-categorical":"Female","gender-free-response":"","ethnicity":"Not Hispanic or Latino","race":["White"],"education":"Some college"},"survey":"demographics","trial_type":"survey-demo","trial_index":1,"time_elapsed":20060,"internal_node_id":"0.0-1.0","experiment":"validation","task_version":"2.0","jspsych_version":"6.3.1"},{"responses":{"Q05":"1","Q03":"1","Q07":"1","Q04":"1","Q08":"1","Q06":"1","Q01":"1","Q02":"1","Q09":"4"},"rt":24551.300000071526,"item_order":[4,2,6,3,7,5,0,1,8],"radio_events":[7845.200000047684,8160,8212.200000047684,9571.100000023842,13716.700000047684,14764.200000047684,17972.800000071526,18909.399999976158,18955.600000023842,19333.700000047684,23972.800000071526,24038.800000071526],"key_events":[],"mouse_events":[3613.100000023842,4918.5,5862.700000047684,7150,7845.200000047684,8160,8212.200000047684,8805.300000071526,9571.100000023842,9829.300000071526,13716.700000047684,14764.200000047684,16255,16364.399999976158,17972.800000071526,18581,18909.399999976158,18955.600000023842,19333.700000047684,19628.899999976158,21429.800000071526,22407,23076.300000071526,23148.300000071526,23972.800000071526,24038.800000071526,24549.100000023842],"straightlining":0.8888888888888888,"zigzagging":0.125,"honeypot":0,"survey":"pcf","trial_type":"survey-template","trial_index":2,"time_elapsed":44620,"internal_node_id":"0.0-2.0","experiment":"validation","task_version":"2.0","jspsych_version":"6.3.1","infrequency":0},{"rt":56400.800000071526,"response":{"Q5":5,"Q2":3,"Q6":0,"Q3":4,"Q7":5,"Q0":3,"Q4":5,"Q8":0,"Q1":3},"question_order":[5,2,6,3,7,0,4,8,1],"survey":"sns","trial_type":"survey-likert","trial_index":3,"time_elapsed":101027,"internal_node_id":"0.0-3.0","experiment":"validation","task_version":"2.0","jspsych_version":"6.3.1","infrequency":0},{"responses":{"Q04":"4","Q09":"4","Q08":"4","Q11":"0","Q05":"4","Q07":"4","Q02":"4","Q03":"4","Q06":"4","Q10":"4","Q01":"4"},"rt":76378.10000002384,"item_order":[3,8,7,10,4,6,1,2,5,9,0],"radio_events":[9304,13000.100000023842,13735.5,59153.200000047684,59674.89999997616,62056.60000002384,68775.89999997616,69520.60000002384,72151.70000004768,74895.89999997616,75872.70000004768],"key_events":[],"mouse_events":[6312.600000023842,9304,10184,13000.100000023842,13735.5,47993,57242,58023.299999952316,58737.799999952316,59153.200000047684,59674.89999997616,61537.10000002384,62056.60000002384,65168.10000002384,65608.70000004768,67127.60000002384,67849,68775.89999997616,69520.60000002384,72151.70000004768,73400.5,74895.89999997616,75872.70000004768,76375.89999997616],"straightlining":0.6363636363636364,"zigzagging":0.5,"honeypot":0,"survey":"nfc10","trial_type":"survey-template","trial_index":4,"time_elapsed":177410,"internal_node_id":"0.0-4.0","experiment":"validation","task_version":"2.0","jspsych_version":"6.3.1","infrequency":0},{"value":0,"trial_type":"call-function","trial_index":5,"time_elapsed":177413,"internal_node_id":"0.0-5.0","experiment":"validation","task_version":"2.0","jspsych_version":"6.3.1","interactions":"[{\"event\":\"blur\",\"trial\":1,\"time\":14881},{\"event\":\"focus\",\"trial\":1,\"time\":17538},{\"event\":\"blur\",\"trial\":3,\"time\":83612},{\"event\":\"focus\",\"trial\":3,\"time\":93572},{\"event\":\"blur\",\"trial\":3,\"time\":94709},{\"event\":\"focus\",\"trial\":3,\"time\":97097},{\"event\":\"blur\",\"trial\":4,\"time\":117097},{\"event\":\"focus\",\"trial\":4,\"time\":148987}]"}]