[{"view_history":[{"page_index":0,"viewing_time":1154.199999988079}],"rt":1154.3999999910593,"trial_type":"instructions","trial_index":0,"time_elapsed":1161,"internal_node_id":"0.0-0.0","experiment":"validation","task_version":"2.0","jspsych_version":"6.3.1"},{"rt":8463.09999999404,"responses":{"age":"38","gender-categorical":"Male","gender-free-response":"","ethnicity":"Not Hispanic or Latino","race":["White"],"education":"Associate degree"},"survey":"demographics","trial_type":"survey-demo","trial_index":1,"time_elapsed":9626,"internal_node_id":"0.0-1.0","experiment":"validation","task_version":"2.0","jspsych_version":"6.3.1"},{"responses":{"Q09":"1","Q01":"3","Q05":"0","Q08":"1","Q03":"2","Q07":"2","Q02":"0","Q04":"1","Q06":"2","Q10":"1","Q11":"0"},"rt":34416.29999999702,"item_order":[8,0,4,7,2,6,1,3,5,9,10],"radio_events":[2719.5,9135.39999999106,12169.39999999106,14601.39999999106,16167.29999999702,17713.39999999106,23267.39999999106,25433.39999999106,27191.39999999106,30687.39999999106,33599.39999999106],"key_events":[],"mouse_events":[2719.5,6903.5,7577.29999999702,7877.20000000298,8091.29999999702,8347.29999999702,8697.29999999702,9135.39999999106,11909.5,12169.39999999106,14601.39999999106,16167.29999999702,17713.39999999106,23267.39999999106,25433.39999999106,27191.39999999106,30687.39999999106,33219.5,33599.39999999106,34415.5],"straightlining":0.2727272727272727,"zigzagging":0.5,"honeypot":0,"survey":"nfc10","trial_type":"survey-template","trial_index":2,"time_elapsed":44046,"internal_node_id":"0.0-2.0","experiment":"validation","task_version":"2.0","jspsych_version":"6.3.1","infrequency":0},{"rt":28851.90000000596,"response":{"Q7":5,"Q2":4,"Q1":3,"Q5":5,"Q8":0,"Q0":0,"Q3":4,"Q6":0,"Q4":5},"question_order":[7,2,1,5,8,0,3,6,4],"survey":"sns","trial_type":"survey-likert","trial_index":3,"time_elapsed":72902,"internal_node_id":"0.0-3.0","experiment":"validation","task_version":"2.0","jspsych_version":"6.3.1","infrequency":0},{"responses":{"Q02":"2","Q09":"4","Q03":"2","Q04":"1","Q01":"2","Q07":"3","Q05":"1","Q06":"1","Q08":"2"},"rt":28198.40000000596,"item_order":[1,8,2,3,0,6,4,5,7],"radio_events":[3855.7999999970198,10179.70000000298,11925.70000000298,16429.79999999702,18473.70000000298,21447.70000000298,22977.70000000298,25553.79999999702,27393.59999999404],"key_events":[],"mouse_events":[3397.5999999940395,3855.7999999970198,6717.79999999702,10179.70000000298,11729.79999999702,11925.70000000298,16429.79999999702,18473.70000000298,21447.70000000298,22977.70000000298,25553.79999999702,27393.59999999404,28197.70000000298],"straightlining":0.4444444444444444,"zigzagging":0.5,"honeypot":0,"survey":"pcf","trial_type":"survey-template","trial_index":4,"time_elapsed":101104,"internal_node_id":"0.0-4.0","experiment":"validation","task_version":"2.0","jspsych_version":"6.3.1","infrequency":0},{"value":0,"trial_type":"call-function","trial_index":5,"time_elapsed":101107,"internal_node_id":"0.0-5.0","experiment":"validation","task_version":"2.0","jspsych_version":"6.3.1","interactions":"[]"}]