[{"view_history":[{"page_index":0,"viewing_time":103721.59999999404}],"rt":103723,"trial_type":"instructions","trial_index":0,"time_elapsed":103730,"internal_node_id":"0.0-0.0","experiment":"validation","task_version":"2.0","jspsych_version":"6.3.1"},{"rt":83595.5,"responses":{"age":"31","gender-categorical":"Male","gender-free-response":"","ethnicity":"Not Hispanic or Latino","race":["White"],"education":"Bachelor degree"},"survey":"demographics","trial_type":"survey-demo","trial_index":1,"time_elapsed":187331,"internal_node_id":"0.0-1.0","experiment":"validation","task_version":"2.0","jspsych_version":"6.3.1"},{"responses":{"Q04":"3","Q09":"3","Q02":"3","Q08":"3","Q06":"3","Q05":"2","Q07":"3","Q11":"0","Q10":"3","Q03":"3","Q01":"2"},"rt":250503.80000001192,"item_order":[3,8,1,7,5,4,6,10,9,2,0],"radio_events":[6751.300000011921,9181.59999999404,14468.90000000596,15311.90000000596,16730.5,21387.80000001192,24873.09999999404,28149.59999999404,32751.40000000596,36766.19999998808,38431.69999998808,43090.69999998808],"key_events":[],"mouse_events":[6751.300000011921,8114,9181.59999999404,12477.699999988079,14468.90000000596,15311.90000000596,16730.5,21387.80000001192,24051.59999999404,24873.09999999404,28149.59999999404,32751.40000000596,36766.19999998808,38431.69999998808,41536.59999999404,43090.69999998808,250502.40000000596],"straightlining":0.5454545454545454,"zigzagging":0.3,"honeypot":0,"survey":"nfc10","trial_type":"survey-template","trial_index":2,"time_elapsed":437841,"internal_node_id":"0.0-2.0","experiment":"validation","task_version":"2.0","jspsych_version":"6.3.1","infrequency":0},{"rt":132805.5,"response":{"Q0":3,"Q7":5,"Q3":4,"Q1":4,"Q6":0,"Q5":5,"Q2":4,"Q4":5,"Q8":0},"question_order":[0,7,3,1,6,5,2,4,8],"survey":"sns","trial_type":"survey-likert","trial_index":3,"time_elapsed":570651,"internal_node_id":"0.0-3.0","experiment":"validation","task_version":"2.0","jspsych_version":"6.3.1","infrequency":0},{"responses":{"Q05":"3","Q09":"4","Q07":"4","Q06":"3","Q01":"4","Q08":"4","Q03":"4","Q02":"4","Q04":"4"},"rt":113026.5,"item_order":[4,8,6,5,0,7,2,1,3],"radio_events":[4179.700000017881,6068.700000017881,13877,23563.5,24293.20000001788,25441.90000000596,26578.30000001192,27521.40000000596,28907],"key_events":[],"mouse_events":[3526.5,4179.700000017881,5540.4000000059605,6068.700000017881,7542.800000011921,13877,20220.90000000596,23563.5,24293.20000001788,25441.90000000596,26578.30000001192,27521.40000000596,28063.40000000596,28907,113025.70000001788],"straightlining":0.6666666666666666,"zigzagging":0.375,"honeypot":0,"survey":"pcf","trial_type":"survey-template","trial_index":4,"time_elapsed":683681,"internal_node_id":"0.0-4.0","experiment":"validation","task_version":"2.0","jspsych_version":"6.3.1","infrequency":0},{"value":0,"trial_type":"call-function","trial_index":5,"time_elapsed":683682,"internal_node_id":"0.0-5.0","experiment":"validation","task_version":"2.0","jspsych_version":"6.3.1","interactions":"[{\"event\":\"blur\",\"trial\":1,\"time\":112480},{\"event\":\"focus\",\"trial\":1,\"time\":187286},{\"event\":\"blur\",\"trial\":3,\"time\":445498},{\"event\":\"focus\",\"trial\":3,\"time\":501696},{\"event\":\"blur\",\"trial\":3,\"time\":532808},{\"event\":\"focus\",\"trial\":3,\"time\":539780},{\"event\":\"blur\",\"trial\":3,\"time\":552479},{\"event\":\"focus\",\"trial\":3,\"time\":558239},{\"event\":\"blur\",\"trial\":4,\"time\":658062},{\"event\":\"focus\",\"trial\":4,\"time\":679731},{\"event\":\"blur\",\"trial\":4,\"time\":679733},{\"event\":\"focus\",\"trial\":4,\"time\":682382}]"}]