[{"view_history":[{"page_index":0,"viewing_time":19673.19999999553}],"rt":19675.29999999702,"trial_type":"instructions","trial_index":0,"time_elapsed":19793,"internal_node_id":"0.0-0.0","experiment":"validation","task_version":"2.0","jspsych_version":"6.3.1"},{"rt":16750.60000000149,"responses":{"age":"30","gender-categorical":"Male","gender-free-response":"","ethnicity":"Not Hispanic or Latino","race":["Black or African American"],"education":"Bachelor degree"},"survey":"demographics","trial_type":"survey-demo","trial_index":1,"time_elapsed":36549,"internal_node_id":"0.0-1.0","experiment":"validation","task_version":"2.0","jspsych_version":"6.3.1"},{"responses":{"Q04":"2","Q07":"3","Q02":"4","Q06":"4","Q08":"3","Q05":"4","Q09":"1","Q01":"4","Q03":"3"},"rt":32120,"item_order":[3,6,1,5,7,4,8,0,2],"radio_events":[7464.30000000447,9552.60000000149,11539.70000000298,13262,14574.60000000149,17148.10000000149,22396.70000000298,23415.40000000596,23701.40000000596,25740,27036.80000000447],"key_events":[],"mouse_events":[7464.30000000447,8306.30000000447,9552.60000000149,10432.40000000596,11539.70000000298,12345.90000000596,13262,14574.60000000149,17148.10000000149,18490.60000000149,19303.40000000596,21356,22396.70000000298,23415.40000000596,23701.40000000596,25740,27036.80000000447,32117.80000000447],"straightlining":0.4444444444444444,"zigzagging":0.875,"honeypot":0,"survey":"pcf","trial_type":"survey-template","trial_index":2,"time_elapsed":68675,"internal_node_id":"0.0-2.0","experiment":"validation","task_version":"2.0","jspsych_version":"6.3.1","infrequency":1},{"responses":{"Q05":"3","Q10":"2","Q08":"0","Q03":"3","Q11":"0","Q09":"1","Q04":"4","Q06":"3","Q01":"3","Q02":"1","Q07":"1"},"rt":45786.29999999702,"item_order":[4,9,7,2,10,8,3,5,0,1,6],"radio_events":[4325.0999999940395,6237.89999999851,8818.5,10313.5,12263,15129.5,16647.29999999702,21726.69999999553,24548.69999999553,37141.39999999851,41085.29999999702],"key_events":[],"mouse_events":[4325.0999999940395,6237.89999999851,8144.19999999553,8818.5,10313.5,11485.5,12263,15129.5,16647.29999999702,20063.5,21726.69999999553,24548.69999999553,36342.89999999851,37141.39999999851,38512.09999999404,39420.5,41085.29999999702,45784.29999999702],"straightlining":0.45454545454545453,"zigzagging":0.5,"honeypot":0,"survey":"nfc10","trial_type":"survey-template","trial_index":3,"time_elapsed":114468,"internal_node_id":"0.0-3.0","experiment":"validation","task_version":"2.0","jspsych_version":"6.3.1","infrequency":0},{"rt":50622.60000000149,"response":{"Q2":4,"Q7":4,"Q1":4,"Q6":2,"Q3":4,"Q4":3,"Q0":4,"Q5":3,"Q8":0},"question_order":[2,7,1,6,3,4,0,5,8],"survey":"sns","trial_type":"survey-likert","trial_index":4,"time_elapsed":165099,"internal_node_id":"0.0-4.0","experiment":"validation","task_version":"2.0","jspsych_version":"6.3.1","infrequency":0},{"value":1,"trial_type":"call-function","trial_index":5,"time_elapsed":165101,"internal_node_id":"0.0-5.0","experiment":"validation","task_version":"2.0","jspsych_version":"6.3.1","interactions":"[]"}]