[{"view_history":[{"page_index":0,"viewing_time":1158.8999999761581}],"rt":1159.199999988079,"trial_type":"instructions","trial_index":0,"time_elapsed":1171,"internal_node_id":"0.0-0.0","experiment":"validation","task_version":"2.0","jspsych_version":"6.3.1"},{"rt":9428.699999988079,"responses":{"age":"21","gender-categorical":"Female","gender-free-response":"","ethnicity":"Not Hispanic or Latino","race":["White"],"education":"Some college"},"survey":"demographics","trial_type":"survey-demo","trial_index":1,"time_elapsed":10604,"internal_node_id":"0.0-1.0","experiment":"validation","task_version":"2.0","jspsych_version":"6.3.1"},{"responses":{"Q01":"3","Q08":"2","Q07":"3","Q04":"2","Q06":"3","Q02":"3","Q03":"3","Q09":"4","Q05":"2"},"rt":28834.400000035763,"item_order":[0,7,6,3,5,1,2,8,4],"radio_events":[4338.300000011921,5914.100000023842,7741.300000011921,10905.300000011921,15511,18258.400000035763,18928.600000023842,20918.80000001192,22437.600000023842,25868.400000035763],"key_events":[],"mouse_events":[2376,3917.100000023842,4338.300000011921,5914.100000023842,7741.300000011921,9810,10905.300000011921,15082.100000023842,15511,16935,18258.400000035763,18928.600000023842,20918.80000001192,22437.600000023842,23167.900000035763,23589.600000023842,25092.700000047684,25868.400000035763,28832.30000001192],"straightlining":0.5555555555555556,"zigzagging":0.5,"honeypot":0,"survey":"pcf","trial_type":"survey-template","trial_index":2,"time_elapsed":39445,"internal_node_id":"0.0-2.0","experiment":"validation","task_version":"2.0","jspsych_version":"6.3.1","infrequency":0},{"rt":33497.69999998808,"response":{"Q3":3,"Q1":3,"Q8":0,"Q7":1,"Q0":2,"Q6":3,"Q4":2,"Q5":2,"Q2":2},"question_order":[3,1,8,7,0,6,4,5,2],"survey":"sns","trial_type":"survey-likert","trial_index":3,"time_elapsed":72950,"internal_node_id":"0.0-3.0","experiment":"validation","task_version":"2.0","jspsych_version":"6.3.1","infrequency":0},{"responses":{"Q10":"1","Q06":"1","Q08":"1","Q02":"0","Q01":"1","Q04":"3","Q11":"2","Q09":"0","Q07":"0","Q05":"3","Q03":"0"},"rt":40754.80000001192,"item_order":[9,5,7,1,0,3,10,8,6,4,2],"radio_events":[5399.699999988079,7034.800000011921,10380.300000011921,11779.199999988079,14861.400000035763,15401.600000023842,27213.900000035763,30375.19999998808,33660.90000003576,38793.40000003576,40132.19999998808],"key_events":[],"mouse_events":[4506.199999988079,5099.600000023842,5399.699999988079,7034.800000011921,8534.100000023842,10380.300000011921,10970.800000011921,11779.199999988079,12929.600000023842,14384.400000035763,14861.400000035763,15401.600000023842,25706.600000023842,26209.19999998808,27213.900000035763,30375.19999998808,32542.900000035763,33660.90000003576,35200.10000002384,38342.19999998808,38793.40000003576,40132.19999998808,40753.10000002384],"straightlining":0.5454545454545454,"zigzagging":0.4,"honeypot":0,"survey":"nfc10","trial_type":"survey-template","trial_index":4,"time_elapsed":113711,"internal_node_id":"0.0-4.0","experiment":"validation","task_version":"2.0","jspsych_version":"6.3.1","infrequency":1},{"value":1,"trial_type":"call-function","trial_index":5,"time_elapsed":113715,"internal_node_id":"0.0-5.0","experiment":"validation","task_version":"2.0","jspsych_version":"6.3.1","interactions":"[]"}]