[{"view_history":[{"page_index":0,"viewing_time":7933.491999999998}],"rt":7933.491999999998,"trial_type":"instructions","trial_index":0,"time_elapsed":7933,"internal_node_id":"0.0-0.0","experiment":"validation","task_version":"2.0","jspsych_version":"6.3.1"},{"rt":13800.275999999998,"responses":{"age":"37","gender-categorical":"Male","gender-free-response":"","ethnicity":"Not Hispanic or Latino","race":["White"],"education":"Some college"},"survey":"demographics","trial_type":"survey-demo","trial_index":1,"time_elapsed":21750,"internal_node_id":"0.0-1.0","experiment":"validation","task_version":"2.0","jspsych_version":"6.3.1"},{"rt":30450.609000000004,"response":{"Q0":2,"Q8":0,"Q2":2,"Q4":4,"Q3":4,"Q7":4,"Q1":3,"Q5":2,"Q6":1},"question_order":[0,8,2,4,3,7,1,5,6],"survey":"sns","trial_type":"survey-likert","trial_index":2,"time_elapsed":52201,"internal_node_id":"0.0-2.0","experiment":"validation","task_version":"2.0","jspsych_version":"6.3.1","infrequency":0},{"responses":{"Q02":"3","Q08":"4","Q07":"4","Q09":"4","Q01":"4","Q06":"4","Q03":"4","Q04":"4","Q05":"4"},"rt":20633.746,"item_order":[1,7,6,8,0,5,2,3,4],"radio_events":[6300.126000000004,8850.176999999996,10366.873999999996,11700.233999999997,13400.267999999996,15716.981,16867.004,19133.716,19817.062999999995],"key_events":[],"mouse_events":[6300.126000000004,7983.493000000002,8850.176999999996,9633.525999999998,10366.873999999996,11700.233999999997,13400.267999999996,15716.981,16867.004,17867.02399999999,18600.372000000003,19133.716,19817.062999999995,20633.746],"straightlining":0.7777777777777778,"zigzagging":0.375,"honeypot":0,"survey":"pcf","trial_type":"survey-template","trial_index":3,"time_elapsed":72835,"internal_node_id":"0.0-3.0","experiment":"validation","task_version":"2.0","jspsych_version":"6.3.1","infrequency":0},{"responses":{"Q04":"3","Q06":"3","Q08":"3","Q05":"3","Q09":"3","Q03":"3","Q10":"3","Q07":"3","Q02":"3","Q11":"0","Q01":"3"},"rt":31683.967000000004,"item_order":[3,5,7,4,8,2,9,6,1,10,0],"radio_events":[5500.110000000001,7550.150999999998,9550.190999999992,11950.239000000001,14266.952000000005,15850.31700000001,18983.71299999999,21067.08799999999,23667.139999999985,26817.20300000001,30017.266999999993],"key_events":[],"mouse_events":[3866.7439999999915,4716.760999999999,5500.110000000001,7550.150999999998,9550.190999999992,11950.239000000001,14266.952000000005,15850.31700000001,18983.71299999999,21067.08799999999,23050.46100000001,23667.139999999985,26817.20300000001,29250.584999999992,29617.25899999999,30017.266999999993,31683.967000000004],"straightlining":0.6363636363636364,"zigzagging":0,"honeypot":0,"survey":"nfc10","trial_type":"survey-template","trial_index":4,"time_elapsed":104519,"internal_node_id":"0.0-4.0","experiment":"validation","task_version":"2.0","jspsych_version":"6.3.1","infrequency":0},{"value":0,"trial_type":"call-function","trial_index":5,"time_elapsed":104519,"internal_node_id":"0.0-5.0","experiment":"validation","task_version":"2.0","jspsych_version":"6.3.1","interactions":"[{\"event\":\"focus\",\"trial\":0,\"time\":0}]"}]