[{"view_history":[{"page_index":0,"viewing_time":2890}],"rt":2890.300000011921,"trial_type":"instructions","trial_index":0,"time_elapsed":2895,"internal_node_id":"0.0-0.0","experiment":"validation","task_version":"2.0","jspsych_version":"6.3.1"},{"rt":15438.400000035763,"responses":{"age":"21","gender-categorical":"Other","gender-free-response":"non binary","ethnicity":"Not Hispanic or Latino","race":["White"],"education":"Some college"},"survey":"demographics","trial_type":"survey-demo","trial_index":1,"time_elapsed":18336,"internal_node_id":"0.0-1.0","experiment":"validation","task_version":"2.0","jspsych_version":"6.3.1"},{"responses":{"Q05":"4","Q02":"1","Q10":"2","Q11":"0","Q06":"1","Q09":"4","Q07":"4","Q01":"3","Q08":"3","Q03":"3","Q04":"3"},"rt":52652.19999998808,"item_order":[4,1,9,10,5,8,6,0,7,2,3],"radio_events":[6105.400000035763,10793.900000035763,18090.30000001192,22602.600000023842,27042.600000023842,28242.19999998808,30682.100000023842,31970.30000001192,37010.60000002384,40585.60000002384,44834.40000003576,46818.30000001192,51170.19999998808],"key_events":[],"mouse_events":[5282.300000011921,6105.400000035763,10793.900000035763,18090.30000001192,22602.600000023842,27042.600000023842,28242.19999998808,30682.100000023842,31970.30000001192,37010.60000002384,40585.60000002384,44834.40000003576,46818.30000001192,51170.19999998808,52650.40000003576],"straightlining":0.36363636363636365,"zigzagging":0.4,"honeypot":0,"survey":"nfc10","trial_type":"survey-template","trial_index":2,"time_elapsed":70993,"internal_node_id":"0.0-2.0","experiment":"validation","task_version":"2.0","jspsych_version":"6.3.1","infrequency":0},{"responses":{"Q02":"3","Q06":"2","Q08":"3","Q07":"3","Q03":"4","Q04":"2","Q09":"4","Q01":"3","Q05":"2"},"rt":41932.09999996424,"item_order":[1,5,7,6,2,3,8,0,4],"radio_events":[4458.899999976158,7626.699999988079,11082.699999988079,12722.699999988079,18706.599999964237,21723,25499.19999998808,27842.19999998808,32026.5,34225.799999952316,38538.39999997616,40890.5],"key_events":[],"mouse_events":[4458.899999976158,7626.699999988079,11082.699999988079,12722.699999988079,18706.599999964237,21723,25499.19999998808,27842.19999998808,32026.5,34225.799999952316,38538.39999997616,40051,40890.5,41930.799999952316],"straightlining":0.4444444444444444,"zigzagging":0.5,"honeypot":0,"survey":"pcf","trial_type":"survey-template","trial_index":3,"time_elapsed":112928,"internal_node_id":"0.0-3.0","experiment":"validation","task_version":"2.0","jspsych_version":"6.3.1","infrequency":0},{"rt":41859.59999996424,"response":{"Q3":3,"Q6":1,"Q8":0,"Q2":2,"Q7":3,"Q1":1,"Q5":4,"Q0":1,"Q4":4},"question_order":[3,6,8,2,7,1,5,0,4],"survey":"sns","trial_type":"survey-likert","trial_index":4,"time_elapsed":154792,"internal_node_id":"0.0-4.0","experiment":"validation","task_version":"2.0","jspsych_version":"6.3.1","infrequency":0},{"value":0,"trial_type":"call-function","trial_index":5,"time_elapsed":154794,"internal_node_id":"0.0-5.0","experiment":"validation","task_version":"2.0","jspsych_version":"6.3.1","interactions":"[]"}]