[{"view_history":[{"page_index":0,"viewing_time":1134.3999999985099}],"rt":1134.7999999970198,"trial_type":"instructions","trial_index":0,"time_elapsed":1195,"internal_node_id":"0.0-0.0","experiment":"validation","task_version":"2.0","jspsych_version":"6.3.1"},{"rt":7466.39999999851,"responses":{"age":"29","gender-categorical":"Male","gender-free-response":"","ethnicity":"Not Hispanic or Latino","race":["White"],"education":"Bachelor degree"},"survey":"demographics","trial_type":"survey-demo","trial_index":1,"time_elapsed":8664,"internal_node_id":"0.0-1.0","experiment":"validation","task_version":"2.0","jspsych_version":"6.3.1"},{"responses":{"Q08":"2","Q09":"1","Q11":"0","Q03":"2","Q06":"1","Q05":"2","Q02":"3","Q01":"2","Q04":"2","Q10":"2","Q07":"2"},"rt":34497.10000000149,"item_order":[7,8,10,2,5,4,1,0,3,9,6],"radio_events":[8392.29999999702,10860,14359.70000000298,15276.29999999702,17576.20000000298,19327,21694.5,22960.39999999851,23444.10000000149,23943.20000000298,24310.60000000149,24693.70000000298,29477.10000000149,30527.60000000149,32410.5],"key_events":[],"mouse_events":[6126.70000000298,6759.39999999851,7576.79999999702,7926.89999999851,8392.29999999702,10243,10860,11776.5,12143.29999999702,12942.70000000298,13376.5,13960.5,14359.70000000298,14860.20000000298,15276.29999999702,16043.5,16610.60000000149,17059.5,17576.20000000298,19327,20378,20843.39999999851,21694.5,22226.29999999702,22960.39999999851,23444.10000000149,23943.20000000298,24310.60000000149,24693.70000000298,26093.89999999851,29477.10000000149,30527.60000000149,31960.5,32410.5,34494.89999999851],"straightlining":0.6363636363636364,"zigzagging":0.6,"honeypot":0,"survey":"nfc10","trial_type":"survey-template","trial_index":2,"time_elapsed":43166,"internal_node_id":"0.0-2.0","experiment":"validation","task_version":"2.0","jspsych_version":"6.3.1","infrequency":0},{"rt":29060.60000000149,"response":{"Q5":1,"Q8":0,"Q7":2,"Q2":2,"Q1":2,"Q3":2,"Q4":3,"Q0":1,"Q6":1},"question_order":[5,8,7,2,1,3,4,0,6],"survey":"sns","trial_type":"survey-likert","trial_index":3,"time_elapsed":72233,"internal_node_id":"0.0-3.0","experiment":"validation","task_version":"2.0","jspsych_version":"6.3.1","infrequency":0},{"responses":{"Q02":"2","Q06":"1","Q08":"3","Q01":"3","Q04":"3","Q05":"1","Q03":"2","Q09":"4","Q07":"3"},"rt":20575,"item_order":[1,5,7,0,3,4,2,8,6],"radio_events":[5356.89999999851,7323.89999999851,9323.79999999702,10340.29999999702,12023.39999999851,14160.39999999851,15227.29999999702,16389.79999999702,17307.70000000298,18624.29999999702,19707.10000000149],"key_events":[],"mouse_events":[5356.89999999851,7323.89999999851,9323.79999999702,10340.29999999702,12023.39999999851,14160.39999999851,15227.29999999702,16389.79999999702,17307.70000000298,18624.29999999702,19707.10000000149,20573.89999999851],"straightlining":0.4444444444444444,"zigzagging":0.25,"honeypot":0,"survey":"pcf","trial_type":"survey-template","trial_index":4,"time_elapsed":92814,"internal_node_id":"0.0-4.0","experiment":"validation","task_version":"2.0","jspsych_version":"6.3.1","infrequency":0},{"value":0,"trial_type":"call-function","trial_index":5,"time_elapsed":92819,"internal_node_id":"0.0-5.0","experiment":"validation","task_version":"2.0","jspsych_version":"6.3.1","interactions":"[]"}]