[{"view_history":[{"page_index":0,"viewing_time":4684.5}],"rt":4684.900000035763,"trial_type":"instructions","trial_index":0,"time_elapsed":4689,"internal_node_id":"0.0-0.0","experiment":"validation","task_version":"2.0","jspsych_version":"6.3.1"},{"rt":10911.599999964237,"responses":{"age":"34","gender-categorical":"Male","gender-free-response":"","ethnicity":"Not Hispanic or Latino","race":["White"],"education":"High school"},"survey":"demographics","trial_type":"survey-demo","trial_index":1,"time_elapsed":15602,"internal_node_id":"0.0-1.0","experiment":"validation","task_version":"2.0","jspsych_version":"6.3.1"},{"rt":50829.60000002384,"response":{"Q2":3,"Q8":0,"Q7":4,"Q4":4,"Q5":4,"Q3":4,"Q1":3,"Q0":1,"Q6":1},"question_order":[2,8,7,4,5,3,1,0,6],"survey":"sns","trial_type":"survey-likert","trial_index":2,"time_elapsed":66433,"internal_node_id":"0.0-2.0","experiment":"validation","task_version":"2.0","jspsych_version":"6.3.1","infrequency":0},{"responses":{"Q06":"3","Q02":"2","Q07":"2","Q08":"3","Q05":"1","Q09":"4","Q01":"2","Q04":"2","Q03":"2"},"rt":35064.30000001192,"item_order":[5,1,6,7,4,8,0,3,2],"radio_events":[6702.5,8839.600000023842,11294.800000011921,14024,15300.300000011921,15983,18303.399999976158,20223.399999976158,22808.30000001192,28979.899999976158,29984.80000001192,34415.89999997616],"key_events":[],"mouse_events":[6702.5,8839.600000023842,11294.800000011921,12298.600000023842,13400.600000023842,14024,14664.699999988079,15300.300000011921,15983,18303.399999976158,20223.399999976158,22808.30000001192,25510.899999976158,28979.899999976158,29984.80000001192,34415.89999997616,35063.60000002384],"straightlining":0.5555555555555556,"zigzagging":0.375,"honeypot":0,"survey":"pcf","trial_type":"survey-template","trial_index":3,"time_elapsed":101500,"internal_node_id":"0.0-3.0","experiment":"validation","task_version":"2.0","jspsych_version":"6.3.1","infrequency":0},{"responses":{"Q09":"1","Q06":"2","Q11":"0","Q08":"3","Q01":"2","Q05":"3","Q10":"1","Q02":"2","Q03":"1","Q04":"2","Q07":"1"},"rt":66679.69999998808,"item_order":[8,5,10,7,0,4,9,1,2,3,6],"radio_events":[5313.900000035763,8028.400000035763,15261.5,21839.400000035763,23997.400000035763,24639.5,30797.69999998808,37302.69999998808,49333.30000001192,51430.90000003576,55510.90000003576,58847,65869.90000003576],"key_events":[],"mouse_events":[5313.900000035763,8028.400000035763,15261.5,19918.69999998808,21839.400000035763,22745.80000001192,23997.400000035763,24639.5,28448.19999998808,29809.30000001192,30797.69999998808,37302.69999998808,47861.60000002384,49333.30000001192,51430.90000003576,55510.90000003576,58847,65869.90000003576,66679],"straightlining":0.36363636363636365,"zigzagging":0.7,"honeypot":0,"survey":"nfc10","trial_type":"survey-template","trial_index":4,"time_elapsed":168181,"internal_node_id":"0.0-4.0","experiment":"validation","task_version":"2.0","jspsych_version":"6.3.1","infrequency":0},{"value":0,"trial_type":"call-function","trial_index":5,"time_elapsed":168182,"internal_node_id":"0.0-5.0","experiment":"validation","task_version":"2.0","jspsych_version":"6.3.1","interactions":"[]"}]