[{"view_history":[{"page_index":0,"viewing_time":24490.09999999404}],"rt":24491.19999998808,"trial_type":"instructions","trial_index":0,"time_elapsed":24507,"internal_node_id":"0.0-0.0","experiment":"validation","task_version":"2.0","jspsych_version":"6.3.1"},{"rt":94699.70000001788,"responses":{"age":"56","gender-categorical":"Male","gender-free-response":"","ethnicity":"Not Hispanic or Latino","race":["White"],"education":"Bachelor degree"},"survey":"demographics","trial_type":"survey-demo","trial_index":1,"time_elapsed":119210,"internal_node_id":"0.0-1.0","experiment":"validation","task_version":"2.0","jspsych_version":"6.3.1"},{"rt":56249.69999998808,"response":{"Q7":4,"Q0":3,"Q1":3,"Q3":4,"Q5":3,"Q4":4,"Q2":4,"Q8":0,"Q6":3},"question_order":[7,0,1,3,5,4,2,8,6],"survey":"sns","trial_type":"survey-likert","trial_index":2,"time_elapsed":175467,"internal_node_id":"0.0-2.0","experiment":"validation","task_version":"2.0","jspsych_version":"6.3.1","infrequency":0},{"responses":{"Q05":"3","Q08":"3","Q03":"3","Q09":"4","Q02":"3","Q04":"3","Q07":"3","Q06":"3","Q01":"3"},"rt":74010.20000001788,"item_order":[4,7,2,8,1,3,6,5,0],"radio_events":[28912.80000001192,30768.59999999404,35352.40000000596,46088.5,51064.5,53921,59648.40000000596,66512.5,67720.70000001788,69912.5,72664.40000000596],"key_events":[],"mouse_events":[28912.80000001192,30768.59999999404,35352.40000000596,40072.80000001192,46088.5,51064.5,53921,57424.59999999404,59648.40000000596,66512.5,67720.70000001788,69280.59999999404,69912.5,71321.59999999404,72664.40000000596,74008.5],"straightlining":0.8888888888888888,"zigzagging":0,"honeypot":0,"survey":"pcf","trial_type":"survey-template","trial_index":3,"time_elapsed":249483,"internal_node_id":"0.0-3.0","experiment":"validation","task_version":"2.0","jspsych_version":"6.3.1","infrequency":0},{"responses":{"Q05":"3","Q07":"3","Q02":"3","Q06":"3","Q03":"3","Q08":"3","Q04":"3","Q09":"2","Q11":"0","Q01":"3","Q10":"3"},"rt":63867.09999999404,"item_order":[4,6,1,5,2,7,3,8,10,0,9],"radio_events":[12833.59999999404,19297.70000001788,25649.59999999404,28369.40000000596,32225.40000000596,34529.30000001192,39554,44017.5,49673.40000000596,54185.40000000596,57625.5,59553.40000000596],"key_events":[],"mouse_events":[12833.59999999404,17657.59999999404,18625.5,19297.70000001788,25649.59999999404,28369.40000000596,30873.5,32225.40000000596,34529.30000001192,39554,42985.59999999404,44017.5,49673.40000000596,54185.40000000596,57625.5,59553.40000000596,63865.59999999404],"straightlining":0.5454545454545454,"zigzagging":0.1,"honeypot":0,"survey":"nfc10","trial_type":"survey-template","trial_index":4,"time_elapsed":313356,"internal_node_id":"0.0-4.0","experiment":"validation","task_version":"2.0","jspsych_version":"6.3.1","infrequency":0},{"value":0,"trial_type":"call-function","trial_index":5,"time_elapsed":313359,"internal_node_id":"0.0-5.0","experiment":"validation","task_version":"2.0","jspsych_version":"6.3.1","interactions":"[{\"event\":\"blur\",\"trial\":1,\"time\":27020},{\"event\":\"focus\",\"trial\":1,\"time\":30440},{\"event\":\"blur\",\"trial\":1,\"time\":33021},{\"event\":\"focus\",\"trial\":1,\"time\":90023},{\"event\":\"blur\",\"trial\":1,\"time\":90023},{\"event\":\"focus\",\"trial\":1,\"time\":105799}]"}]