[{"view_history":[{"page_index":0,"viewing_time":4948.0999999940395}],"rt":4950.9000000059605,"trial_type":"instructions","trial_index":0,"time_elapsed":4981,"internal_node_id":"0.0-0.0","experiment":"validation","task_version":"2.0","jspsych_version":"6.3.1"},{"rt":9714.59999999404,"responses":{"age":"36","gender-categorical":"Female","gender-free-response":"","ethnicity":"Not Hispanic or Latino","race":["White"],"education":"Some college"},"survey":"demographics","trial_type":"survey-demo","trial_index":1,"time_elapsed":14706,"internal_node_id":"0.0-1.0","experiment":"validation","task_version":"2.0","jspsych_version":"6.3.1"},{"rt":109475.39999997616,"response":{"Q1":1,"Q6":0,"Q5":5,"Q4":5,"Q2":0,"Q8":0,"Q0":1,"Q3":1,"Q7":5},"question_order":[1,6,5,4,2,8,0,3,7],"survey":"sns","trial_type":"survey-likert","trial_index":2,"time_elapsed":124207,"internal_node_id":"0.0-2.0","experiment":"validation","task_version":"2.0","jspsych_version":"6.3.1","infrequency":0},{"responses":{"Q04":"2","Q01":"2","Q07":"3","Q02":"3","Q03":"3","Q06":"2","Q09":"3","Q05":"1","Q10":"2","Q08":"3","Q11":"0"},"rt":136047.29999998212,"item_order":[3,0,6,1,2,5,8,4,9,7,10],"radio_events":[22611.90000000596,26504.79999998212,35117.59999999404,40649.09999999404,46546,51585.5,54863.5,118628.5,124504.09999999404,127603.19999998808,128569.59999999404,133757.5],"key_events":[],"mouse_events":[22611.90000000596,26504.79999998212,33771.90000000596,35117.59999999404,40649.09999999404,46546,49728.29999998212,51585.5,53965.90000000596,54863.5,117711.79999998212,118628.5,123678.29999998212,124504.09999999404,127603.19999998808,128569.59999999404,132591.90000000596,133757.5,136044.90000000596],"straightlining":0.45454545454545453,"zigzagging":0.5,"honeypot":0,"survey":"nfc10","trial_type":"survey-template","trial_index":3,"time_elapsed":260265,"internal_node_id":"0.0-3.0","experiment":"validation","task_version":"2.0","jspsych_version":"6.3.1","infrequency":0},{"responses":{"Q06":"2","Q05":"2","Q08":"4","Q01":"4","Q07":"3","Q09":"4","Q04":"4","Q02":"3","Q03":"3"},"rt":37420.79999998212,"item_order":[5,4,7,0,6,8,3,1,2],"radio_events":[5666.5,8698.699999988079,10089.59999999404,16489,18052.79999998212,22760.899999976158,24132.69999998808,27617.59999999404,28992.899999976158,30414.19999998808,35131],"key_events":[],"mouse_events":[5666.5,8698.699999988079,10089.59999999404,16489,18052.79999998212,21609.69999998808,22760.899999976158,24132.69999998808,27617.59999999404,28992.899999976158,30414.19999998808,33495.59999999404,35131,37419.5],"straightlining":0.3333333333333333,"zigzagging":0.375,"honeypot":0,"survey":"pcf","trial_type":"survey-template","trial_index":4,"time_elapsed":297690,"internal_node_id":"0.0-4.0","experiment":"validation","task_version":"2.0","jspsych_version":"6.3.1","infrequency":0},{"value":0,"trial_type":"call-function","trial_index":5,"time_elapsed":297693,"internal_node_id":"0.0-5.0","experiment":"validation","task_version":"2.0","jspsych_version":"6.3.1","interactions":"[]"}]