[{"view_history":[{"page_index":0,"viewing_time":1797.5999999940395}],"rt":1798.5999999940395,"trial_type":"instructions","trial_index":0,"time_elapsed":1848,"internal_node_id":"0.0-0.0","experiment":"validation","task_version":"2.0","jspsych_version":"6.3.1"},{"rt":10979.09999999404,"responses":{"age":"22","gender-categorical":"Male","gender-free-response":"","ethnicity":"Not Hispanic or Latino","race":["White"],"education":"High school"},"survey":"demographics","trial_type":"survey-demo","trial_index":1,"time_elapsed":12836,"internal_node_id":"0.0-1.0","experiment":"validation","task_version":"2.0","jspsych_version":"6.3.1"},{"responses":{"Q01":"3","Q08":"2","Q09":"4","Q04":"1","Q02":"3","Q06":"3","Q07":"3","Q03":"3","Q05":"2"},"rt":40524.09999999404,"item_order":[0,7,8,3,1,5,6,2,4],"radio_events":[6600.5999999940395,7128.29999999702,7976.20000000298,10144.5,13008.79999999702,14960.40000000596,21448.29999999702,23456.40000000596,27160.09999999404,31000.09999999404,32352.29999999702,32824.29999999702,35192.29999999702,39017.29999999702],"key_events":[],"mouse_events":[4402.29999999702,6600.5999999940395,7128.29999999702,7976.20000000298,10144.5,13008.79999999702,14960.40000000596,20832.29999999702,21448.29999999702,23456.40000000596,26624.09999999404,27160.09999999404,31000.09999999404,32352.29999999702,32824.29999999702,34760,35192.29999999702,39017.29999999702,40520.29999999702],"straightlining":0.5555555555555556,"zigzagging":0.375,"honeypot":0,"survey":"pcf","trial_type":"survey-template","trial_index":2,"time_elapsed":53381,"internal_node_id":"0.0-2.0","experiment":"validation","task_version":"2.0","jspsych_version":"6.3.1","infrequency":0},{"rt":44490.90000000596,"response":{"Q5":4,"Q8":0,"Q0":1,"Q4":5,"Q6":0,"Q7":5,"Q1":1,"Q2":2,"Q3":2},"question_order":[5,8,0,4,6,7,1,2,3],"survey":"sns","trial_type":"survey-likert","trial_index":3,"time_elapsed":97893,"internal_node_id":"0.0-3.0","experiment":"validation","task_version":"2.0","jspsych_version":"6.3.1","infrequency":0},{"responses":{"Q04":"1","Q06":"1","Q09":"1","Q01":"1","Q05":"3","Q11":"0","Q03":"2","Q02":"2","Q08":"3","Q10":"1","Q07":"2"},"rt":70729.70000000298,"item_order":[3,5,8,0,4,10,2,1,7,9,6],"radio_events":[3923,4234.70000000298,21916.39999999106,23577,25217.09999999404,28344.09999999404,29414.5,32399.29999999702,34407.09999999404,37606.20000000298,44309.59999999404,50240.20000000298,57471.59999999404,61444.89999999106,69063.79999999702],"key_events":[],"mouse_events":[3923,4234.70000000298,17872.89999999106,19815.89999999106,21212.89999999106,21916.39999999106,23577,25217.09999999404,28344.09999999404,29414.5,31289.70000000298,32399.29999999702,34407.09999999404,36862.09999999404,37606.20000000298,43546.29999999702,44309.59999999404,48944.89999999106,50240.20000000298,51105.20000000298,52449.79999999702,56707.59999999404,57471.59999999404,61444.89999999106,62810.09999999404,67698.79999999702,68371.09999999404,69063.79999999702,69747.39999999106,70725.89999999106],"straightlining":0.45454545454545453,"zigzagging":0.3,"honeypot":0,"survey":"nfc10","trial_type":"survey-template","trial_index":4,"time_elapsed":168640,"internal_node_id":"0.0-4.0","experiment":"validation","task_version":"2.0","jspsych_version":"6.3.1","infrequency":0},{"value":0,"trial_type":"call-function","trial_index":5,"time_elapsed":168653,"internal_node_id":"0.0-5.0","experiment":"validation","task_version":"2.0","jspsych_version":"6.3.1","interactions":"[]"}]