[{"view_history":[{"page_index":0,"viewing_time":1309.4000000953674}],"rt":1309.9000000953674,"trial_type":"instructions","trial_index":0,"time_elapsed":1315,"internal_node_id":"0.0-0.0","experiment":"validation","task_version":"2.0","jspsych_version":"6.3.1"},{"rt":39513.700000047684,"responses":{"age":"34","gender-categorical":"Male","gender-free-response":"","ethnicity":"Not Hispanic or Latino","race":["White"],"education":"Bachelor degree"},"survey":"demographics","trial_type":"survey-demo","trial_index":1,"time_elapsed":40833,"internal_node_id":"0.0-1.0","experiment":"validation","task_version":"2.0","jspsych_version":"6.3.1"},{"responses":{"Q02":"2","Q05":"1","Q09":"4","Q04":"2","Q08":"4","Q07":"3","Q03":"2","Q01":"2","Q06":"3"},"rt":74297,"item_order":[1,4,8,3,7,6,2,0,5],"radio_events":[6193.700000047684,7461.100000143051,20243.800000190735,26126.900000095367,27343.60000014305,29043.5,31694.400000095367,33361.200000047684,35177.5,39011.800000190735,39728,68744.80000019073],"key_events":[],"mouse_events":[6193.700000047684,6943.300000190735,7461.100000143051,20243.800000190735,23394.60000014305,26126.900000095367,27343.60000014305,29043.5,31694.400000095367,32793.60000014305,33361.200000047684,35177.5,36111.40000009537,38510.800000190735,39011.800000190735,39728,66327.90000009537,68378.70000004768,68744.80000019073,74295],"straightlining":0.4444444444444444,"zigzagging":0.625,"honeypot":0,"survey":"pcf","trial_type":"survey-template","trial_index":2,"time_elapsed":115133,"internal_node_id":"0.0-2.0","experiment":"validation","task_version":"2.0","jspsych_version":"6.3.1","infrequency":0},{"rt":139282.09999990463,"response":{"Q7":3,"Q0":2,"Q4":2,"Q3":5,"Q2":5,"Q5":3,"Q6":4,"Q1":3,"Q8":0},"question_order":[7,0,4,3,2,5,6,1,8],"survey":"sns","trial_type":"survey-likert","trial_index":3,"time_elapsed":254417,"internal_node_id":"0.0-3.0","experiment":"validation","task_version":"2.0","jspsych_version":"6.3.1","infrequency":0},{"responses":{"Q03":"3","Q01":"2","Q04":"3","Q10":"3","Q02":"3","Q08":"3","Q11":"0","Q05":"2","Q07":"2","Q09":"1","Q06":"3"},"rt":54931,"item_order":[2,0,3,9,1,7,10,4,6,8,5],"radio_events":[10094.199999809265,12961.399999856949,17161.199999809265,20594.799999952316,23477.699999809265,25695.5,32811.799999952316,39078.5,44912,48395,53480],"key_events":[],"mouse_events":[10094.199999809265,12961.399999856949,16010.899999856949,17161.199999809265,19911.599999904633,20594.799999952316,22527.799999952316,23477.699999809265,25695.5,28495.199999809265,32811.799999952316,38278,39078.5,40595.699999809265,44912,48045.5,48395,49146.199999809265,53480,54929.199999809265],"straightlining":0.36363636363636365,"zigzagging":0.3,"honeypot":0,"survey":"nfc10","trial_type":"survey-template","trial_index":4,"time_elapsed":309350,"internal_node_id":"0.0-4.0","experiment":"validation","task_version":"2.0","jspsych_version":"6.3.1","infrequency":0},{"value":0,"trial_type":"call-function","trial_index":5,"time_elapsed":309354,"internal_node_id":"0.0-5.0","experiment":"validation","task_version":"2.0","jspsych_version":"6.3.1","interactions":"[]"}]