[{"view_history":[{"page_index":0,"viewing_time":3174.1999999999534}],"rt":3174.399999999907,"trial_type":"instructions","trial_index":0,"time_elapsed":3179,"internal_node_id":"0.0-0.0","experiment":"validation","task_version":"2.0","jspsych_version":"6.3.1"},{"rt":8310.59999999986,"responses":{"age":"27","gender-categorical":"Male","gender-free-response":"","ethnicity":"Hispanic or Latino","race":["White"],"education":"Bachelor degree"},"survey":"demographics","trial_type":"survey-demo","trial_index":1,"time_elapsed":11491,"internal_node_id":"0.0-1.0","experiment":"validation","task_version":"2.0","jspsych_version":"6.3.1"},{"rt":43387.299999999814,"response":{"Q8":0,"Q5":4,"Q4":4,"Q0":2,"Q2":1,"Q7":5,"Q1":4,"Q6":0,"Q3":4},"question_order":[8,5,4,0,2,7,1,6,3],"survey":"sns","trial_type":"survey-likert","trial_index":2,"time_elapsed":54882,"internal_node_id":"0.0-2.0","experiment":"validation","task_version":"2.0","jspsych_version":"6.3.1","infrequency":0},{"responses":{"Q08":"4","Q02":"4","Q04":"4","Q06":"2","Q03":"2","Q01":"3","Q05":"1","Q07":"4","Q09":"4"},"rt":81538.90000000014,"item_order":[7,1,3,5,2,0,4,6,8],"radio_events":[60286,60974.40000000014,63710.10000000009,66244.40000000014,68089.90000000014,72862.1000000001,74872.19999999995,76151.80000000005,78212.19999999995,80902.1000000001],"key_events":[],"mouse_events":[59487.60000000009,60286,60974.40000000014,63710.10000000009,66244.40000000014,68089.90000000014,72862.1000000001,74872.19999999995,76151.80000000005,78212.19999999995,80378.1000000001,80902.1000000001,81538],"straightlining":0.4444444444444444,"zigzagging":0.25,"honeypot":0,"survey":"pcf","trial_type":"survey-template","trial_index":3,"time_elapsed":136424,"internal_node_id":"0.0-3.0","experiment":"validation","task_version":"2.0","jspsych_version":"6.3.1","infrequency":0},{"responses":{"Q09":"1","Q02":"2","Q11":"0","Q04":"1","Q06":"0","Q01":"1","Q03":"1","Q08":"1","Q05":"0","Q07":"3","Q10":"2"},"rt":40235.89999999991,"item_order":[8,1,10,3,5,0,2,7,4,6,9],"radio_events":[3441.100000000093,8536.699999999953,12507.199999999953,16896.800000000047,19660.699999999953,22641,26626.699999999953,30497,33518.60000000009,38410.89999999991,39242.89999999991],"key_events":[],"mouse_events":[2564.6999999999534,3441.100000000093,8536.699999999953,12507.199999999953,16368.899999999907,16896.800000000047,19660.699999999953,22641,26626.699999999953,30497,33518.60000000009,38410.89999999991,39242.89999999991,40235],"straightlining":0.2727272727272727,"zigzagging":0.4,"honeypot":0,"survey":"nfc10","trial_type":"survey-template","trial_index":4,"time_elapsed":176662,"internal_node_id":"0.0-4.0","experiment":"validation","task_version":"2.0","jspsych_version":"6.3.1","infrequency":0},{"value":0,"trial_type":"call-function","trial_index":5,"time_elapsed":176663,"internal_node_id":"0.0-5.0","experiment":"validation","task_version":"2.0","jspsych_version":"6.3.1","interactions":"[{\"event\":\"blur\",\"trial\":0,\"time\":266},{\"event\":\"focus\",\"trial\":0,\"time\":1476},{\"event\":\"blur\",\"trial\":1,\"time\":3982},{\"event\":\"focus\",\"trial\":1,\"time\":4796}]"}]