[{"view_history":[{"page_index":0,"viewing_time":2338.5999999940395}],"rt":2339,"trial_type":"instructions","trial_index":0,"time_elapsed":2344,"internal_node_id":"0.0-0.0","experiment":"validation","task_version":"2.0","jspsych_version":"6.3.1"},{"rt":9879.59999999404,"responses":{"age":"35","gender-categorical":"Female","gender-free-response":"","ethnicity":"Not Hispanic or Latino","race":["White"],"education":"Associate degree"},"survey":"demographics","trial_type":"survey-demo","trial_index":1,"time_elapsed":12226,"internal_node_id":"0.0-1.0","experiment":"validation","task_version":"2.0","jspsych_version":"6.3.1"},{"rt":31519.69999998808,"response":{"Q6":0,"Q8":0,"Q4":4,"Q5":5,"Q3":4,"Q1":4,"Q7":4,"Q0":4,"Q2":4},"question_order":[6,8,4,5,3,1,7,0,2],"survey":"sns","trial_type":"survey-likert","trial_index":2,"time_elapsed":43749,"internal_node_id":"0.0-2.0","experiment":"validation","task_version":"2.0","jspsych_version":"6.3.1","infrequency":0},{"responses":{"Q05":"1","Q07":"4","Q02":"2","Q08":"2","Q04":"2","Q03":"4","Q09":"4","Q01":"2","Q06":"1"},"rt":36339.90000000596,"item_order":[4,6,1,7,3,2,8,0,5],"radio_events":[4086.9000000059605,6539.9000000059605,8191.799999982119,10548.59999999404,14931.699999988079,16332.5,19037.09999999404,21449.40000000596,23187.90000000596,25362.59999999404,27406.59999999404,29469.79999998212,35506.79999998212],"key_events":[],"mouse_events":[4086.9000000059605,6539.9000000059605,8191.799999982119,10548.59999999404,14931.699999988079,16332.5,19037.09999999404,21449.40000000596,23187.90000000596,25362.59999999404,26750.90000000596,27406.59999999404,28639.69999998808,29469.79999998212,35506.79999998212,36338.90000000596],"straightlining":0.4444444444444444,"zigzagging":0.25,"honeypot":0,"survey":"pcf","trial_type":"survey-template","trial_index":3,"time_elapsed":80092,"internal_node_id":"0.0-3.0","experiment":"validation","task_version":"2.0","jspsych_version":"6.3.1","infrequency":0},{"responses":{"Q07":"3","Q09":"3","Q01":"3","Q06":"3","Q08":"3","Q04":"3","Q10":"3","Q11":"0","Q03":"4","Q02":"3","Q05":"1"},"rt":31404.69999998808,"item_order":[6,8,0,5,7,3,9,10,2,1,4],"radio_events":[5295.5999999940395,9229,10006.699999988079,11190.09999999404,13057.699999988079,16397.79999998212,19980.90000000596,22279.90000000596,23955.59999999404,25198.69999998808,28469.79999998212,30320.59999999404],"key_events":[],"mouse_events":[5295.5999999940395,6954.799999982119,9229,10006.699999988079,11190.09999999404,12366,13057.699999988079,15737.59999999404,16397.79999998212,19980.90000000596,22279.90000000596,23955.59999999404,25198.69999998808,28469.79999998212,29672.79999998212,30320.59999999404,31403.79999998212],"straightlining":0.7272727272727273,"zigzagging":0,"honeypot":0,"survey":"nfc10","trial_type":"survey-template","trial_index":4,"time_elapsed":111498,"internal_node_id":"0.0-4.0","experiment":"validation","task_version":"2.0","jspsych_version":"6.3.1","infrequency":0},{"value":0,"trial_type":"call-function","trial_index":5,"time_elapsed":111499,"internal_node_id":"0.0-5.0","experiment":"validation","task_version":"2.0","jspsych_version":"6.3.1","interactions":"[]"}]