[{"view_history":[{"page_index":0,"viewing_time":3294.9000000953674}],"rt":3295.4000000953674,"trial_type":"instructions","trial_index":0,"time_elapsed":3302,"internal_node_id":"0.0-0.0","experiment":"validation","task_version":"2.0","jspsych_version":"6.3.1"},{"rt":15850.399999976158,"responses":{"age":"49","gender-categorical":"Female","gender-free-response":"","ethnicity":"Not Hispanic or Latino","race":["White"],"education":"Some college"},"survey":"demographics","trial_type":"survey-demo","trial_index":1,"time_elapsed":19155,"internal_node_id":"0.0-1.0","experiment":"validation","task_version":"2.0","jspsych_version":"6.3.1"},{"responses":{"Q09":"1","Q04":"1","Q07":"1","Q11":"0","Q06":"1","Q10":"1","Q05":"1","Q02":"1","Q03":"1","Q01":"1","Q08":"1"},"rt":35694.799999952316,"item_order":[8,3,6,10,5,9,4,1,2,0,7],"radio_events":[6440.099999904633,7340.299999952316,9790.599999904633,12323.5,14840.399999976158,20674.199999928474,25574.299999952316,29074.099999904633,31008.599999904633,32774.199999928474,34774.299999952316],"key_events":[],"mouse_events":[3873.399999976158,6440.099999904633,7340.299999952316,9790.599999904633,12323.5,14840.399999976158,20674.199999928474,25574.299999952316,29074.099999904633,31008.599999904633,32774.199999928474,34774.299999952316,35691.699999928474],"straightlining":0.6363636363636364,"zigzagging":0.2,"honeypot":0,"survey":"nfc10","trial_type":"survey-template","trial_index":2,"time_elapsed":54855,"internal_node_id":"0.0-2.0","experiment":"validation","task_version":"2.0","jspsych_version":"6.3.1","infrequency":0},{"rt":43307.89999997616,"response":{"Q2":2,"Q4":5,"Q1":0,"Q0":0,"Q7":1,"Q5":5,"Q3":2,"Q6":0,"Q8":0},"question_order":[2,4,1,0,7,5,3,6,8],"survey":"sns","trial_type":"survey-likert","trial_index":3,"time_elapsed":98170,"internal_node_id":"0.0-3.0","experiment":"validation","task_version":"2.0","jspsych_version":"6.3.1","infrequency":0},{"responses":{"Q08":"0","Q09":"4","Q04":"3","Q06":"4","Q01":"4","Q07":"4","Q03":"4","Q02":"4","Q05":"2"},"rt":31809.399999976158,"item_order":[7,8,3,5,0,6,2,1,4],"radio_events":[7539.899999976158,8473.700000047684,12040.399999976158,16323.700000047684,19257.299999952316,21491,23524.5,25674.100000023842,26623.5,30040.700000047684],"key_events":[],"mouse_events":[5924,7539.899999976158,8473.700000047684,12040.399999976158,15107.299999952316,16323.700000047684,17423.799999952316,19257.299999952316,21491,23524.5,24940.299999952316,25674.100000023842,26623.5,27524.299999952316,30040.700000047684,31807.799999952316],"straightlining":0.5555555555555556,"zigzagging":0.125,"honeypot":0,"survey":"pcf","trial_type":"survey-template","trial_index":4,"time_elapsed":129985,"internal_node_id":"0.0-4.0","experiment":"validation","task_version":"2.0","jspsych_version":"6.3.1","infrequency":0},{"value":0,"trial_type":"call-function","trial_index":5,"time_elapsed":129991,"internal_node_id":"0.0-5.0","experiment":"validation","task_version":"2.0","jspsych_version":"6.3.1","interactions":"[{\"event\":\"blur\",\"trial\":1,\"time\":5234},{\"event\":\"focus\",\"trial\":1,\"time\":6887}]"}]