[{"view_history":[{"page_index":0,"viewing_time":3613}],"rt":3613.300000011921,"trial_type":"instructions","trial_index":0,"time_elapsed":3620,"internal_node_id":"0.0-0.0","experiment":"validation","task_version":"2.0","jspsych_version":"6.3.1"},{"rt":13598.599999964237,"responses":{"age":"32","gender-categorical":"Female","gender-free-response":"","ethnicity":"Not Hispanic or Latino","race":["White"],"education":"Bachelor degree"},"survey":"demographics","trial_type":"survey-demo","trial_index":1,"time_elapsed":17220,"internal_node_id":"0.0-1.0","experiment":"validation","task_version":"2.0","jspsych_version":"6.3.1"},{"responses":{"Q07":"3","Q09":"3","Q08":"3","Q11":"0","Q02":"3","Q05":"2","Q04":"2","Q03":"3","Q06":"1","Q01":"3","Q10":"2"},"rt":43593.39999997616,"item_order":[6,8,7,10,1,4,3,2,5,0,9],"radio_events":[4635.199999988079,8971.399999976158,11969.300000011921,14811,18064.80000001192,21701.69999998808,28924.899999976158,31534.19999998808,34760.89999997616,35751.39999997616,37771.69999998808,42187.69999998808,42962.19999998808],"key_events":[4104,4635.199999988079,7688.399999976158,8442.300000011921,8971.399999976158,11969.300000011921,14415.300000011921,14811,18064.80000001192,21701.69999998808,28174.19999998808,28568.100000023842,28924.899999976158,31534.19999998808,34760.89999997616,35308.89999997616,35751.39999997616,37400.89999997616,37771.69999998808,42187.69999998808,42614.60000002384,42962.19999998808,43592.5],"mouse_events":[],"straightlining":0.45454545454545453,"zigzagging":0.3,"honeypot":0,"survey":"nfc10","trial_type":"survey-template","trial_index":2,"time_elapsed":60817,"internal_node_id":"0.0-2.0","experiment":"validation","task_version":"2.0","jspsych_version":"6.3.1","infrequency":0},{"rt":35191.60000002384,"response":{"Q7":3,"Q3":4,"Q5":4,"Q6":2,"Q1":2,"Q8":0,"Q0":1,"Q2":4,"Q4":4},"question_order":[7,3,5,6,1,8,0,2,4],"survey":"sns","trial_type":"survey-likert","trial_index":3,"time_elapsed":96011,"internal_node_id":"0.0-3.0","experiment":"validation","task_version":"2.0","jspsych_version":"6.3.1","infrequency":0},{"responses":{"Q03":"1","Q06":"1","Q07":"2","Q05":"0","Q01":"1","Q09":"4","Q02":"0","Q08":"3","Q04":"1"},"rt":32817.59999996424,"item_order":[2,5,6,4,0,8,1,7,3],"radio_events":[6772,9682.799999952316,13504.799999952316,15640.099999964237,18470.299999952316,21567.799999952316,24990.599999964237,28543.69999998808,32256.5],"key_events":[6772,9682.799999952316,12795,13504.799999952316,15327.099999964237,15640.099999964237,18470.299999952316,21567.799999952316,24990.599999964237,28543.69999998808,31858.399999976158,32256.5,32817],"mouse_events":[],"straightlining":0.4444444444444444,"zigzagging":0.375,"honeypot":0,"survey":"pcf","trial_type":"survey-template","trial_index":4,"time_elapsed":128830,"internal_node_id":"0.0-4.0","experiment":"validation","task_version":"2.0","jspsych_version":"6.3.1","infrequency":0},{"value":0,"trial_type":"call-function","trial_index":5,"time_elapsed":128831,"internal_node_id":"0.0-5.0","experiment":"validation","task_version":"2.0","jspsych_version":"6.3.1","interactions":"[]"}]