[{"view_history":[{"page_index":0,"viewing_time":2220.794999971986}],"rt":2221.0500000510365,"trial_type":"instructions","trial_index":0,"time_elapsed":2232,"internal_node_id":"0.0-0.0","experiment":"validation","task_version":"2.0","jspsych_version":"6.3.1"},{"rt":12336.505000013858,"responses":{"age":"18","gender-categorical":"Male","gender-free-response":"","ethnicity":"Not Hispanic or Latino","race":["Black or African American"],"education":"Less than high school"},"survey":"demographics","trial_type":"survey-demo","trial_index":1,"time_elapsed":14570,"internal_node_id":"0.0-1.0","experiment":"validation","task_version":"2.0","jspsych_version":"6.3.1"},{"responses":{"Q06":"4","Q02":"4","Q05":"4","Q01":"4","Q07":"4","Q08":"4","Q04":"4","Q03":"2","Q09":"4"},"rt":22139.324999880046,"item_order":[5,1,4,0,6,7,3,2,8],"radio_events":[5506.984999869019,6174.974999856204,6647.979999892414,7710.410000057891,8412.084999959916,9208.949999883771,11967.620000010356,14391.929999925196,18394.90499999374,19907.974999863654],"key_events":[],"mouse_events":[4753.969999961555,5506.984999869019,6174.974999856204,6647.979999892414,7710.410000057891,8412.084999959916,9208.949999883771,11967.620000010356,14391.929999925196,17949.964999919757,18394.90499999374,19907.974999863654,22138.005000073463],"straightlining":0.7777777777777778,"zigzagging":0,"honeypot":0,"survey":"pcf","trial_type":"survey-template","trial_index":2,"time_elapsed":36712,"internal_node_id":"0.0-2.0","experiment":"validation","task_version":"2.0","jspsych_version":"6.3.1","infrequency":0},{"responses":{"Q06":"1","Q08":"0","Q03":"0","Q04":"0","Q10":"0","Q05":"0","Q09":"1","Q11":"4","Q07":"0","Q02":"1","Q01":"2"},"rt":171637.18999992125,"item_order":[5,7,2,3,9,4,8,10,6,1,0],"radio_events":[134842.35999989323,136678.5549998749,142446.17499993183,143800.03000004217,147947.22999981605,152543.10499993153,159206.12999983132,160449.2049999535,163260.0650000386,164302.02499986626,167410.03999998793,169679.91499998607],"key_events":[],"mouse_events":[134842.35999989323,135585.21499997005,136115.19000004046,136678.5549998749,137458.9949999936,137972.99999999814,142446.17499993183,143800.03000004217,147081.9949998986,147429.18500001542,147947.22999981605,152280.13999992982,152543.10499993153,157164.28999998607,158811.0549999401,159206.12999983132,160449.2049999535,163260.0650000386,163892.99999992363,164302.02499986626,167032.23999985494,167410.03999998793,169306.33999989368,169679.91499998607,171636.16999983788],"straightlining":0.36363636363636365,"zigzagging":0.7,"honeypot":0,"survey":"nfc10","trial_type":"survey-template","trial_index":3,"time_elapsed":208352,"internal_node_id":"0.0-3.0","experiment":"validation","task_version":"2.0","jspsych_version":"6.3.1","infrequency":1},{"rt":33007.68999988213,"response":{"Q7":4,"Q3":3,"Q5":4,"Q6":4,"Q4":5,"Q8":0,"Q0":0,"Q2":4,"Q1":4},"question_order":[7,3,5,6,4,8,0,2,1],"survey":"sns","trial_type":"survey-likert","trial_index":4,"time_elapsed":241363,"internal_node_id":"0.0-4.0","experiment":"validation","task_version":"2.0","jspsych_version":"6.3.1","infrequency":0},{"value":1,"trial_type":"call-function","trial_index":5,"time_elapsed":241364,"internal_node_id":"0.0-5.0","experiment":"validation","task_version":"2.0","jspsych_version":"6.3.1","interactions":"[{\"event\":\"blur\",\"trial\":2,\"time\":31400},{\"event\":\"focus\",\"trial\":2,\"time\":32410}]"}]