[{"view_history":[{"page_index":0,"viewing_time":3381.5}],"rt":3384.3999996185303,"trial_type":"instructions","trial_index":0,"time_elapsed":3470,"internal_node_id":"0.0-0.0","experiment":"validation","task_version":"2.0","jspsych_version":"6.3.1"},{"rt":17693.39999961853,"responses":{"age":"28","gender-categorical":"Female","gender-free-response":"","ethnicity":"Not Hispanic or Latino","race":["Native Hawaiian or other Pacific Islander","Black or African American","White"],"education":"Bachelor degree"},"survey":"demographics","trial_type":"survey-demo","trial_index":1,"time_elapsed":21177,"internal_node_id":"0.0-1.0","experiment":"validation","task_version":"2.0","jspsych_version":"6.3.1"},{"rt":59329.60000038147,"response":{"Q5":2,"Q7":4,"Q0":3,"Q1":4,"Q2":3,"Q8":0,"Q3":5,"Q6":4,"Q4":4},"question_order":[5,7,0,1,2,8,3,6,4],"survey":"sns","trial_type":"survey-likert","trial_index":2,"time_elapsed":80531,"internal_node_id":"0.0-2.0","experiment":"validation","task_version":"2.0","jspsych_version":"6.3.1","infrequency":0},{"responses":{"Q06":"3","Q02":"2","Q03":"3","Q11":"0","Q04":"2","Q01":"2","Q07":"3","Q10":"1","Q05":"3","Q08":"3","Q09":"1"},"rt":70948.80000114441,"item_order":[5,1,2,10,3,0,6,9,4,7,8],"radio_events":[11159.900001525879,14459.900001525879,17644.10000038147,25611,30357.20000076294,44265.30000114441,50741,51770.30000114441,53139,57347.80000114441,64127.20000076294,68854.20000076294],"key_events":[],"mouse_events":[9467.20000076294,11159.900001525879,14459.900001525879,16841.80000114441,17644.10000038147,25611,30357.20000076294,44265.30000114441,49197.30000114441,50741,51770.30000114441,53139,57347.80000114441,64127.20000076294,68854.20000076294,70938.40000152588],"straightlining":0.36363636363636365,"zigzagging":0.4,"honeypot":0,"survey":"nfc10","trial_type":"survey-template","trial_index":3,"time_elapsed":151514,"internal_node_id":"0.0-3.0","experiment":"validation","task_version":"2.0","jspsych_version":"6.3.1","infrequency":0},{"responses":{"Q04":"3","Q01":"4","Q05":"3","Q09":"4","Q06":"4","Q02":"4","Q03":"2","Q08":"4","Q07":"4"},"rt":42536.70000076294,"item_order":[3,0,4,8,5,1,2,7,6],"radio_events":[12958.29999923706,15711.29999923706,18439.10000038147,20281.70000076294,24243.29999923706,31356,34405.20000076294,37840.10000038147,38942.20000076294,40773.39999961853],"key_events":[],"mouse_events":[7284.299999237061,8205.89999961853,11403,12958.29999923706,14777,15711.29999923706,18439.10000038147,20281.70000076294,24243.29999923706,31356,34405.20000076294,37840.10000038147,38942.20000076294,40773.39999961853,42509.5],"straightlining":0.5555555555555556,"zigzagging":0.375,"honeypot":0,"survey":"pcf","trial_type":"survey-template","trial_index":4,"time_elapsed":194067,"internal_node_id":"0.0-4.0","experiment":"validation","task_version":"2.0","jspsych_version":"6.3.1","infrequency":0},{"value":0,"trial_type":"call-function","trial_index":5,"time_elapsed":194077,"internal_node_id":"0.0-5.0","experiment":"validation","task_version":"2.0","jspsych_version":"6.3.1","interactions":"[]"}]