[{"view_history":[{"page_index":0,"viewing_time":7794.5}],"rt":7795.099999904633,"trial_type":"instructions","trial_index":0,"time_elapsed":7798,"internal_node_id":"0.0-0.0","experiment":"validation","task_version":"2.0","jspsych_version":"6.3.1"},{"rt":32717.89999985695,"responses":{"age":"33","gender-categorical":"Male","gender-free-response":"","ethnicity":"Not Hispanic or Latino","race":["White"],"education":"Some college"},"survey":"demographics","trial_type":"survey-demo","trial_index":1,"time_elapsed":40517,"internal_node_id":"0.0-1.0","experiment":"validation","task_version":"2.0","jspsych_version":"6.3.1"},{"rt":91114.5,"response":{"Q8":0,"Q1":3,"Q5":2,"Q2":5,"Q4":3,"Q0":3,"Q6":0,"Q3":5,"Q7":5},"question_order":[8,1,5,2,4,0,6,3,7],"survey":"sns","trial_type":"survey-likert","trial_index":2,"time_elapsed":131633,"internal_node_id":"0.0-2.0","experiment":"validation","task_version":"2.0","jspsych_version":"6.3.1","infrequency":0},{"responses":{"Q02":"2","Q09":"4","Q04":"3","Q07":"3","Q03":"2","Q05":"2","Q01":"3","Q06":"1","Q08":"4"},"rt":69842.5,"item_order":[1,8,3,6,2,4,0,5,7],"radio_events":[14185.200000047684,15722.300000190735,18860.200000047684,29007.10000014305,34007.90000009537,40522.10000014305,42825.200000047684,44530.10000014305,48341.5,53327.90000009537,58704.800000190735,60493.90000009537,67701.40000009537],"key_events":[],"mouse_events":[12950.400000095367,14185.200000047684,15255.600000143051,15722.300000190735,18860.200000047684,28398.200000047684,29007.10000014305,34007.90000009537,40522.10000014305,42825.200000047684,44530.10000014305,48341.5,53327.90000009537,58704.800000190735,60493.90000009537,66955.30000019073,67701.40000009537,69841.80000019073],"straightlining":0.3333333333333333,"zigzagging":0.25,"honeypot":0,"survey":"pcf","trial_type":"survey-template","trial_index":3,"time_elapsed":201478,"internal_node_id":"0.0-3.0","experiment":"validation","task_version":"2.0","jspsych_version":"6.3.1","infrequency":0},{"responses":{"Q03":"3","Q06":"3","Q05":"2","Q08":"3","Q04":"2","Q01":"2","Q07":"4","Q11":"0","Q09":"3","Q10":"3","Q02":"3"},"rt":175893.90000009537,"item_order":[2,5,4,7,3,0,6,10,8,9,1],"radio_events":[6872.5,35233.40000009537,37582.5,40626.59999990463,49738,60372.40000009537,68338,72021.79999995232,76464.29999995232,77789.09999990463,86186.90000009537,91353,98627.09999990463,110982.20000004768,118556.09999990463,127347.29999995232,142326],"key_events":[],"mouse_events":[6872.5,35233.40000009537,37582.5,40626.59999990463,49738,60372.40000009537,68338,72021.79999995232,76464.29999995232,77789.09999990463,86186.90000009537,91353,98627.09999990463,109950.29999995232,110982.20000004768,118556.09999990463,127347.29999995232,141850.20000004768,142326,168406,172884.59999990463,175893.09999990463],"straightlining":0.45454545454545453,"zigzagging":0.4,"honeypot":0,"survey":"nfc10","trial_type":"survey-template","trial_index":4,"time_elapsed":377374,"internal_node_id":"0.0-4.0","experiment":"validation","task_version":"2.0","jspsych_version":"6.3.1","infrequency":0},{"value":0,"trial_type":"call-function","trial_index":5,"time_elapsed":377375,"internal_node_id":"0.0-5.0","experiment":"validation","task_version":"2.0","jspsych_version":"6.3.1","interactions":"[{\"event\":\"blur\",\"trial\":2,\"time\":68828},{\"event\":\"focus\",\"trial\":2,\"time\":74120},{\"event\":\"blur\",\"trial\":4,\"time\":349717},{\"event\":\"focus\",\"trial\":4,\"time\":354018},{\"event\":\"blur\",\"trial\":4,\"time\":358307},{\"event\":\"focus\",\"trial\":4,\"time\":363132}]"}]