[{"view_history":[{"page_index":0,"viewing_time":1321.800000011921}],"rt":1322.1000000238419,"trial_type":"instructions","trial_index":0,"time_elapsed":1327,"internal_node_id":"0.0-0.0","experiment":"validation","task_version":"2.0","jspsych_version":"6.3.1"},{"rt":8033.100000023842,"responses":{"age":"22","gender-categorical":"Female","gender-free-response":"","ethnicity":"Not Hispanic or Latino","race":["White"],"education":"Some college"},"survey":"demographics","trial_type":"survey-demo","trial_index":1,"time_elapsed":9362,"internal_node_id":"0.0-1.0","experiment":"validation","task_version":"2.0","jspsych_version":"6.3.1"},{"responses":{"Q07":"2","Q08":"3","Q04":"0","Q02":"0","Q05":"0","Q01":"1","Q03":"0","Q06":"0","Q09":"4"},"rt":17020.19999998808,"item_order":[6,7,3,1,4,0,2,5,8],"radio_events":[3720.900000035763,5335.100000023842,7836.900000035763,10726.900000035763,11218.900000035763,13197.300000011921,13848.600000023842,14650.900000035763,16625],"key_events":[],"mouse_events":[2675.100000023842,3720.900000035763,4449.199999988079,5335.100000023842,6727.199999988079,7836.900000035763,9887.300000011921,10415.199999988079,10726.900000035763,11218.900000035763,13197.300000011921,13848.600000023842,14650.900000035763,16625,17019],"straightlining":0.6666666666666666,"zigzagging":0.375,"honeypot":0,"survey":"pcf","trial_type":"survey-template","trial_index":2,"time_elapsed":26387,"internal_node_id":"0.0-2.0","experiment":"validation","task_version":"2.0","jspsych_version":"6.3.1","infrequency":0},{"rt":21273,"response":{"Q2":1,"Q1":2,"Q7":5,"Q4":5,"Q0":3,"Q5":5,"Q8":0,"Q3":4,"Q6":0},"question_order":[2,1,7,4,0,5,8,3,6],"survey":"sns","trial_type":"survey-likert","trial_index":3,"time_elapsed":47664,"internal_node_id":"0.0-3.0","experiment":"validation","task_version":"2.0","jspsych_version":"6.3.1","infrequency":0},{"responses":{"Q03":"4","Q10":"4","Q09":"4","Q01":"4","Q06":"4","Q04":"4","Q08":"4","Q11":"0","Q02":"4","Q07":"2","Q05":"4"},"rt":29289.19999998808,"item_order":[2,9,8,0,5,3,7,10,1,6,4],"radio_events":[3707.199999988079,5657.699999988079,6211.5,7213.600000023842,10883.600000023842,12029.400000035763,15912,18117.19999998808,21063.600000023842,22137.400000035763,25757.80000001192,28605.69999998808],"key_events":[],"mouse_events":[3707.199999988079,5041.400000035763,5657.699999988079,6211.5,7213.600000023842,7697.600000023842,10383.400000035763,10883.600000023842,12029.400000035763,14823.5,15912,17593.5,18117.19999998808,21063.600000023842,22137.400000035763,24973.5,25757.80000001192,28605.69999998808,29288],"straightlining":0.5454545454545454,"zigzagging":0.5,"honeypot":0,"survey":"nfc10","trial_type":"survey-template","trial_index":4,"time_elapsed":76957,"internal_node_id":"0.0-4.0","experiment":"validation","task_version":"2.0","jspsych_version":"6.3.1","infrequency":0},{"value":0,"trial_type":"call-function","trial_index":5,"time_elapsed":76959,"internal_node_id":"0.0-5.0","experiment":"validation","task_version":"2.0","jspsych_version":"6.3.1","interactions":"[]"}]