[{"success":true,"timeout":false,"failed_images":[],"failed_audio":[],"failed_video":[],"trial_type":"preload","trial_index":0,"time_elapsed":2426,"internal_node_id":"0.0-0.0","experiment":"validation-B","task_version":"2.0","jspsych_version":"6.3.1"},{"success":true,"trial_type":"fullscreen","trial_index":1,"time_elapsed":6361,"internal_node_id":"0.0-1.0","experiment":"validation-B","task_version":"2.0","jspsych_version":"6.3.1"},{"view_history":[{"page_index":0,"viewing_time":3180},{"page_index":1,"viewing_time":11191.5},{"page_index":2,"viewing_time":2856},{"page_index":3,"viewing_time":2160.2999999998137}],"rt":19388.299999999814,"trial_type":"instructions","trial_index":2,"time_elapsed":25750,"internal_node_id":"0.0-3.0","experiment":"validation-B","task_version":"2.0","jspsych_version":"6.3.1"},{"item":5,"shape_set":1,"distractor":"pd","choice_order":[1,2,3,0],"correct":0,"choice":0,"accuracy":1,"rt":4230.399999999907,"screen_resolution":[1920,1080],"minimum_resolution":1,"all_loaded":true,"item_set":"practice","trial_type":"mars","trial_index":3,"time_elapsed":30737,"internal_node_id":"0.0-4.0-0.0","experiment":"validation-B","task_version":"2.0","jspsych_version":"6.3.1"},{"item":2,"shape_set":1,"distractor":"pd","choice_order":[1,3,0,2],"correct":0,"choice":0,"accuracy":1,"rt":3114.7000000001863,"screen_resolution":[1920,1080],"minimum_resolution":1,"all_loaded":true,"item_set":"practice","trial_type":"mars","trial_index":4,"time_elapsed":34607,"internal_node_id":"0.0-5.0-0.0","experiment":"validation-B","task_version":"2.0","jspsych_version":"6.3.1"},{"item":8,"shape_set":1,"distractor":"pd","choice_order":[1,2,0,3],"correct":0,"choice":0,"accuracy":1,"rt":6813.600000000093,"screen_resolution":[1920,1080],"minimum_resolution":1,"all_loaded":true,"item_set":"practice","trial_type":"mars","trial_index":5,"time_elapsed":42172,"internal_node_id":"0.0-6.0-0.0","experiment":"validation-B","task_version":"2.0","jspsych_version":"6.3.1"},{"view_history":[{"page_index":0,"viewing_time":2327.5},{"page_index":1,"viewing_time":8712}],"rt":11039.600000000093,"trial_type":"instructions","trial_index":6,"time_elapsed":53213,"internal_node_id":"0.0-7.0","experiment":"validation-B","task_version":"2.0","jspsych_version":"6.3.1"},{"rt":null,"stimulus":"<div style=\"font-size:24px;\">Loading puzzle:<br>1 / 24</div>","response":null,"trial_type":"html-keyboard-response","trial_index":7,"time_elapsed":54414,"internal_node_id":"0.0-8.0-1.0","experiment":"validation-B","task_version":"2.0","jspsych_version":"6.3.1"},{"item":55,"shape_set":1,"distractor":"pd","choice_order":[1,0,3,2],"correct":0,"choice":0,"accuracy":1,"rt":19461.899999999907,"screen_resolution":[1920,1080],"minimum_resolution":1,"all_loaded":true,"item_set":3,"long_form":1,"trial_type":"mars","trial_index":8,"time_elapsed":73877,"internal_node_id":"0.0-8.0-2.0","experiment":"validation-B","task_version":"2.0","jspsych_version":"6.3.1","browser_interactions":0},{"rt":null,"stimulus":"<div style=\"font-size:24px;\">Loading puzzle:<br>2 / 24</div>","response":null,"trial_type":"html-keyboard-response","trial_index":9,"time_elapsed":75080,"internal_node_id":"0.0-9.0-1.0","experiment":"validation-B","task_version":"2.0","jspsych_version":"6.3.1"},{"item":30,"shape_set":3,"distractor":"pd","choice_order":[1,0,3,2],"correct":0,"choice":3,"accuracy":0,"rt":20220,"screen_resolution":[1920,1080],"minimum_resolution":1,"all_loaded":true,"item_set":3,"long_form":1,"trial_type":"mars","trial_index":10,"time_elapsed":95300,"internal_node_id":"0.0-9.0-2.0","experiment":"validation-B","task_version":"2.0","jspsych_version":"6.3.1","browser_interactions":0},{"rt":null,"stimulus":"<div style=\"font-size:24px;\">Loading puzzle:<br>3 / 24</div>","response":null,"trial_type":"html-keyboard-response","trial_index":11,"time_elapsed":96502,"internal_node_id":"0.0-10.0-1.0","experiment":"validation-B","task_version":"2.0","jspsych_version":"6.3.1"},{"item":64,"shape_set":1,"distractor":"pd","choice_order":[2,0,1,3],"correct":0,"choice":2,"accuracy":0,"rt":25134,"screen_resolution":[1920,1080],"minimum_resolution":1,"all_loaded":true,"item_set":3,"long_form":1,"trial_type":"mars","trial_index":12,"time_elapsed":121636,"internal_node_id":"0.0-10.0-2.0","experiment":"validation-B","task_version":"2.0","jspsych_version":"6.3.1","browser_interactions":0},{"rt":null,"stimulus":"<div style=\"font-size:24px;\">Loading puzzle:<br>4 / 24</div>","response":null,"trial_type":"html-keyboard-response","trial_index":13,"time_elapsed":122837,"internal_node_id":"0.0-11.0-1.0","experiment":"validation-B","task_version":"2.0","jspsych_version":"6.3.1"},{"item":45,"shape_set":3,"distractor":"pd","choice_order":[0,3,1,2],"correct":0,"choice":0,"accuracy":1,"rt":12942.100000000093,"screen_resolution":[1920,1080],"minimum_resolution":1,"all_loaded":true,"item_set":3,"long_form":1,"trial_type":"mars","trial_index":14,"time_elapsed":135780,"internal_node_id":"0.0-11.0-2.0","experiment":"validation-B","task_version":"2.0","jspsych_version":"6.3.1","browser_interactions":0},{"rt":null,"stimulus":"<div style=\"font-size:24px;\">Loading puzzle:<br>5 / 24</div>","response":null,"trial_type":"html-keyboard-response","trial_index":15,"time_elapsed":136981,"internal_node_id":"0.0-12.0-1.0","experiment":"validation-B","task_version":"2.0","jspsych_version":"6.3.1"},{"item":35,"shape_set":1,"distractor":"pd","choice_order":[2,1,0,3],"correct":0,"choice":0,"accuracy":1,"rt":11398.100000000093,"screen_resolution":[1920,1080],"minimum_resolution":1,"all_loaded":true,"item_set":3,"long_form":1,"trial_type":"mars","trial_index":16,"time_elapsed":148380,"internal_node_id":"0.0-12.0-2.0","experiment":"validation-B","task_version":"2.0","jspsych_version":"6.3.1","browser_interactions":0},{"rt":null,"stimulus":"<div style=\"font-size:24px;\">Loading puzzle:<br>6 / 24</div>","response":null,"trial_type":"html-keyboard-response","trial_index":17,"time_elapsed":149580,"internal_node_id":"0.0-13.0-1.0","experiment":"validation-B","task_version":"2.0","jspsych_version":"6.3.1"},{"item":72,"shape_set":1,"distractor":"pd","choice_order":[3,2,0,1],"correct":0,"choice":0,"accuracy":1,"rt":25510.400000000373,"screen_resolution":[1920,1080],"minimum_resolution":1,"all_loaded":true,"item_set":3,"long_form":1,"trial_type":"mars","trial_index":18,"time_elapsed":175091,"internal_node_id":"0.0-13.0-2.0","experiment":"validation-B","task_version":"2.0","jspsych_version":"6.3.1","browser_interactions":0},{"rt":null,"stimulus":"<div style=\"font-size:24px;\">Loading puzzle:<br>7 / 24</div>","response":null,"trial_type":"html-keyboard-response","trial_index":19,"time_elapsed":176295,"internal_node_id":"0.0-14.0-1.0","experiment":"validation-B","task_version":"2.0","jspsych_version":"6.3.1"},{"item":27,"shape_set":1,"distractor":"pd","choice_order":[2,0,1,3],"correct":0,"choice":null,"accuracy":null,"rt":null,"screen_resolution":[1920,1080],"minimum_resolution":1,"all_loaded":true,"item_set":3,"long_form":1,"trial_type":"mars","trial_index":20,"time_elapsed":206296,"internal_node_id":"0.0-14.0-2.0","experiment":"validation-B","task_version":"2.0","jspsych_version":"6.3.1","browser_interactions":0},{"rt":null,"stimulus":"<div style=\"font-size:24px;\">Loading puzzle:<br>8 / 24</div>","response":null,"trial_type":"html-keyboard-response","trial_index":21,"time_elapsed":207497,"internal_node_id":"0.0-15.0-1.0","experiment":"validation-B","task_version":"2.0","jspsych_version":"6.3.1"},{"item":79,"shape_set":3,"distractor":"pd","choice_order":[1,3,2,0],"correct":0,"choice":3,"accuracy":0,"rt":29401.399999999907,"screen_resolution":[1920,1080],"minimum_resolution":1,"all_loaded":true,"item_set":3,"long_form":1,"trial_type":"mars","trial_index":22,"time_elapsed":236898,"internal_node_id":"0.0-15.0-2.0","experiment":"validation-B","task_version":"2.0","jspsych_version":"6.3.1","browser_interactions":0},{"rt":null,"stimulus":"<div style=\"font-size:24px;\">Loading puzzle:<br>9 / 24</div>","response":null,"trial_type":"html-keyboard-response","trial_index":23,"time_elapsed":238099,"internal_node_id":"0.0-16.0-1.0","experiment":"validation-B","task_version":"2.0","jspsych_version":"6.3.1"},{"item":29,"shape_set":2,"distractor":"pd","choice_order":[3,0,2,1],"correct":0,"choice":0,"accuracy":1,"rt":24525.900000000373,"screen_resolution":[1920,1080],"minimum_resolution":1,"all_loaded":true,"item_set":3,"long_form":1,"trial_type":"mars","trial_index":24,"time_elapsed":262626,"internal_node_id":"0.0-16.0-2.0","experiment":"validation-B","task_version":"2.0","jspsych_version":"6.3.1","browser_interactions":0},{"rt":null,"stimulus":"<div style=\"font-size:24px;\">Loading puzzle:<br>10 / 24</div>","response":null,"trial_type":"html-keyboard-response","trial_index":25,"time_elapsed":263827,"internal_node_id":"0.0-17.0-1.0","experiment":"validation-B","task_version":"2.0","jspsych_version":"6.3.1"},{"item":24,"shape_set":3,"distractor":"pd","choice_order":[0,3,2,1],"correct":0,"choice":0,"accuracy":1,"rt":16638.400000000373,"screen_resolution":[1920,1080],"minimum_resolution":1,"all_loaded":true,"item_set":3,"long_form":1,"trial_type":"mars","trial_index":26,"time_elapsed":280465,"internal_node_id":"0.0-17.0-2.0","experiment":"validation-B","task_version":"2.0","jspsych_version":"6.3.1","browser_interactions":0},{"rt":null,"stimulus":"<div style=\"font-size:24px;\">Loading puzzle:<br>11 / 24</div>","response":null,"trial_type":"html-keyboard-response","trial_index":27,"time_elapsed":281671,"internal_node_id":"0.0-18.0-1.0","experiment":"validation-B","task_version":"2.0","jspsych_version":"6.3.1"},{"item":42,"shape_set":3,"distractor":"pd","choice_order":[1,2,0,3],"correct":0,"choice":1,"accuracy":0,"rt":15082.099999999627,"screen_resolution":[1920,1080],"minimum_resolution":1,"all_loaded":true,"item_set":3,"long_form":1,"trial_type":"mars","trial_index":28,"time_elapsed":296753,"internal_node_id":"0.0-18.0-2.0","experiment":"validation-B","task_version":"2.0","jspsych_version":"6.3.1","browser_interactions":0},{"rt":null,"stimulus":"<div style=\"font-size:24px;\">Loading puzzle:<br>12 / 24</div>","response":null,"trial_type":"html-keyboard-response","trial_index":29,"time_elapsed":297954,"internal_node_id":"0.0-19.0-1.0","experiment":"validation-B","task_version":"2.0","jspsych_version":"6.3.1"},{"item":54,"shape_set":1,"distractor":"pd","choice_order":[2,3,1,0],"correct":0,"choice":1,"accuracy":0,"rt":22526.700000000186,"screen_resolution":[1920,1080],"minimum_resolution":1,"all_loaded":true,"item_set":3,"long_form":1,"trial_type":"mars","trial_index":30,"time_elapsed":320481,"internal_node_id":"0.0-19.0-2.0","experiment":"validation-B","task_version":"2.0","jspsych_version":"6.3.1","browser_interactions":0},{"view_history":[{"page_index":0,"viewing_time":2854.899999999441},{"page_index":1,"viewing_time":4264}],"rt":7119.0999999996275,"trial_type":"instructions","trial_index":31,"time_elapsed":327601,"internal_node_id":"0.0-20.0","experiment":"validation-B","task_version":"2.0","jspsych_version":"6.3.1"},{"rt":null,"stimulus":"<div style=\"font-size:24px;\">Loading puzzle:<br>13 / 24</div>","response":null,"trial_type":"html-keyboard-response","trial_index":32,"time_elapsed":328806,"internal_node_id":"0.0-21.0-1.0","experiment":"validation-B","task_version":"2.0","jspsych_version":"6.3.1"},{"item":17,"shape_set":3,"distractor":"pd","choice_order":[0,2,3,1],"correct":0,"choice":1,"accuracy":0,"rt":28369.599999999627,"screen_resolution":[1920,1080],"minimum_resolution":1,"all_loaded":true,"item_set":3,"long_form":1,"trial_type":"mars","trial_index":33,"time_elapsed":357176,"internal_node_id":"0.0-21.0-2.0","experiment":"validation-B","task_version":"2.0","jspsych_version":"6.3.1","browser_interactions":0},{"rt":null,"stimulus":"<div style=\"font-size:24px;\">Loading puzzle:<br>14 / 24</div>","response":null,"trial_type":"html-keyboard-response","trial_index":34,"time_elapsed":358377,"internal_node_id":"0.0-22.0-1.0","experiment":"validation-B","task_version":"2.0","jspsych_version":"6.3.1"},{"item":58,"shape_set":3,"distractor":"md","choice_order":[1,0,2,3],"correct":0,"choice":null,"accuracy":null,"rt":null,"screen_resolution":[1920,1080],"minimum_resolution":1,"all_loaded":true,"item_set":3,"long_form":1,"trial_type":"mars","trial_index":35,"time_elapsed":388377,"internal_node_id":"0.0-22.0-2.0","experiment":"validation-B","task_version":"2.0","jspsych_version":"6.3.1","browser_interactions":0},{"rt":null,"stimulus":"<div style=\"font-size:24px;\">Loading puzzle:<br>15 / 24</div>","response":null,"trial_type":"html-keyboard-response","trial_index":36,"time_elapsed":389578,"internal_node_id":"0.0-23.0-1.0","experiment":"validation-B","task_version":"2.0","jspsych_version":"6.3.1"},{"item":73,"shape_set":2,"distractor":"pd","choice_order":[1,0,3,2],"correct":0,"choice":0,"accuracy":1,"rt":25717.299999999814,"screen_resolution":[1920,1080],"minimum_resolution":1,"all_loaded":true,"item_set":3,"long_form":1,"trial_type":"mars","trial_index":37,"time_elapsed":415296,"internal_node_id":"0.0-23.0-2.0","experiment":"validation-B","task_version":"2.0","jspsych_version":"6.3.1","browser_interactions":0},{"rt":null,"stimulus":"<div style=\"font-size:24px;\">Loading puzzle:<br>16 / 24</div>","response":null,"trial_type":"html-keyboard-response","trial_index":38,"time_elapsed":416499,"internal_node_id":"0.0-24.0-1.0","experiment":"validation-B","task_version":"2.0","jspsych_version":"6.3.1"},{"item":36,"shape_set":3,"distractor":"pd","choice_order":[2,3,1,0],"correct":0,"choice":1,"accuracy":0,"rt":29572.200000000186,"screen_resolution":[1920,1080],"minimum_resolution":1,"all_loaded":true,"item_set":3,"long_form":1,"trial_type":"mars","trial_index":39,"time_elapsed":446071,"internal_node_id":"0.0-24.0-2.0","experiment":"validation-B","task_version":"2.0","jspsych_version":"6.3.1","browser_interactions":0},{"rt":null,"stimulus":"<div style=\"font-size:24px;\">Loading puzzle:<br>17 / 24</div>","response":null,"trial_type":"html-keyboard-response","trial_index":40,"time_elapsed":447272,"internal_node_id":"0.0-25.0-1.0","experiment":"validation-B","task_version":"2.0","jspsych_version":"6.3.1"},{"item":63,"shape_set":3,"distractor":"pd","choice_order":[0,1,3,2],"correct":0,"choice":3,"accuracy":0,"rt":28190.299999999814,"screen_resolution":[1920,1080],"minimum_resolution":1,"all_loaded":true,"item_set":3,"long_form":1,"trial_type":"mars","trial_index":41,"time_elapsed":475463,"internal_node_id":"0.0-25.0-2.0","experiment":"validation-B","task_version":"2.0","jspsych_version":"6.3.1","browser_interactions":0},{"rt":null,"stimulus":"<div style=\"font-size:24px;\">Loading puzzle:<br>18 / 24</div>","response":null,"trial_type":"html-keyboard-response","trial_index":42,"time_elapsed":476664,"internal_node_id":"0.0-26.0-1.0","experiment":"validation-B","task_version":"2.0","jspsych_version":"6.3.1"},{"item":75,"shape_set":2,"distractor":"pd","choice_order":[1,0,2,3],"correct":0,"choice":3,"accuracy":0,"rt":18342.5,"screen_resolution":[1920,1080],"minimum_resolution":1,"all_loaded":true,"item_set":3,"long_form":1,"trial_type":"mars","trial_index":43,"time_elapsed":495007,"internal_node_id":"0.0-26.0-2.0","experiment":"validation-B","task_version":"2.0","jspsych_version":"6.3.1","browser_interactions":0},{"rt":null,"stimulus":"<div style=\"font-size:24px;\">Loading puzzle:<br>19 / 24</div>","response":null,"trial_type":"html-keyboard-response","trial_index":44,"time_elapsed":496209,"internal_node_id":"0.0-27.0-1.0","experiment":"validation-B","task_version":"2.0","jspsych_version":"6.3.1"},{"item":74,"shape_set":3,"distractor":"pd","choice_order":[1,2,3,0],"correct":0,"choice":1,"accuracy":0,"rt":27516.799999999814,"screen_resolution":[1920,1080],"minimum_resolution":1,"all_loaded":true,"item_set":3,"long_form":1,"trial_type":"mars","trial_index":45,"time_elapsed":523726,"internal_node_id":"0.0-27.0-2.0","experiment":"validation-B","task_version":"2.0","jspsych_version":"6.3.1","browser_interactions":0},{"rt":null,"stimulus":"<div style=\"font-size:24px;\">Loading puzzle:<br>20 / 24</div>","response":null,"trial_type":"html-keyboard-response","trial_index":46,"time_elapsed":524931,"internal_node_id":"0.0-28.0-1.0","experiment":"validation-B","task_version":"2.0","jspsych_version":"6.3.1"},{"item":76,"shape_set":1,"distractor":"pd","choice_order":[1,0,3,2],"correct":0,"choice":1,"accuracy":0,"rt":23866.299999999814,"screen_resolution":[1920,1080],"minimum_resolution":1,"all_loaded":true,"item_set":3,"long_form":1,"trial_type":"mars","trial_index":47,"time_elapsed":548798,"internal_node_id":"0.0-28.0-2.0","experiment":"validation-B","task_version":"2.0","jspsych_version":"6.3.1","browser_interactions":0},{"rt":null,"stimulus":"<div style=\"font-size:24px;\">Loading puzzle:<br>21 / 24</div>","response":null,"trial_type":"html-keyboard-response","trial_index":48,"time_elapsed":549999,"internal_node_id":"0.0-29.0-1.0","experiment":"validation-B","task_version":"2.0","jspsych_version":"6.3.1"},{"item":80,"shape_set":2,"distractor":"pd","choice_order":[0,3,2,1],"correct":0,"choice":1,"accuracy":0,"rt":21638.400000000373,"screen_resolution":[1920,1080],"minimum_resolution":1,"all_loaded":true,"item_set":3,"long_form":1,"trial_type":"mars","trial_index":49,"time_elapsed":571637,"internal_node_id":"0.0-29.0-2.0","experiment":"validation-B","task_version":"2.0","jspsych_version":"6.3.1","browser_interactions":0},{"rt":null,"stimulus":"<div style=\"font-size:24px;\">Loading puzzle:<br>22 / 24</div>","response":null,"trial_type":"html-keyboard-response","trial_index":50,"time_elapsed":572839,"internal_node_id":"0.0-30.0-1.0","experiment":"validation-B","task_version":"2.0","jspsych_version":"6.3.1"},{"item":66,"shape_set":2,"distractor":"pd","choice_order":[2,3,1,0],"correct":0,"choice":0,"accuracy":1,"rt":26910.099999999627,"screen_resolution":[1920,1080],"minimum_resolution":1,"all_loaded":true,"item_set":3,"long_form":1,"trial_type":"mars","trial_index":51,"time_elapsed":599749,"internal_node_id":"0.0-30.0-2.0","experiment":"validation-B","task_version":"2.0","jspsych_version":"6.3.1","browser_interactions":0},{"rt":null,"stimulus":"<div style=\"font-size:24px;\">Loading puzzle:<br>23 / 24</div>","response":null,"trial_type":"html-keyboard-response","trial_index":52,"time_elapsed":600952,"internal_node_id":"0.0-31.0-1.0","experiment":"validation-B","task_version":"2.0","jspsych_version":"6.3.1"},{"item":21,"shape_set":1,"distractor":"pd","choice_order":[1,0,2,3],"correct":0,"choice":null,"accuracy":null,"rt":null,"screen_resolution":[1920,1080],"minimum_resolution":1,"all_loaded":true,"item_set":3,"long_form":1,"trial_type":"mars","trial_index":53,"time_elapsed":630952,"internal_node_id":"0.0-31.0-2.0","experiment":"validation-B","task_version":"2.0","jspsych_version":"6.3.1","browser_interactions":0},{"rt":null,"stimulus":"<div style=\"font-size:24px;\">Loading puzzle:<br>24 / 24</div>","response":null,"trial_type":"html-keyboard-response","trial_index":54,"time_elapsed":632154,"internal_node_id":"0.0-32.0-1.0","experiment":"validation-B","task_version":"2.0","jspsych_version":"6.3.1"},{"item":78,"shape_set":1,"distractor":"pd","choice_order":[3,1,2,0],"correct":0,"choice":1,"accuracy":0,"rt":20946.200000000186,"screen_resolution":[1920,1080],"minimum_resolution":1,"all_loaded":true,"item_set":3,"long_form":1,"trial_type":"mars","trial_index":55,"time_elapsed":653100,"internal_node_id":"0.0-32.0-2.0","experiment":"validation-B","task_version":"2.0","jspsych_version":"6.3.1","browser_interactions":0},{"value":[0,3,0],"trial_type":"call-function","trial_index":56,"time_elapsed":653101,"internal_node_id":"0.0-33.0","experiment":"validation-B","task_version":"2.0","jspsych_version":"6.3.1","interactions":"[{\"event\":\"fullscreenenter\",\"trial\":1,\"time\":5372}]"}]