[{"view_history":[{"page_index":0,"viewing_time":1591.3999999761581}],"rt":1592.2000000476837,"trial_type":"instructions","trial_index":0,"time_elapsed":1608,"internal_node_id":"0.0-0.0","experiment":"validation","task_version":"2.0","jspsych_version":"6.3.1"},{"rt":33540.5,"responses":{"age":"31","gender-categorical":"Female","gender-free-response":"","ethnicity":"Rather not say","race":["White"],"education":"Associate degree"},"survey":"demographics","trial_type":"survey-demo","trial_index":1,"time_elapsed":35152,"internal_node_id":"0.0-1.0","experiment":"validation","task_version":"2.0","jspsych_version":"6.3.1"},{"responses":{"Q01":"3","Q04":"3","Q09":"4","Q07":"4","Q03":"2","Q08":"3","Q06":"3","Q02":"4","Q05":"3"},"rt":27818.600000023842,"item_order":[0,3,8,6,2,7,5,1,4],"radio_events":[6439,7591.200000047684,9633.700000047684,12187.899999976158,15963,19517.700000047684,22511.200000047684,24733,27024.799999952316],"key_events":[],"mouse_events":[3895.5,5057.600000023842,6439,7591.200000047684,9633.700000047684,11755.600000023842,12187.899999976158,14999.600000023842,15591,15963,19055.100000023842,19517.700000047684,22018.799999952316,22511.200000047684,24733,27024.799999952316,27817.200000047684],"straightlining":0.5555555555555556,"zigzagging":0.5,"honeypot":0,"survey":"pcf","trial_type":"survey-template","trial_index":2,"time_elapsed":62979,"internal_node_id":"0.0-2.0","experiment":"validation","task_version":"2.0","jspsych_version":"6.3.1","infrequency":0},{"rt":35578.89999997616,"response":{"Q4":2,"Q5":4,"Q0":1,"Q2":0,"Q6":1,"Q8":0,"Q7":4,"Q1":1,"Q3":3},"question_order":[4,5,0,2,6,8,7,1,3],"survey":"sns","trial_type":"survey-likert","trial_index":3,"time_elapsed":98566,"internal_node_id":"0.0-3.0","experiment":"validation","task_version":"2.0","jspsych_version":"6.3.1","infrequency":0},{"responses":{"Q03":"1","Q11":"0","Q09":"0","Q04":"2","Q05":"2","Q07":"1","Q10":"2","Q01":"1","Q02":"1","Q08":"3","Q06":"2"},"rt":54051.199999928474,"item_order":[2,10,8,3,4,6,9,0,1,7,5],"radio_events":[3906.7999999523163,31045.399999976158,32357.199999928474,35148.799999952316,36661.09999990463,41265,44088.89999997616,45300.799999952316,46284.699999928474,49091.5,51304.89999997616,53137.39999997616],"key_events":[],"mouse_events":[2855,3906.7999999523163,29842.599999904633,30512.899999976158,31045.399999976158,32357.199999928474,35148.799999952316,36661.09999990463,40792.89999997616,41265,43656.799999952316,44088.89999997616,45300.799999952316,45903.09999990463,46284.699999928474,48167.09999990463,48628.799999952316,49091.5,50635.89999997616,51304.89999997616,53137.39999997616,54049.09999990463],"straightlining":0.36363636363636365,"zigzagging":0.4,"honeypot":0,"survey":"nfc10","trial_type":"survey-template","trial_index":4,"time_elapsed":152624,"internal_node_id":"0.0-4.0","experiment":"validation","task_version":"2.0","jspsych_version":"6.3.1","infrequency":0},{"value":0,"trial_type":"call-function","trial_index":5,"time_elapsed":152630,"internal_node_id":"0.0-5.0","experiment":"validation","task_version":"2.0","jspsych_version":"6.3.1","interactions":"[{\"event\":\"blur\",\"trial\":1,\"time\":4506},{\"event\":\"focus\",\"trial\":1,\"time\":28242},{\"event\":\"blur\",\"trial\":4,\"time\":114980},{\"event\":\"focus\",\"trial\":4,\"time\":128267}]"}]