[{"view_history":[{"page_index":0,"viewing_time":1669.8999999761581}],"rt":1670.199999988079,"trial_type":"instructions","trial_index":0,"time_elapsed":1678,"internal_node_id":"0.0-0.0","experiment":"validation","task_version":"2.0","jspsych_version":"6.3.1"},{"rt":11116,"responses":{"age":"34","gender-categorical":"Female","gender-free-response":"","ethnicity":"Not Hispanic or Latino","race":["White"],"education":"Associate degree"},"survey":"demographics","trial_type":"survey-demo","trial_index":1,"time_elapsed":12797,"internal_node_id":"0.0-1.0","experiment":"validation","task_version":"2.0","jspsych_version":"6.3.1"},{"responses":{"Q08":"2","Q03":"3","Q04":"3","Q05":"3","Q09":"4","Q06":"4","Q02":"4","Q07":"4","Q01":"3"},"rt":33783.5,"item_order":[7,2,3,4,8,5,1,6,0],"radio_events":[8163.5,10749.5,12896.900000035763,14132.699999988079,15549.100000023842,18867.80000001192,25717.600000023842,27046.400000035763,28519.100000023842,31751.600000023842,32815.80000001192],"key_events":[],"mouse_events":[4497.900000035763,5196.900000035763,5834.900000035763,7500,8163.5,10749.5,12896.900000035763,13594.300000011921,14132.699999988079,15549.100000023842,16366.699999988079,17345.5,18328.69999998808,18867.80000001192,25717.600000023842,26618.100000023842,27046.400000035763,28152.30000001192,28519.100000023842,29331.5,29901.30000001192,30825.30000001192,31204.100000023842,31751.600000023842,32815.80000001192,33782.40000003576],"straightlining":0.4444444444444444,"zigzagging":0.375,"honeypot":0,"survey":"pcf","trial_type":"survey-template","trial_index":2,"time_elapsed":46586,"internal_node_id":"0.0-2.0","experiment":"validation","task_version":"2.0","jspsych_version":"6.3.1","infrequency":0},{"rt":31282.399999976158,"response":{"Q7":4,"Q0":2,"Q3":5,"Q8":0,"Q6":0,"Q2":5,"Q1":5,"Q5":3,"Q4":2},"question_order":[7,0,3,8,6,2,1,5,4],"survey":"sns","trial_type":"survey-likert","trial_index":3,"time_elapsed":77874,"internal_node_id":"0.0-3.0","experiment":"validation","task_version":"2.0","jspsych_version":"6.3.1","infrequency":0},{"responses":{"Q08":"1","Q03":"2","Q07":"1","Q04":"1","Q11":"0","Q06":"1","Q09":"0","Q01":"0","Q02":"0","Q10":"0","Q05":"1"},"rt":498363.5,"item_order":[7,2,6,3,10,5,8,0,1,9,4],"radio_events":[472909,474140.5,474906.60000002384,476374.3000000119,478548.3000000119,481886.40000003576,485522.5,490876.60000002384,491647.90000003576,492622.10000002384,495344.60000002384,497144.8000000119],"key_events":[],"mouse_events":[463514.90000003576,464095.60000002384,464657.90000003576,465411.8000000119,471617.1999999881,471784.60000002384,472426.40000003576,472909,474140.5,474906.60000002384,475912.5,476374.3000000119,477021.90000003576,477546.5,478548.3000000119,481255.5,481886.40000003576,484640.10000002384,485220.10000002384,485522.5,487524.5,488069.6999999881,489329.5,490293.90000003576,490876.60000002384,491647.90000003576,492622.10000002384,493589.5,493839.1999999881,494571.40000003576,495344.60000002384,496797.10000002384,497144.8000000119,498362.10000002384],"straightlining":0.45454545454545453,"zigzagging":0.4,"honeypot":0,"survey":"nfc10","trial_type":"survey-template","trial_index":4,"time_elapsed":576243,"internal_node_id":"0.0-4.0","experiment":"validation","task_version":"2.0","jspsych_version":"6.3.1","infrequency":0},{"value":0,"trial_type":"call-function","trial_index":5,"time_elapsed":576247,"internal_node_id":"0.0-5.0","experiment":"validation","task_version":"2.0","jspsych_version":"6.3.1","interactions":"[{\"event\":\"blur\",\"trial\":4,\"time\":80791},{\"event\":\"focus\",\"trial\":4,\"time\":540029},{\"event\":\"blur\",\"trial\":4,\"time\":544763},{\"event\":\"focus\",\"trial\":4,\"time\":546945}]"}]