[{"success":true,"timeout":false,"failed_images":[],"failed_audio":[],"failed_video":[],"trial_type":"preload","trial_index":0,"time_elapsed":2984,"internal_node_id":"0.0-0.0","experiment":"validation-B","task_version":"2.0","jspsych_version":"6.3.1"},{"success":true,"trial_type":"fullscreen","trial_index":1,"time_elapsed":5641,"internal_node_id":"0.0-1.0","experiment":"validation-B","task_version":"2.0","jspsych_version":"6.3.1"},{"view_history":[{"page_index":0,"viewing_time":1066.7000000178814},{"page_index":1,"viewing_time":7006.799999982119},{"page_index":2,"viewing_time":2752.2000000178814},{"page_index":3,"viewing_time":1135.2999999821186}],"rt":11963.300000011921,"trial_type":"instructions","trial_index":2,"time_elapsed":17610,"internal_node_id":"0.0-3.0","experiment":"validation-B","task_version":"2.0","jspsych_version":"6.3.1"},{"item":5,"shape_set":1,"distractor":"pd","choice_order":[1,0,2,3],"correct":0,"choice":0,"accuracy":1,"rt":3427.699999988079,"screen_resolution":[1366,768],"minimum_resolution":1,"all_loaded":true,"item_set":"practice","trial_type":"mars","trial_index":3,"time_elapsed":21802,"internal_node_id":"0.0-4.0-0.0","experiment":"validation-B","task_version":"2.0","jspsych_version":"6.3.1"},{"item":2,"shape_set":1,"distractor":"pd","choice_order":[2,1,0,3],"correct":0,"choice":0,"accuracy":1,"rt":2499,"screen_resolution":[1366,768],"minimum_resolution":1,"all_loaded":true,"item_set":"practice","trial_type":"mars","trial_index":4,"time_elapsed":25070,"internal_node_id":"0.0-5.0-0.0","experiment":"validation-B","task_version":"2.0","jspsych_version":"6.3.1"},{"item":8,"shape_set":1,"distractor":"pd","choice_order":[1,3,2,0],"correct":0,"choice":0,"accuracy":1,"rt":6202.5,"screen_resolution":[1366,768],"minimum_resolution":1,"all_loaded":true,"item_set":"practice","trial_type":"mars","trial_index":5,"time_elapsed":32036,"internal_node_id":"0.0-6.0-0.0","experiment":"validation-B","task_version":"2.0","jspsych_version":"6.3.1"},{"view_history":[{"page_index":0,"viewing_time":1153.5},{"page_index":1,"viewing_time":8676.09999999404}],"rt":9830.300000011921,"trial_type":"instructions","trial_index":6,"time_elapsed":41873,"internal_node_id":"0.0-7.0","experiment":"validation-B","task_version":"2.0","jspsych_version":"6.3.1"},{"rt":null,"stimulus":"<div style=\"font-size:24px;\">Loading puzzle:<br>1 / 24</div>","response":null,"trial_type":"html-keyboard-response","trial_index":7,"time_elapsed":43086,"internal_node_id":"0.0-8.0-1.0","experiment":"validation-B","task_version":"2.0","jspsych_version":"6.3.1"},{"item":45,"shape_set":1,"distractor":"pd","choice_order":[3,2,0,1],"correct":0,"choice":0,"accuracy":1,"rt":15345.799999982119,"screen_resolution":[1366,768],"minimum_resolution":1,"all_loaded":true,"item_set":3,"long_form":2,"trial_type":"mars","trial_index":8,"time_elapsed":58439,"internal_node_id":"0.0-8.0-2.0","experiment":"validation-B","task_version":"2.0","jspsych_version":"6.3.1","browser_interactions":0},{"rt":null,"stimulus":"<div style=\"font-size:24px;\">Loading puzzle:<br>2 / 24</div>","response":null,"trial_type":"html-keyboard-response","trial_index":9,"time_elapsed":59650,"internal_node_id":"0.0-9.0-1.0","experiment":"validation-B","task_version":"2.0","jspsych_version":"6.3.1"},{"item":30,"shape_set":1,"distractor":"pd","choice_order":[3,1,0,2],"correct":0,"choice":0,"accuracy":1,"rt":20750.29999998212,"screen_resolution":[1366,768],"minimum_resolution":1,"all_loaded":true,"item_set":3,"long_form":2,"trial_type":"mars","trial_index":10,"time_elapsed":80404,"internal_node_id":"0.0-9.0-2.0","experiment":"validation-B","task_version":"2.0","jspsych_version":"6.3.1","browser_interactions":0},{"rt":null,"stimulus":"<div style=\"font-size:24px;\">Loading puzzle:<br>3 / 24</div>","response":null,"trial_type":"html-keyboard-response","trial_index":11,"time_elapsed":81624,"internal_node_id":"0.0-10.0-1.0","experiment":"validation-B","task_version":"2.0","jspsych_version":"6.3.1"},{"item":55,"shape_set":3,"distractor":"pd","choice_order":[2,0,3,1],"correct":0,"choice":2,"accuracy":0,"rt":29375.59999999404,"screen_resolution":[1366,768],"minimum_resolution":1,"all_loaded":true,"item_set":3,"long_form":2,"trial_type":"mars","trial_index":12,"time_elapsed":111005,"internal_node_id":"0.0-10.0-2.0","experiment":"validation-B","task_version":"2.0","jspsych_version":"6.3.1","browser_interactions":0},{"rt":null,"stimulus":"<div style=\"font-size:24px;\">Loading puzzle:<br>4 / 24</div>","response":null,"trial_type":"html-keyboard-response","trial_index":13,"time_elapsed":112217,"internal_node_id":"0.0-11.0-1.0","experiment":"validation-B","task_version":"2.0","jspsych_version":"6.3.1"},{"item":58,"shape_set":2,"distractor":"md","choice_order":[3,2,1,0],"correct":0,"choice":0,"accuracy":1,"rt":25894,"screen_resolution":[1366,768],"minimum_resolution":1,"all_loaded":true,"item_set":3,"long_form":2,"trial_type":"mars","trial_index":14,"time_elapsed":138120,"internal_node_id":"0.0-11.0-2.0","experiment":"validation-B","task_version":"2.0","jspsych_version":"6.3.1","browser_interactions":0},{"rt":null,"stimulus":"<div style=\"font-size:24px;\">Loading puzzle:<br>5 / 24</div>","response":null,"trial_type":"html-keyboard-response","trial_index":15,"time_elapsed":139326,"internal_node_id":"0.0-12.0-1.0","experiment":"validation-B","task_version":"2.0","jspsych_version":"6.3.1"},{"item":42,"shape_set":1,"distractor":"pd","choice_order":[1,3,2,0],"correct":0,"choice":null,"accuracy":null,"rt":null,"screen_resolution":[1366,768],"minimum_resolution":1,"all_loaded":true,"item_set":3,"long_form":2,"trial_type":"mars","trial_index":16,"time_elapsed":169346,"internal_node_id":"0.0-12.0-2.0","experiment":"validation-B","task_version":"2.0","jspsych_version":"6.3.1","browser_interactions":0},{"rt":null,"stimulus":"<div style=\"font-size:24px;\">Loading puzzle:<br>6 / 24</div>","response":null,"trial_type":"html-keyboard-response","trial_index":17,"time_elapsed":170552,"internal_node_id":"0.0-13.0-1.0","experiment":"validation-B","task_version":"2.0","jspsych_version":"6.3.1"},{"item":52,"shape_set":2,"distractor":"pd","choice_order":[1,2,0,3],"correct":0,"choice":0,"accuracy":1,"rt":29243.69999998808,"screen_resolution":[1366,768],"minimum_resolution":1,"all_loaded":true,"item_set":3,"long_form":2,"trial_type":"mars","trial_index":18,"time_elapsed":199797,"internal_node_id":"0.0-13.0-2.0","experiment":"validation-B","task_version":"2.0","jspsych_version":"6.3.1","browser_interactions":0},{"rt":null,"stimulus":"<div style=\"font-size:24px;\">Loading puzzle:<br>7 / 24</div>","response":null,"trial_type":"html-keyboard-response","trial_index":19,"time_elapsed":201006,"internal_node_id":"0.0-14.0-1.0","experiment":"validation-B","task_version":"2.0","jspsych_version":"6.3.1"},{"item":29,"shape_set":3,"distractor":"pd","choice_order":[2,3,0,1],"correct":0,"choice":0,"accuracy":1,"rt":26993.29999998212,"screen_resolution":[1366,768],"minimum_resolution":1,"all_loaded":true,"item_set":3,"long_form":2,"trial_type":"mars","trial_index":20,"time_elapsed":228004,"internal_node_id":"0.0-14.0-2.0","experiment":"validation-B","task_version":"2.0","jspsych_version":"6.3.1","browser_interactions":0},{"rt":null,"stimulus":"<div style=\"font-size:24px;\">Loading puzzle:<br>8 / 24</div>","response":null,"trial_type":"html-keyboard-response","trial_index":21,"time_elapsed":229210,"internal_node_id":"0.0-15.0-1.0","experiment":"validation-B","task_version":"2.0","jspsych_version":"6.3.1"},{"item":24,"shape_set":1,"distractor":"pd","choice_order":[0,2,1,3],"correct":0,"choice":3,"accuracy":0,"rt":21458.90000000596,"screen_resolution":[1366,768],"minimum_resolution":1,"all_loaded":true,"item_set":3,"long_form":2,"trial_type":"mars","trial_index":22,"time_elapsed":250670,"internal_node_id":"0.0-15.0-2.0","experiment":"validation-B","task_version":"2.0","jspsych_version":"6.3.1","browser_interactions":0},{"rt":null,"stimulus":"<div style=\"font-size:24px;\">Loading puzzle:<br>9 / 24</div>","response":null,"trial_type":"html-keyboard-response","trial_index":23,"time_elapsed":251877,"internal_node_id":"0.0-16.0-1.0","experiment":"validation-B","task_version":"2.0","jspsych_version":"6.3.1"},{"item":17,"shape_set":2,"distractor":"pd","choice_order":[0,1,2,3],"correct":0,"choice":0,"accuracy":1,"rt":27938,"screen_resolution":[1366,768],"minimum_resolution":1,"all_loaded":true,"item_set":3,"long_form":2,"trial_type":"mars","trial_index":24,"time_elapsed":279820,"internal_node_id":"0.0-16.0-2.0","experiment":"validation-B","task_version":"2.0","jspsych_version":"6.3.1","browser_interactions":0},{"rt":null,"stimulus":"<div style=\"font-size:24px;\">Loading puzzle:<br>10 / 24</div>","response":null,"trial_type":"html-keyboard-response","trial_index":25,"time_elapsed":281032,"internal_node_id":"0.0-17.0-1.0","experiment":"validation-B","task_version":"2.0","jspsych_version":"6.3.1"},{"item":76,"shape_set":2,"distractor":"pd","choice_order":[3,2,0,1],"correct":0,"choice":0,"accuracy":1,"rt":28608,"screen_resolution":[1366,768],"minimum_resolution":1,"all_loaded":true,"item_set":3,"long_form":2,"trial_type":"mars","trial_index":26,"time_elapsed":309650,"internal_node_id":"0.0-17.0-2.0","experiment":"validation-B","task_version":"2.0","jspsych_version":"6.3.1","browser_interactions":0},{"rt":null,"stimulus":"<div style=\"font-size:24px;\">Loading puzzle:<br>11 / 24</div>","response":null,"trial_type":"html-keyboard-response","trial_index":27,"time_elapsed":310867,"internal_node_id":"0.0-18.0-1.0","experiment":"validation-B","task_version":"2.0","jspsych_version":"6.3.1"},{"item":75,"shape_set":3,"distractor":"pd","choice_order":[2,1,0,3],"correct":0,"choice":2,"accuracy":0,"rt":27243.59999999404,"screen_resolution":[1366,768],"minimum_resolution":1,"all_loaded":true,"item_set":3,"long_form":2,"trial_type":"mars","trial_index":28,"time_elapsed":338114,"internal_node_id":"0.0-18.0-2.0","experiment":"validation-B","task_version":"2.0","jspsych_version":"6.3.1","browser_interactions":0},{"rt":null,"stimulus":"<div style=\"font-size:24px;\">Loading puzzle:<br>12 / 24</div>","response":null,"trial_type":"html-keyboard-response","trial_index":29,"time_elapsed":339326,"internal_node_id":"0.0-19.0-1.0","experiment":"validation-B","task_version":"2.0","jspsych_version":"6.3.1"},{"item":72,"shape_set":2,"distractor":"pd","choice_order":[0,1,3,2],"correct":0,"choice":0,"accuracy":1,"rt":27560.80000001192,"screen_resolution":[1366,768],"minimum_resolution":1,"all_loaded":true,"item_set":3,"long_form":2,"trial_type":"mars","trial_index":30,"time_elapsed":366888,"internal_node_id":"0.0-19.0-2.0","experiment":"validation-B","task_version":"2.0","jspsych_version":"6.3.1","browser_interactions":0},{"view_history":[{"page_index":0,"viewing_time":3583.0999999940395},{"page_index":1,"viewing_time":1264}],"rt":4849.199999988079,"trial_type":"instructions","trial_index":31,"time_elapsed":371740,"internal_node_id":"0.0-20.0","experiment":"validation-B","task_version":"2.0","jspsych_version":"6.3.1"},{"rt":null,"stimulus":"<div style=\"font-size:24px;\">Loading puzzle:<br>13 / 24</div>","response":null,"trial_type":"html-keyboard-response","trial_index":32,"time_elapsed":372959,"internal_node_id":"0.0-21.0-1.0","experiment":"validation-B","task_version":"2.0","jspsych_version":"6.3.1"},{"item":35,"shape_set":2,"distractor":"pd","choice_order":[2,1,0,3],"correct":0,"choice":0,"accuracy":1,"rt":24722.40000000596,"screen_resolution":[1366,768],"minimum_resolution":1,"all_loaded":true,"item_set":3,"long_form":2,"trial_type":"mars","trial_index":33,"time_elapsed":397685,"internal_node_id":"0.0-21.0-2.0","experiment":"validation-B","task_version":"2.0","jspsych_version":"6.3.1","browser_interactions":0},{"rt":null,"stimulus":"<div style=\"font-size:24px;\">Loading puzzle:<br>14 / 24</div>","response":null,"trial_type":"html-keyboard-response","trial_index":34,"time_elapsed":398891,"internal_node_id":"0.0-22.0-1.0","experiment":"validation-B","task_version":"2.0","jspsych_version":"6.3.1"},{"item":36,"shape_set":1,"distractor":"pd","choice_order":[2,1,0,3],"correct":0,"choice":3,"accuracy":0,"rt":17875.19999998808,"screen_resolution":[1366,768],"minimum_resolution":1,"all_loaded":true,"item_set":3,"long_form":2,"trial_type":"mars","trial_index":35,"time_elapsed":416772,"internal_node_id":"0.0-22.0-2.0","experiment":"validation-B","task_version":"2.0","jspsych_version":"6.3.1","browser_interactions":0},{"rt":null,"stimulus":"<div style=\"font-size:24px;\">Loading puzzle:<br>15 / 24</div>","response":null,"trial_type":"html-keyboard-response","trial_index":36,"time_elapsed":417977,"internal_node_id":"0.0-23.0-1.0","experiment":"validation-B","task_version":"2.0","jspsych_version":"6.3.1"},{"item":64,"shape_set":3,"distractor":"pd","choice_order":[2,3,1,0],"correct":0,"choice":1,"accuracy":0,"rt":28192.19999998808,"screen_resolution":[1366,768],"minimum_resolution":1,"all_loaded":true,"item_set":3,"long_form":2,"trial_type":"mars","trial_index":37,"time_elapsed":446175,"internal_node_id":"0.0-23.0-2.0","experiment":"validation-B","task_version":"2.0","jspsych_version":"6.3.1","browser_interactions":0},{"rt":null,"stimulus":"<div style=\"font-size:24px;\">Loading puzzle:<br>16 / 24</div>","response":null,"trial_type":"html-keyboard-response","trial_index":38,"time_elapsed":447378,"internal_node_id":"0.0-24.0-1.0","experiment":"validation-B","task_version":"2.0","jspsych_version":"6.3.1"},{"item":80,"shape_set":1,"distractor":"pd","choice_order":[1,0,2,3],"correct":0,"choice":0,"accuracy":1,"rt":27019.69999998808,"screen_resolution":[1366,768],"minimum_resolution":1,"all_loaded":true,"item_set":3,"long_form":2,"trial_type":"mars","trial_index":39,"time_elapsed":474402,"internal_node_id":"0.0-24.0-2.0","experiment":"validation-B","task_version":"2.0","jspsych_version":"6.3.1","browser_interactions":0},{"rt":null,"stimulus":"<div style=\"font-size:24px;\">Loading puzzle:<br>17 / 24</div>","response":null,"trial_type":"html-keyboard-response","trial_index":40,"time_elapsed":475616,"internal_node_id":"0.0-25.0-1.0","experiment":"validation-B","task_version":"2.0","jspsych_version":"6.3.1"},{"item":74,"shape_set":1,"distractor":"pd","choice_order":[3,0,2,1],"correct":0,"choice":0,"accuracy":1,"rt":29384.29999998212,"screen_resolution":[1366,768],"minimum_resolution":1,"all_loaded":true,"item_set":3,"long_form":2,"trial_type":"mars","trial_index":41,"time_elapsed":505006,"internal_node_id":"0.0-25.0-2.0","experiment":"validation-B","task_version":"2.0","jspsych_version":"6.3.1","browser_interactions":0},{"rt":null,"stimulus":"<div style=\"font-size:24px;\">Loading puzzle:<br>18 / 24</div>","response":null,"trial_type":"html-keyboard-response","trial_index":42,"time_elapsed":506215,"internal_node_id":"0.0-26.0-1.0","experiment":"validation-B","task_version":"2.0","jspsych_version":"6.3.1"},{"item":46,"shape_set":2,"distractor":"pd","choice_order":[3,2,1,0],"correct":0,"choice":3,"accuracy":0,"rt":27511.69999998808,"screen_resolution":[1366,768],"minimum_resolution":1,"all_loaded":true,"item_set":3,"long_form":2,"trial_type":"mars","trial_index":43,"time_elapsed":533730,"internal_node_id":"0.0-26.0-2.0","experiment":"validation-B","task_version":"2.0","jspsych_version":"6.3.1","browser_interactions":0},{"rt":null,"stimulus":"<div style=\"font-size:24px;\">Loading puzzle:<br>19 / 24</div>","response":null,"trial_type":"html-keyboard-response","trial_index":44,"time_elapsed":534947,"internal_node_id":"0.0-27.0-1.0","experiment":"validation-B","task_version":"2.0","jspsych_version":"6.3.1"},{"item":59,"shape_set":2,"distractor":"pd","choice_order":[2,3,0,1],"correct":0,"choice":0,"accuracy":1,"rt":22250.90000000596,"screen_resolution":[1366,768],"minimum_resolution":1,"all_loaded":true,"item_set":3,"long_form":2,"trial_type":"mars","trial_index":45,"time_elapsed":557199,"internal_node_id":"0.0-27.0-2.0","experiment":"validation-B","task_version":"2.0","jspsych_version":"6.3.1","browser_interactions":0},{"rt":null,"stimulus":"<div style=\"font-size:24px;\">Loading puzzle:<br>20 / 24</div>","response":null,"trial_type":"html-keyboard-response","trial_index":46,"time_elapsed":558404,"internal_node_id":"0.0-28.0-1.0","experiment":"validation-B","task_version":"2.0","jspsych_version":"6.3.1"},{"item":66,"shape_set":3,"distractor":"pd","choice_order":[3,1,2,0],"correct":0,"choice":1,"accuracy":0,"rt":25849.69999998808,"screen_resolution":[1366,768],"minimum_resolution":1,"all_loaded":true,"item_set":3,"long_form":2,"trial_type":"mars","trial_index":47,"time_elapsed":584257,"internal_node_id":"0.0-28.0-2.0","experiment":"validation-B","task_version":"2.0","jspsych_version":"6.3.1","browser_interactions":0},{"rt":null,"stimulus":"<div style=\"font-size:24px;\">Loading puzzle:<br>21 / 24</div>","response":null,"trial_type":"html-keyboard-response","trial_index":48,"time_elapsed":585467,"internal_node_id":"0.0-29.0-1.0","experiment":"validation-B","task_version":"2.0","jspsych_version":"6.3.1"},{"item":63,"shape_set":1,"distractor":"pd","choice_order":[3,0,2,1],"correct":0,"choice":1,"accuracy":0,"rt":25766.90000000596,"screen_resolution":[1366,768],"minimum_resolution":1,"all_loaded":true,"item_set":3,"long_form":2,"trial_type":"mars","trial_index":49,"time_elapsed":611242,"internal_node_id":"0.0-29.0-2.0","experiment":"validation-B","task_version":"2.0","jspsych_version":"6.3.1","browser_interactions":0},{"rt":null,"stimulus":"<div style=\"font-size:24px;\">Loading puzzle:<br>22 / 24</div>","response":null,"trial_type":"html-keyboard-response","trial_index":50,"time_elapsed":612456,"internal_node_id":"0.0-30.0-1.0","experiment":"validation-B","task_version":"2.0","jspsych_version":"6.3.1"},{"item":21,"shape_set":3,"distractor":"pd","choice_order":[1,3,2,0],"correct":0,"choice":3,"accuracy":0,"rt":27113.30000001192,"screen_resolution":[1366,768],"minimum_resolution":1,"all_loaded":true,"item_set":3,"long_form":2,"trial_type":"mars","trial_index":51,"time_elapsed":639575,"internal_node_id":"0.0-30.0-2.0","experiment":"validation-B","task_version":"2.0","jspsych_version":"6.3.1","browser_interactions":0},{"rt":null,"stimulus":"<div style=\"font-size:24px;\">Loading puzzle:<br>23 / 24</div>","response":null,"trial_type":"html-keyboard-response","trial_index":52,"time_elapsed":640785,"internal_node_id":"0.0-31.0-1.0","experiment":"validation-B","task_version":"2.0","jspsych_version":"6.3.1"},{"item":78,"shape_set":3,"distractor":"pd","choice_order":[1,2,0,3],"correct":0,"choice":3,"accuracy":0,"rt":8145.100000023842,"screen_resolution":[1366,768],"minimum_resolution":1,"all_loaded":true,"item_set":3,"long_form":2,"trial_type":"mars","trial_index":53,"time_elapsed":648933,"internal_node_id":"0.0-31.0-2.0","experiment":"validation-B","task_version":"2.0","jspsych_version":"6.3.1","browser_interactions":0},{"rt":null,"stimulus":"<div style=\"font-size:24px;\">Loading puzzle:<br>24 / 24</div>","response":null,"trial_type":"html-keyboard-response","trial_index":54,"time_elapsed":650137,"internal_node_id":"0.0-32.0-1.0","experiment":"validation-B","task_version":"2.0","jspsych_version":"6.3.1"},{"item":44,"shape_set":2,"distractor":"pd","choice_order":[0,2,3,1],"correct":0,"choice":3,"accuracy":0,"rt":892.1000000238419,"screen_resolution":[1366,768],"minimum_resolution":1,"all_loaded":true,"item_set":3,"long_form":2,"trial_type":"mars","trial_index":55,"time_elapsed":651032,"internal_node_id":"0.0-32.0-2.0","experiment":"validation-B","task_version":"2.0","jspsych_version":"6.3.1","browser_interactions":0},{"value":[1,1,0],"trial_type":"call-function","trial_index":56,"time_elapsed":651035,"internal_node_id":"0.0-33.0","experiment":"validation-B","task_version":"2.0","jspsych_version":"6.3.1","interactions":"[{\"event\":\"fullscreenenter\",\"trial\":1,\"time\":4654}]"}]