[{"view_history":[{"page_index":0,"viewing_time":28219.69999998808}],"rt":28222.80000001192,"trial_type":"instructions","trial_index":0,"time_elapsed":28286,"internal_node_id":"0.0-0.0","experiment":"validation","task_version":"2.0","jspsych_version":"6.3.1"},{"rt":9730.09999999404,"responses":{"age":"22","gender-categorical":"Female","gender-free-response":"","ethnicity":"Not Hispanic or Latino","race":["Asian"],"education":"Associate degree"},"survey":"demographics","trial_type":"survey-demo","trial_index":1,"time_elapsed":38029,"internal_node_id":"0.0-1.0","experiment":"validation","task_version":"2.0","jspsych_version":"6.3.1"},{"responses":{"Q07":"1","Q03":"2","Q11":"0","Q06":"1","Q02":"1","Q05":"3","Q01":"2","Q08":"1","Q09":"2","Q10":"3","Q04":"1"},"rt":73631.90000000596,"item_order":[6,2,10,5,1,4,0,7,8,9,3],"radio_events":[25726.90000000596,27694.40000000596,31293.600000023842,35864.60000002384,39686.5,41525.30000001192,60286.80000001192,61844,62976.40000000596,63985.30000001192,65066.30000001192,66273.80000001192,68149.20000001788,69197.60000002384],"key_events":[],"mouse_events":[25726.90000000596,27694.40000000596,31293.600000023842,35864.60000002384,36737,38646.70000001788,39686.5,40960.10000002384,41525.30000001192,60286.80000001192,60904,61844,62976.40000000596,63985.30000001192,65066.30000001192,66273.80000001192,68149.20000001788,69197.60000002384,73625.90000000596],"straightlining":0.45454545454545453,"zigzagging":0.6,"honeypot":0,"survey":"nfc10","trial_type":"survey-template","trial_index":2,"time_elapsed":111686,"internal_node_id":"0.0-2.0","experiment":"validation","task_version":"2.0","jspsych_version":"6.3.1","infrequency":0},{"responses":{"Q09":"4","Q02":"2","Q04":"2","Q08":"3","Q06":"2","Q01":"2","Q05":"2","Q03":"2","Q07":"2"},"rt":35463.40000000596,"item_order":[8,1,3,7,5,0,4,2,6],"radio_events":[17832,19821.5,24862.80000001192,26047.90000000596,27666,30083.100000023842,30727.90000000596,34023.30000001192,34687.60000002384],"key_events":[],"mouse_events":[17832,19821.5,23358.20000001788,24862.80000001192,26047.90000000596,27666,30083.100000023842,30727.90000000596,32272.90000000596,34023.30000001192,34687.60000002384,35459.10000002384],"straightlining":0.7777777777777778,"zigzagging":0.25,"honeypot":0,"survey":"pcf","trial_type":"survey-template","trial_index":3,"time_elapsed":147171,"internal_node_id":"0.0-3.0","experiment":"validation","task_version":"2.0","jspsych_version":"6.3.1","infrequency":0},{"rt":72971.69999998808,"response":{"Q1":2,"Q2":1,"Q8":0,"Q4":3,"Q3":0,"Q7":4,"Q6":5,"Q0":2,"Q5":4},"question_order":[1,2,8,4,3,7,6,0,5],"survey":"sns","trial_type":"survey-likert","trial_index":4,"time_elapsed":220166,"internal_node_id":"0.0-4.0","experiment":"validation","task_version":"2.0","jspsych_version":"6.3.1","infrequency":0},{"value":0,"trial_type":"call-function","trial_index":5,"time_elapsed":220174,"internal_node_id":"0.0-5.0","experiment":"validation","task_version":"2.0","jspsych_version":"6.3.1","interactions":"[{\"event\":\"focus\",\"trial\":0,\"time\":4257},{\"event\":\"blur\",\"trial\":0,\"time\":4942},{\"event\":\"focus\",\"trial\":0,\"time\":27089},{\"event\":\"blur\",\"trial\":2,\"time\":39007},{\"event\":\"focus\",\"trial\":2,\"time\":58555},{\"event\":\"blur\",\"trial\":2,\"time\":82711},{\"event\":\"focus\",\"trial\":2,\"time\":83630},{\"event\":\"blur\",\"trial\":2,\"time\":84254},{\"event\":\"focus\",\"trial\":2,\"time\":85869},{\"event\":\"blur\",\"trial\":2,\"time\":86528},{\"event\":\"focus\",\"trial\":2,\"time\":94280},{\"event\":\"blur\",\"trial\":2,\"time\":95680},{\"event\":\"focus\",\"trial\":2,\"time\":96439},{\"event\":\"blur\",\"trial\":3,\"time\":112769},{\"event\":\"focus\",\"trial\":3,\"time\":126462},{\"event\":\"blur\",\"trial\":4,\"time\":153665},{\"event\":\"focus\",\"trial\":4,\"time\":153901},{\"event\":\"blur\",\"trial\":4,\"time\":155117},{\"event\":\"focus\",\"trial\":4,\"time\":189310}]"}]