[{"view_history":[{"page_index":0,"viewing_time":2698.2000000476837}],"rt":2698.300000011921,"trial_type":"instructions","trial_index":0,"time_elapsed":2704,"internal_node_id":"0.0-0.0","experiment":"validation","task_version":"2.0","jspsych_version":"6.3.1"},{"rt":12310.699999988079,"responses":{"age":"32","gender-categorical":"Male","gender-free-response":"","ethnicity":"Not Hispanic or Latino","race":["White"],"education":"Some college"},"survey":"demographics","trial_type":"survey-demo","trial_index":1,"time_elapsed":15017,"internal_node_id":"0.0-1.0","experiment":"validation","task_version":"2.0","jspsych_version":"6.3.1"},{"responses":{"Q03":"1","Q08":"1","Q10":"3","Q06":"0","Q05":"3","Q01":"1","Q07":"3","Q09":"1","Q11":"0","Q02":"3","Q04":"1"},"rt":61677.80000001192,"item_order":[2,7,9,5,4,0,6,8,10,1,3],"radio_events":[7481.699999988079,12328.300000011921,19038.600000023842,26233.19999998808,30876,33919,41568.19999998808,44842.5,48218.80000001192,55735,60796],"key_events":[],"mouse_events":[6523.100000023842,6969,7481.699999988079,12328.300000011921,19038.600000023842,23108.100000023842,23559.19999998808,24388.900000035763,25684.69999998808,26233.19999998808,30876,33481.19999998808,33919,34772.10000002384,41085.69999998808,41568.19999998808,44568,44842.5,48218.80000001192,53691.60000002384,55735,59108.10000002384,59936.60000002384,60796,61676.80000001192],"straightlining":0.45454545454545453,"zigzagging":0.2,"honeypot":0,"survey":"nfc10","trial_type":"survey-template","trial_index":2,"time_elapsed":76697,"internal_node_id":"0.0-2.0","experiment":"validation","task_version":"2.0","jspsych_version":"6.3.1","infrequency":0},{"rt":45983,"response":{"Q7":4,"Q3":5,"Q5":4,"Q1":3,"Q4":4,"Q0":3,"Q8":0,"Q6":0,"Q2":4},"question_order":[7,3,5,1,4,0,8,6,2],"survey":"sns","trial_type":"survey-likert","trial_index":3,"time_elapsed":122683,"internal_node_id":"0.0-3.0","experiment":"validation","task_version":"2.0","jspsych_version":"6.3.1","infrequency":0},{"responses":{"Q06":"2","Q02":"3","Q09":"4","Q08":"3","Q05":"3","Q01":"3","Q03":"2","Q07":"3","Q04":"3"},"rt":34098,"item_order":[5,1,8,7,4,0,2,6,3],"radio_events":[8539.400000035763,12301.600000023842,15452.600000023842,19242.69999998808,21056.600000023842,22781.100000023842,26790.19999998808,29808.600000023842,33314.5],"key_events":[],"mouse_events":[8539.400000035763,12301.600000023842,14581.5,15061.600000023842,15452.600000023842,19242.69999998808,21056.600000023842,22781.100000023842,26790.19999998808,29318.69999998808,29808.600000023842,32653.19999998808,33314.5,34097.30000001192],"straightlining":0.6666666666666666,"zigzagging":0.375,"honeypot":0,"survey":"pcf","trial_type":"survey-template","trial_index":4,"time_elapsed":156782,"internal_node_id":"0.0-4.0","experiment":"validation","task_version":"2.0","jspsych_version":"6.3.1","infrequency":0},{"value":0,"trial_type":"call-function","trial_index":5,"time_elapsed":156783,"internal_node_id":"0.0-5.0","experiment":"validation","task_version":"2.0","jspsych_version":"6.3.1","interactions":"[]"}]