[{"view_history":[{"page_index":0,"viewing_time":3939.699999999255}],"rt":3940.10000000149,"trial_type":"instructions","trial_index":0,"time_elapsed":3944,"internal_node_id":"0.0-0.0","experiment":"validation","task_version":"2.0","jspsych_version":"6.3.1"},{"rt":15673.800000000745,"responses":{"age":"18","gender-categorical":"Male","gender-free-response":"","ethnicity":"Not Hispanic or Latino","race":["White"],"education":"High school"},"survey":"demographics","trial_type":"survey-demo","trial_index":1,"time_elapsed":19619,"internal_node_id":"0.0-1.0","experiment":"validation","task_version":"2.0","jspsych_version":"6.3.1"},{"rt":64762.199999999255,"response":{"Q5":2,"Q8":0,"Q0":3,"Q4":3,"Q7":2,"Q3":2,"Q2":1,"Q1":3,"Q6":1},"question_order":[5,8,0,4,7,3,2,1,6],"survey":"sns","trial_type":"survey-likert","trial_index":2,"time_elapsed":84384,"internal_node_id":"0.0-2.0","experiment":"validation","task_version":"2.0","jspsych_version":"6.3.1","infrequency":0},{"responses":{"Q10":"1","Q03":"1","Q02":"1","Q07":"3","Q11":"0","Q06":"1","Q01":"1","Q05":"1","Q09":"2","Q04":"3","Q08":"4"},"rt":102700.30000000075,"item_order":[9,2,1,6,10,5,0,4,8,3,7],"radio_events":[25778.5,29809.800000000745,35406.39999999851,41892.599999997765,44383.5,49757.699999999255,57748.599999997765,61954.599999997765,71842.59999999776,76351.59999999776,90529.59999999776,91958.59999999776,95787.69999999925,100819.59999999776,101954.69999999925],"key_events":[],"mouse_events":[6450.599999997765,7492.5,16859.39999999851,25778.5,26497.5,29809.800000000745,32490.39999999851,33074.599999997765,34743.39999999851,35406.39999999851,40545.5,41892.599999997765,43905.39999999851,44383.5,46443.39999999851,46657.5,48353.599999997765,49757.699999999255,52486.5,53114.5,56184.599999997765,57317.599999997765,57748.599999997765,59491.5,61490.599999997765,61954.599999997765,64252.699999999255,65176.599999997765,69708.59999999776,71139.5,71842.59999999776,76351.59999999776,90529.59999999776,91958.59999999776,94824.69999999925,95368.59999999776,95787.69999999925,97324.69999999925,97831.5,99571.5,100078.5,100819.59999999776,101511.5,101954.69999999925,102699.69999999925],"straightlining":0.45454545454545453,"zigzagging":0.3,"honeypot":0,"survey":"nfc10","trial_type":"survey-template","trial_index":3,"time_elapsed":187087,"internal_node_id":"0.0-3.0","experiment":"validation","task_version":"2.0","jspsych_version":"6.3.1","infrequency":0},{"responses":{"Q01":"2","Q09":"4","Q08":"3","Q07":"3","Q04":"2","Q03":"3","Q05":"1","Q06":"1","Q02":"3"},"rt":47285.5,"item_order":[0,8,7,6,3,2,4,5,1],"radio_events":[2940.099999997765,5220.300000000745,12185.099999997765,15136.099999997765,18942.099999997765,28033.199999999255,34869.099999997765,37713.300000000745,43075.199999999255,45908.199999999255],"key_events":[],"mouse_events":[2940.099999997765,5220.300000000745,12185.099999997765,15136.099999997765,18209.199999999255,18526.199999999255,18942.099999997765,28033.199999999255,30067,30746.099999997765,33918.099999997765,34869.099999997765,37368.199999999255,37713.300000000745,39498,39956.300000000745,43075.199999999255,45908.199999999255,47285.099999997765],"straightlining":0.4444444444444444,"zigzagging":0.25,"honeypot":0,"survey":"pcf","trial_type":"survey-template","trial_index":4,"time_elapsed":234373,"internal_node_id":"0.0-4.0","experiment":"validation","task_version":"2.0","jspsych_version":"6.3.1","infrequency":0},{"value":0,"trial_type":"call-function","trial_index":5,"time_elapsed":234374,"internal_node_id":"0.0-5.0","experiment":"validation","task_version":"2.0","jspsych_version":"6.3.1","interactions":"[]"}]