[{"view_history":[{"page_index":0,"viewing_time":1965.8999999761581}],"rt":1966.3999999761581,"trial_type":"instructions","trial_index":0,"time_elapsed":1976,"internal_node_id":"0.0-0.0","experiment":"validation","task_version":"2.0","jspsych_version":"6.3.1"},{"rt":14044.599999964237,"responses":{"age":"23","gender-categorical":"Female","gender-free-response":"","ethnicity":"Hispanic or Latino","race":["Black or African American"],"education":"Bachelor degree"},"survey":"demographics","trial_type":"survey-demo","trial_index":1,"time_elapsed":16028,"internal_node_id":"0.0-1.0","experiment":"validation","task_version":"2.0","jspsych_version":"6.3.1"},{"rt":61020.60000002384,"response":{"Q0":1,"Q6":2,"Q3":1,"Q4":4,"Q7":4,"Q2":1,"Q5":1,"Q1":3,"Q8":0},"question_order":[0,6,3,4,7,2,5,1,8],"survey":"sns","trial_type":"survey-likert","trial_index":2,"time_elapsed":77057,"internal_node_id":"0.0-2.0","experiment":"validation","task_version":"2.0","jspsych_version":"6.3.1","infrequency":0},{"responses":{"Q09":"0","Q01":"0","Q02":"0","Q03":"1","Q11":"0","Q07":"0","Q08":"1","Q10":"1","Q06":"0","Q04":"0","Q05":"0"},"rt":52578.80000001192,"item_order":[8,0,1,2,10,6,7,9,5,3,4],"radio_events":[5476.400000035763,8423.199999988079,11204.100000023842,15117.199999988079,19796.19999998808,24510.30000001192,30534.600000023842,30617.19999998808,31031,36904.60000002384,40347.5,47116.90000003576,51748.60000002384],"key_events":[],"mouse_events":[5476.400000035763,7878.400000035763,8423.199999988079,10631.100000023842,11204.100000023842,14715.5,15117.199999988079,19796.19999998808,24510.30000001192,30534.600000023842,30617.19999998808,31031,36531.5,36904.60000002384,39837.30000001192,40347.5,44909.40000003576,46710,47116.90000003576,51168.5,51748.60000002384,52576.30000001192],"straightlining":0.5454545454545454,"zigzagging":0.3,"honeypot":0,"survey":"nfc10","trial_type":"survey-template","trial_index":3,"time_elapsed":129646,"internal_node_id":"0.0-3.0","experiment":"validation","task_version":"2.0","jspsych_version":"6.3.1","infrequency":0},{"responses":{"Q03":"2","Q08":"3","Q02":"1","Q01":"2","Q09":"4","Q07":"1","Q06":"0","Q05":"0","Q04":"1"},"rt":38777.89999997616,"item_order":[2,7,1,0,8,6,5,4,3],"radio_events":[7949.299999952316,13938.099999964237,17037.69999998808,18377,18409.599999964237,19424.899999976158,20570.799999952316,22496.19999998808,24539.099999964237,27203.299999952316,32255.19999998808,34400.59999996424,37423.19999998808],"key_events":[],"mouse_events":[7949.299999952316,13938.099999964237,17037.69999998808,18377,18409.599999964237,19424.899999976158,20570.799999952316,21397.799999952316,22496.19999998808,24539.099999964237,27203.299999952316,32255.19999998808,34400.59999996424,37423.19999998808,38776.09999996424],"straightlining":0.3333333333333333,"zigzagging":0.625,"honeypot":0,"survey":"pcf","trial_type":"survey-template","trial_index":4,"time_elapsed":168431,"internal_node_id":"0.0-4.0","experiment":"validation","task_version":"2.0","jspsych_version":"6.3.1","infrequency":0},{"value":0,"trial_type":"call-function","trial_index":5,"time_elapsed":168435,"internal_node_id":"0.0-5.0","experiment":"validation","task_version":"2.0","jspsych_version":"6.3.1","interactions":"[]"}]