[{"view_history":[{"page_index":0,"viewing_time":2153.1999999997206}],"rt":2153.399999999907,"trial_type":"instructions","trial_index":0,"time_elapsed":2158,"internal_node_id":"0.0-0.0","experiment":"validation","task_version":"2.0","jspsych_version":"6.3.1"},{"rt":9230.599999999627,"responses":{"age":"28","gender-categorical":"Male","gender-free-response":"","ethnicity":"Not Hispanic or Latino","race":["White"],"education":"High school"},"survey":"demographics","trial_type":"survey-demo","trial_index":1,"time_elapsed":11391,"internal_node_id":"0.0-1.0","experiment":"validation","task_version":"2.0","jspsych_version":"6.3.1"},{"responses":{"Q05":"2","Q01":"3","Q10":"3","Q02":"2","Q08":"2","Q03":"3","Q09":"3","Q06":"2","Q07":"3","Q04":"2","Q11":"0"},"rt":34325.69999999972,"item_order":[4,0,9,1,7,2,8,5,6,3,10],"radio_events":[5243.5,7345.699999999721,10695.399999999907,14841.599999999627,16636.5,17692.299999999814,20603.599999999627,22088.599999999627,22827.399999999907,23430.69999999972,24201.299999999814,27912.599999999627],"key_events":[],"mouse_events":[1312.5,5243.5,7345.699999999721,9574.799999999814,10695.399999999907,12433.599999999627,13685.399999999907,14841.599999999627,15571.5,16636.5,17284.399999999907,17692.299999999814,19336.399999999907,20603.599999999627,21255.599999999627,22088.599999999627,22827.399999999907,23430.69999999972,23757.5,24201.299999999814,27562.5,27912.599999999627,34324.69999999972],"straightlining":0.45454545454545453,"zigzagging":0.6,"honeypot":0,"survey":"nfc10","trial_type":"survey-template","trial_index":2,"time_elapsed":45720,"internal_node_id":"0.0-2.0","experiment":"validation","task_version":"2.0","jspsych_version":"6.3.1","infrequency":0},{"rt":31742.399999999907,"response":{"Q8":0,"Q1":4,"Q2":4,"Q0":4,"Q4":4,"Q3":4,"Q7":4,"Q5":5,"Q6":0},"question_order":[8,1,2,0,4,3,7,5,6],"survey":"sns","trial_type":"survey-likert","trial_index":3,"time_elapsed":77466,"internal_node_id":"0.0-3.0","experiment":"validation","task_version":"2.0","jspsych_version":"6.3.1","infrequency":0},{"responses":{"Q01":"3","Q06":"2","Q02":"3","Q05":"3","Q07":"3","Q04":"1","Q08":"3","Q09":"4","Q03":"2"},"rt":28258.200000000186,"item_order":[0,5,1,4,6,3,7,8,2],"radio_events":[7119.300000000279,9656.400000000373,11785.600000000093,14079.600000000093,15536.400000000373,18815.600000000093,22433.600000000093,24961.80000000028,27951.30000000028],"key_events":[],"mouse_events":[6068.300000000279,7119.300000000279,8944.400000000373,9656.400000000373,11785.600000000093,14079.600000000093,14773.5,15536.400000000373,18815.600000000093,20252.400000000373,21464.5,22433.600000000093,24961.80000000028,27136.200000000186,27951.30000000028,28257.600000000093],"straightlining":0.5555555555555556,"zigzagging":0.25,"honeypot":0,"survey":"pcf","trial_type":"survey-template","trial_index":4,"time_elapsed":105726,"internal_node_id":"0.0-4.0","experiment":"validation","task_version":"2.0","jspsych_version":"6.3.1","infrequency":0},{"value":0,"trial_type":"call-function","trial_index":5,"time_elapsed":105728,"internal_node_id":"0.0-5.0","experiment":"validation","task_version":"2.0","jspsych_version":"6.3.1","interactions":"[]"}]