[{"view_history":[{"page_index":0,"viewing_time":846.5}],"rt":847.2999999523163,"trial_type":"instructions","trial_index":0,"time_elapsed":863,"internal_node_id":"0.0-0.0","experiment":"validation","task_version":"2.0","jspsych_version":"6.3.1"},{"rt":8580.699999928474,"responses":{"age":"35","gender-categorical":"Male","gender-free-response":"","ethnicity":"Not Hispanic or Latino","race":["White"],"education":"Associate degree"},"survey":"demographics","trial_type":"survey-demo","trial_index":1,"time_elapsed":9449,"internal_node_id":"0.0-1.0","experiment":"validation","task_version":"2.0","jspsych_version":"6.3.1"},{"responses":{"Q07":"4","Q03":"4","Q08":"4","Q02":"4","Q09":"4","Q05":"4","Q04":"4","Q01":"4","Q06":"4"},"rt":14937.700000047684,"item_order":[6,2,7,1,8,4,3,0,5],"radio_events":[1310.8000000715256,3183.3000000715256,3542.2000000476837,6374.5,7366.399999976158,9694.600000023842,11278.5,12006.600000023842,12846.300000071526,13150.300000071526],"key_events":[],"mouse_events":[1310.8000000715256,1670.6000000238419,2014.8999999761581,2391.3000000715256,3183.3000000715256,3542.2000000476837,4606.899999976158,6374.5,7366.399999976158,9006.700000047684,9694.600000023842,10822.200000047684,11278.5,11711.100000023842,12006.600000023842,12390.899999976158,12846.300000071526,13150.300000071526,14934.700000047684],"straightlining":0.8888888888888888,"zigzagging":0.25,"honeypot":0,"survey":"pcf","trial_type":"survey-template","trial_index":2,"time_elapsed":24395,"internal_node_id":"0.0-2.0","experiment":"validation","task_version":"2.0","jspsych_version":"6.3.1","infrequency":0},{"rt":20894.200000047684,"response":{"Q6":2,"Q2":1,"Q1":2,"Q5":1,"Q0":1,"Q3":1,"Q4":2,"Q8":0,"Q7":2},"question_order":[6,2,1,5,0,3,4,8,7],"survey":"sns","trial_type":"survey-likert","trial_index":3,"time_elapsed":45298,"internal_node_id":"0.0-3.0","experiment":"validation","task_version":"2.0","jspsych_version":"6.3.1","infrequency":0},{"responses":{"Q04":"0","Q07":"0","Q09":"0","Q08":"0","Q10":"0","Q02":"0","Q03":"0","Q05":"1","Q06":"0","Q11":"0","Q01":"0"},"rt":21770.899999976158,"item_order":[3,6,8,7,9,1,2,4,5,10,0],"radio_events":[1991.8999999761581,5175.799999952316,6848,7737.199999928474,9584,11664.100000023842,13232.299999952316,15935.600000023842,17999.600000023842,20415.699999928474,21167.600000023842],"key_events":[],"mouse_events":[1991.8999999761581,5175.799999952316,6303.899999976158,6848,7737.199999928474,9584,10864,11664.100000023842,12984.600000023842,13232.299999952316,15935.600000023842,17999.600000023842,19416.5,20415.699999928474,21167.600000023842,21768],"straightlining":0.7272727272727273,"zigzagging":0.3,"honeypot":0,"survey":"nfc10","trial_type":"survey-template","trial_index":4,"time_elapsed":67075,"internal_node_id":"0.0-4.0","experiment":"validation","task_version":"2.0","jspsych_version":"6.3.1","infrequency":0},{"value":0,"trial_type":"call-function","trial_index":5,"time_elapsed":67078,"internal_node_id":"0.0-5.0","experiment":"validation","task_version":"2.0","jspsych_version":"6.3.1","interactions":"[]"}]