[{"view_history":[{"page_index":0,"viewing_time":1822}],"rt":1822.199999988079,"trial_type":"instructions","trial_index":0,"time_elapsed":1829,"internal_node_id":"0.0-0.0","experiment":"validation","task_version":"2.0","jspsych_version":"6.3.1"},{"rt":31590.799999952316,"responses":{"age":"32","gender-categorical":"Male","gender-free-response":"","ethnicity":"Not Hispanic or Latino","race":["White"],"education":"Bachelor degree"},"survey":"demographics","trial_type":"survey-demo","trial_index":1,"time_elapsed":33422,"internal_node_id":"0.0-1.0","experiment":"validation","task_version":"2.0","jspsych_version":"6.3.1"},{"responses":{"Q03":"2","Q07":"2","Q04":"2","Q02":"3","Q08":"2","Q05":"2","Q06":"2","Q01":"3","Q09":"4"},"rt":30737.5,"item_order":[2,6,3,1,7,4,5,0,8],"radio_events":[7390.200000047684,9892,14294.400000035763,18086.100000023842,19644.200000047684,22301.5,25000.80000001192,27182.30000001192,29079.400000035763],"key_events":[],"mouse_events":[6356,7390.200000047684,8821.400000035763,9892,11894.400000035763,13162.700000047684,14294.400000035763,15485.5,18086.100000023842,19644.200000047684,21125.900000035763,22301.5,25000.80000001192,27182.30000001192,29079.400000035763,30736.30000001192],"straightlining":0.6666666666666666,"zigzagging":0.375,"honeypot":0,"survey":"pcf","trial_type":"survey-template","trial_index":2,"time_elapsed":64162,"internal_node_id":"0.0-2.0","experiment":"validation","task_version":"2.0","jspsych_version":"6.3.1","infrequency":0},{"responses":{"Q10":"2","Q04":"1","Q03":"2","Q02":"1","Q11":"0","Q05":"2","Q07":"3","Q09":"3","Q01":"1","Q08":"3","Q06":"3"},"rt":50267.39999997616,"item_order":[9,3,2,1,10,4,6,8,0,7,5],"radio_events":[9917.899999976158,13842.300000011921,15099.199999988079,17696,24020.399999976158,32177.899999976158,37101.30000001192,37888.60000002384,42275.39999997616,46936.89999997616,48357.10000002384],"key_events":[],"mouse_events":[9917.899999976158,13842.300000011921,15099.199999988079,17696,24020.399999976158,32177.899999976158,37101.30000001192,37888.60000002384,41031.69999998808,42275.39999997616,46936.89999997616,48357.10000002384,50266.5],"straightlining":0.45454545454545453,"zigzagging":0.5,"honeypot":0,"survey":"nfc10","trial_type":"survey-template","trial_index":3,"time_elapsed":114432,"internal_node_id":"0.0-3.0","experiment":"validation","task_version":"2.0","jspsych_version":"6.3.1","infrequency":0},{"rt":44120,"response":{"Q4":4,"Q5":4,"Q6":1,"Q3":1,"Q2":1,"Q7":4,"Q8":0,"Q0":0,"Q1":0},"question_order":[4,5,6,3,2,7,8,0,1],"survey":"sns","trial_type":"survey-likert","trial_index":4,"time_elapsed":158555,"internal_node_id":"0.0-4.0","experiment":"validation","task_version":"2.0","jspsych_version":"6.3.1","infrequency":0},{"value":0,"trial_type":"call-function","trial_index":5,"time_elapsed":158556,"internal_node_id":"0.0-5.0","experiment":"validation","task_version":"2.0","jspsych_version":"6.3.1","interactions":"[{\"event\":\"blur\",\"trial\":1,\"time\":9413},{\"event\":\"focus\",\"trial\":1,\"time\":18177},{\"event\":\"blur\",\"trial\":1,\"time\":20899},{\"event\":\"focus\",\"trial\":1,\"time\":24021}]"}]