[{"view_history":[{"page_index":0,"viewing_time":4268.900000035763}],"rt":4269.300000011921,"trial_type":"instructions","trial_index":0,"time_elapsed":4275,"internal_node_id":"0.0-0.0","experiment":"validation","task_version":"2.0","jspsych_version":"6.3.1"},{"rt":37962.80000001192,"responses":{"age":"25","gender-categorical":"Male","gender-free-response":"","ethnicity":"Hispanic or Latino","race":["White"],"education":"Associate degree"},"survey":"demographics","trial_type":"survey-demo","trial_index":1,"time_elapsed":42239,"internal_node_id":"0.0-1.0","experiment":"validation","task_version":"2.0","jspsych_version":"6.3.1"},{"rt":70752.89999997616,"response":{"Q4":3,"Q1":4,"Q3":5,"Q2":4,"Q5":0,"Q7":5,"Q8":0,"Q6":0,"Q0":4},"question_order":[4,1,3,2,5,7,8,6,0],"survey":"sns","trial_type":"survey-likert","trial_index":2,"time_elapsed":112995,"internal_node_id":"0.0-2.0","experiment":"validation","task_version":"2.0","jspsych_version":"6.3.1","infrequency":0},{"responses":{"Q01":"1","Q04":"1","Q08":"4","Q06":"1","Q05":"2","Q07":"1","Q03":"2","Q02":"1","Q09":"4"},"rt":47802,"item_order":[0,3,7,5,4,6,2,1,8],"radio_events":[7607.599999964237,13032.199999988079,19781.19999998808,25794.399999976158,31973.399999976158,33422.89999997616,35262.80000001192,41359.5,43772.39999997616,47163.19999998808],"key_events":[],"mouse_events":[7011.300000011921,7607.599999964237,13032.199999988079,18594.30000001192,19781.19999998808,25794.399999976158,29223.19999998808,29929.69999998808,31973.399999976158,32909.80000001192,33422.89999997616,35262.80000001192,41359.5,43772.39999997616,47163.19999998808,47801.09999996424],"straightlining":0.5555555555555556,"zigzagging":0.625,"honeypot":0,"survey":"pcf","trial_type":"survey-template","trial_index":3,"time_elapsed":160800,"internal_node_id":"0.0-3.0","experiment":"validation","task_version":"2.0","jspsych_version":"6.3.1","infrequency":0},{"responses":{"Q06":"4","Q07":"4","Q03":"3","Q09":"1","Q08":"2","Q11":"0","Q01":"3","Q05":"3","Q02":"2","Q04":"1","Q10":"1"},"rt":75958.5,"item_order":[5,6,2,8,7,10,0,4,1,3,9],"radio_events":[4887.199999988079,10993.699999988079,15336.199999988079,23055.899999976158,27501.80000001192,35662.5,44005.69999998808,48723.39999997616,53311.5,59751.19999998808,74529.5],"key_events":[],"mouse_events":[4887.199999988079,10993.699999988079,15336.199999988079,22090.5,22603.69999998808,23055.899999976158,27501.80000001192,35662.5,44005.69999998808,48723.39999997616,52921.10000002384,53311.5,58010.39999997616,58418.5,59004.30000001192,59751.19999998808,74529.5,75957.69999998808],"straightlining":0.36363636363636365,"zigzagging":0.3,"honeypot":0,"survey":"nfc10","trial_type":"survey-template","trial_index":4,"time_elapsed":236760,"internal_node_id":"0.0-4.0","experiment":"validation","task_version":"2.0","jspsych_version":"6.3.1","infrequency":0},{"value":0,"trial_type":"call-function","trial_index":5,"time_elapsed":236761,"internal_node_id":"0.0-5.0","experiment":"validation","task_version":"2.0","jspsych_version":"6.3.1","interactions":"[]"}]