[{"success":true,"timeout":false,"failed_images":[],"failed_audio":[],"failed_video":[],"trial_type":"preload","trial_index":0,"time_elapsed":1616,"internal_node_id":"0.0-0.0","experiment":"validation-B","task_version":"2.0","jspsych_version":"6.3.1"},{"success":true,"trial_type":"fullscreen","trial_index":1,"time_elapsed":3590,"internal_node_id":"0.0-1.0","experiment":"validation-B","task_version":"2.0","jspsych_version":"6.3.1"},{"view_history":[{"page_index":0,"viewing_time":1348.5999999642372},{"page_index":1,"viewing_time":2888.100000023842},{"page_index":2,"viewing_time":2750.5},{"page_index":3,"viewing_time":1911}],"rt":8898.399999976158,"trial_type":"instructions","trial_index":2,"time_elapsed":12489,"internal_node_id":"0.0-3.0","experiment":"validation-B","task_version":"2.0","jspsych_version":"6.3.1"},{"item":5,"shape_set":1,"distractor":"pd","choice_order":[2,0,1,3],"correct":0,"choice":0,"accuracy":1,"rt":1526.4000000357628,"screen_resolution":[1536,864],"minimum_resolution":1,"all_loaded":true,"item_set":"practice","trial_type":"mars","trial_index":3,"time_elapsed":14768,"internal_node_id":"0.0-4.0-0.0","experiment":"validation-B","task_version":"2.0","jspsych_version":"6.3.1"},{"item":2,"shape_set":1,"distractor":"pd","choice_order":[2,3,1,0],"correct":0,"choice":0,"accuracy":1,"rt":1185.9000000357628,"screen_resolution":[1536,864],"minimum_resolution":1,"all_loaded":true,"item_set":"practice","trial_type":"mars","trial_index":4,"time_elapsed":16720,"internal_node_id":"0.0-5.0-0.0","experiment":"validation-B","task_version":"2.0","jspsych_version":"6.3.1"},{"item":8,"shape_set":1,"distractor":"pd","choice_order":[3,0,2,1],"correct":0,"choice":0,"accuracy":1,"rt":3762.300000011921,"screen_resolution":[1536,864],"minimum_resolution":1,"all_loaded":true,"item_set":"practice","trial_type":"mars","trial_index":5,"time_elapsed":21245,"internal_node_id":"0.0-6.0-0.0","experiment":"validation-B","task_version":"2.0","jspsych_version":"6.3.1"},{"view_history":[{"page_index":0,"viewing_time":913.1999999880791},{"page_index":1,"viewing_time":3334}],"rt":4247.5,"trial_type":"instructions","trial_index":6,"time_elapsed":25493,"internal_node_id":"0.0-7.0","experiment":"validation-B","task_version":"2.0","jspsych_version":"6.3.1"},{"rt":null,"stimulus":"<div style=\"font-size:24px;\">Loading puzzle:<br>1 / 24</div>","response":null,"trial_type":"html-keyboard-response","trial_index":7,"time_elapsed":26709,"internal_node_id":"0.0-8.0-1.0","experiment":"validation-B","task_version":"2.0","jspsych_version":"6.3.1"},{"item":45,"shape_set":1,"distractor":"pd","choice_order":[1,2,3,0],"correct":0,"choice":0,"accuracy":1,"rt":16574.5,"screen_resolution":[1536,864],"minimum_resolution":1,"all_loaded":true,"item_set":3,"long_form":2,"trial_type":"mars","trial_index":8,"time_elapsed":43284,"internal_node_id":"0.0-8.0-2.0","experiment":"validation-B","task_version":"2.0","jspsych_version":"6.3.1","browser_interactions":0},{"rt":null,"stimulus":"<div style=\"font-size:24px;\">Loading puzzle:<br>2 / 24</div>","response":null,"trial_type":"html-keyboard-response","trial_index":9,"time_elapsed":44487,"internal_node_id":"0.0-9.0-1.0","experiment":"validation-B","task_version":"2.0","jspsych_version":"6.3.1"},{"item":30,"shape_set":1,"distractor":"pd","choice_order":[2,0,1,3],"correct":0,"choice":0,"accuracy":1,"rt":9109.300000011921,"screen_resolution":[1536,864],"minimum_resolution":1,"all_loaded":true,"item_set":3,"long_form":2,"trial_type":"mars","trial_index":10,"time_elapsed":53597,"internal_node_id":"0.0-9.0-2.0","experiment":"validation-B","task_version":"2.0","jspsych_version":"6.3.1","browser_interactions":0},{"rt":null,"stimulus":"<div style=\"font-size:24px;\">Loading puzzle:<br>3 / 24</div>","response":null,"trial_type":"html-keyboard-response","trial_index":11,"time_elapsed":54800,"internal_node_id":"0.0-10.0-1.0","experiment":"validation-B","task_version":"2.0","jspsych_version":"6.3.1"},{"item":55,"shape_set":3,"distractor":"pd","choice_order":[3,2,0,1],"correct":0,"choice":0,"accuracy":1,"rt":28284.899999976158,"screen_resolution":[1536,864],"minimum_resolution":1,"all_loaded":true,"item_set":3,"long_form":2,"trial_type":"mars","trial_index":12,"time_elapsed":83085,"internal_node_id":"0.0-10.0-2.0","experiment":"validation-B","task_version":"2.0","jspsych_version":"6.3.1","browser_interactions":0},{"rt":null,"stimulus":"<div style=\"font-size:24px;\">Loading puzzle:<br>4 / 24</div>","response":null,"trial_type":"html-keyboard-response","trial_index":13,"time_elapsed":84286,"internal_node_id":"0.0-11.0-1.0","experiment":"validation-B","task_version":"2.0","jspsych_version":"6.3.1"},{"item":58,"shape_set":2,"distractor":"md","choice_order":[0,3,2,1],"correct":0,"choice":0,"accuracy":1,"rt":13197.299999952316,"screen_resolution":[1536,864],"minimum_resolution":1,"all_loaded":true,"item_set":3,"long_form":2,"trial_type":"mars","trial_index":14,"time_elapsed":97484,"internal_node_id":"0.0-11.0-2.0","experiment":"validation-B","task_version":"2.0","jspsych_version":"6.3.1","browser_interactions":0},{"rt":null,"stimulus":"<div style=\"font-size:24px;\">Loading puzzle:<br>5 / 24</div>","response":null,"trial_type":"html-keyboard-response","trial_index":15,"time_elapsed":98687,"internal_node_id":"0.0-12.0-1.0","experiment":"validation-B","task_version":"2.0","jspsych_version":"6.3.1"},{"item":42,"shape_set":1,"distractor":"pd","choice_order":[0,3,2,1],"correct":0,"choice":2,"accuracy":0,"rt":18576.400000035763,"screen_resolution":[1536,864],"minimum_resolution":1,"all_loaded":true,"item_set":3,"long_form":2,"trial_type":"mars","trial_index":16,"time_elapsed":117265,"internal_node_id":"0.0-12.0-2.0","experiment":"validation-B","task_version":"2.0","jspsych_version":"6.3.1","browser_interactions":0},{"rt":null,"stimulus":"<div style=\"font-size:24px;\">Loading puzzle:<br>6 / 24</div>","response":null,"trial_type":"html-keyboard-response","trial_index":17,"time_elapsed":118466,"internal_node_id":"0.0-13.0-1.0","experiment":"validation-B","task_version":"2.0","jspsych_version":"6.3.1"},{"item":52,"shape_set":2,"distractor":"pd","choice_order":[2,0,1,3],"correct":0,"choice":0,"accuracy":1,"rt":8489.100000023842,"screen_resolution":[1536,864],"minimum_resolution":1,"all_loaded":true,"item_set":3,"long_form":2,"trial_type":"mars","trial_index":18,"time_elapsed":126956,"internal_node_id":"0.0-13.0-2.0","experiment":"validation-B","task_version":"2.0","jspsych_version":"6.3.1","browser_interactions":0},{"rt":null,"stimulus":"<div style=\"font-size:24px;\">Loading puzzle:<br>7 / 24</div>","response":null,"trial_type":"html-keyboard-response","trial_index":19,"time_elapsed":128159,"internal_node_id":"0.0-14.0-1.0","experiment":"validation-B","task_version":"2.0","jspsych_version":"6.3.1"},{"item":29,"shape_set":3,"distractor":"pd","choice_order":[0,3,2,1],"correct":0,"choice":0,"accuracy":1,"rt":13902,"screen_resolution":[1536,864],"minimum_resolution":1,"all_loaded":true,"item_set":3,"long_form":2,"trial_type":"mars","trial_index":20,"time_elapsed":142062,"internal_node_id":"0.0-14.0-2.0","experiment":"validation-B","task_version":"2.0","jspsych_version":"6.3.1","browser_interactions":0},{"rt":null,"stimulus":"<div style=\"font-size:24px;\">Loading puzzle:<br>8 / 24</div>","response":null,"trial_type":"html-keyboard-response","trial_index":21,"time_elapsed":143263,"internal_node_id":"0.0-15.0-1.0","experiment":"validation-B","task_version":"2.0","jspsych_version":"6.3.1"},{"item":24,"shape_set":1,"distractor":"pd","choice_order":[0,1,2,3],"correct":0,"choice":0,"accuracy":1,"rt":9480.400000035763,"screen_resolution":[1536,864],"minimum_resolution":1,"all_loaded":true,"item_set":3,"long_form":2,"trial_type":"mars","trial_index":22,"time_elapsed":152745,"internal_node_id":"0.0-15.0-2.0","experiment":"validation-B","task_version":"2.0","jspsych_version":"6.3.1","browser_interactions":0},{"rt":null,"stimulus":"<div style=\"font-size:24px;\">Loading puzzle:<br>9 / 24</div>","response":null,"trial_type":"html-keyboard-response","trial_index":23,"time_elapsed":153946,"internal_node_id":"0.0-16.0-1.0","experiment":"validation-B","task_version":"2.0","jspsych_version":"6.3.1"},{"item":17,"shape_set":2,"distractor":"pd","choice_order":[3,1,0,2],"correct":0,"choice":0,"accuracy":1,"rt":15437.800000011921,"screen_resolution":[1536,864],"minimum_resolution":1,"all_loaded":true,"item_set":3,"long_form":2,"trial_type":"mars","trial_index":24,"time_elapsed":169385,"internal_node_id":"0.0-16.0-2.0","experiment":"validation-B","task_version":"2.0","jspsych_version":"6.3.1","browser_interactions":0},{"rt":null,"stimulus":"<div style=\"font-size:24px;\">Loading puzzle:<br>10 / 24</div>","response":null,"trial_type":"html-keyboard-response","trial_index":25,"time_elapsed":170587,"internal_node_id":"0.0-17.0-1.0","experiment":"validation-B","task_version":"2.0","jspsych_version":"6.3.1"},{"item":76,"shape_set":2,"distractor":"pd","choice_order":[2,0,1,3],"correct":0,"choice":1,"accuracy":0,"rt":13805.5,"screen_resolution":[1536,864],"minimum_resolution":1,"all_loaded":true,"item_set":3,"long_form":2,"trial_type":"mars","trial_index":26,"time_elapsed":184394,"internal_node_id":"0.0-17.0-2.0","experiment":"validation-B","task_version":"2.0","jspsych_version":"6.3.1","browser_interactions":0},{"rt":null,"stimulus":"<div style=\"font-size:24px;\">Loading puzzle:<br>11 / 24</div>","response":null,"trial_type":"html-keyboard-response","trial_index":27,"time_elapsed":185595,"internal_node_id":"0.0-18.0-1.0","experiment":"validation-B","task_version":"2.0","jspsych_version":"6.3.1"},{"item":75,"shape_set":3,"distractor":"pd","choice_order":[1,3,0,2],"correct":0,"choice":3,"accuracy":0,"rt":14248,"screen_resolution":[1536,864],"minimum_resolution":1,"all_loaded":true,"item_set":3,"long_form":2,"trial_type":"mars","trial_index":28,"time_elapsed":199843,"internal_node_id":"0.0-18.0-2.0","experiment":"validation-B","task_version":"2.0","jspsych_version":"6.3.1","browser_interactions":0},{"rt":null,"stimulus":"<div style=\"font-size:24px;\">Loading puzzle:<br>12 / 24</div>","response":null,"trial_type":"html-keyboard-response","trial_index":29,"time_elapsed":201045,"internal_node_id":"0.0-19.0-1.0","experiment":"validation-B","task_version":"2.0","jspsych_version":"6.3.1"},{"item":72,"shape_set":2,"distractor":"pd","choice_order":[0,3,2,1],"correct":0,"choice":1,"accuracy":0,"rt":12040.899999976158,"screen_resolution":[1536,864],"minimum_resolution":1,"all_loaded":true,"item_set":3,"long_form":2,"trial_type":"mars","trial_index":30,"time_elapsed":213087,"internal_node_id":"0.0-19.0-2.0","experiment":"validation-B","task_version":"2.0","jspsych_version":"6.3.1","browser_interactions":0},{"view_history":[{"page_index":0,"viewing_time":23860.80000001192},{"page_index":1,"viewing_time":5831.299999952316}],"rt":29692.30000001192,"trial_type":"instructions","trial_index":31,"time_elapsed":242780,"internal_node_id":"0.0-20.0","experiment":"validation-B","task_version":"2.0","jspsych_version":"6.3.1"},{"rt":null,"stimulus":"<div style=\"font-size:24px;\">Loading puzzle:<br>13 / 24</div>","response":null,"trial_type":"html-keyboard-response","trial_index":32,"time_elapsed":243983,"internal_node_id":"0.0-21.0-1.0","experiment":"validation-B","task_version":"2.0","jspsych_version":"6.3.1"},{"item":35,"shape_set":2,"distractor":"pd","choice_order":[0,2,3,1],"correct":0,"choice":0,"accuracy":1,"rt":26470.30000001192,"screen_resolution":[1536,864],"minimum_resolution":1,"all_loaded":true,"item_set":3,"long_form":2,"trial_type":"mars","trial_index":33,"time_elapsed":270454,"internal_node_id":"0.0-21.0-2.0","experiment":"validation-B","task_version":"2.0","jspsych_version":"6.3.1","browser_interactions":0},{"rt":null,"stimulus":"<div style=\"font-size:24px;\">Loading puzzle:<br>14 / 24</div>","response":null,"trial_type":"html-keyboard-response","trial_index":34,"time_elapsed":271656,"internal_node_id":"0.0-22.0-1.0","experiment":"validation-B","task_version":"2.0","jspsych_version":"6.3.1"},{"item":36,"shape_set":1,"distractor":"pd","choice_order":[3,0,2,1],"correct":0,"choice":1,"accuracy":0,"rt":19579.600000023842,"screen_resolution":[1536,864],"minimum_resolution":1,"all_loaded":true,"item_set":3,"long_form":2,"trial_type":"mars","trial_index":35,"time_elapsed":291237,"internal_node_id":"0.0-22.0-2.0","experiment":"validation-B","task_version":"2.0","jspsych_version":"6.3.1","browser_interactions":0},{"rt":null,"stimulus":"<div style=\"font-size:24px;\">Loading puzzle:<br>15 / 24</div>","response":null,"trial_type":"html-keyboard-response","trial_index":36,"time_elapsed":292439,"internal_node_id":"0.0-23.0-1.0","experiment":"validation-B","task_version":"2.0","jspsych_version":"6.3.1"},{"item":64,"shape_set":3,"distractor":"pd","choice_order":[1,0,2,3],"correct":0,"choice":1,"accuracy":0,"rt":13505.5,"screen_resolution":[1536,864],"minimum_resolution":1,"all_loaded":true,"item_set":3,"long_form":2,"trial_type":"mars","trial_index":37,"time_elapsed":305945,"internal_node_id":"0.0-23.0-2.0","experiment":"validation-B","task_version":"2.0","jspsych_version":"6.3.1","browser_interactions":0},{"rt":null,"stimulus":"<div style=\"font-size:24px;\">Loading puzzle:<br>16 / 24</div>","response":null,"trial_type":"html-keyboard-response","trial_index":38,"time_elapsed":307148,"internal_node_id":"0.0-24.0-1.0","experiment":"validation-B","task_version":"2.0","jspsych_version":"6.3.1"},{"item":80,"shape_set":1,"distractor":"pd","choice_order":[0,1,2,3],"correct":0,"choice":0,"accuracy":1,"rt":12921.100000023842,"screen_resolution":[1536,864],"minimum_resolution":1,"all_loaded":true,"item_set":3,"long_form":2,"trial_type":"mars","trial_index":39,"time_elapsed":320069,"internal_node_id":"0.0-24.0-2.0","experiment":"validation-B","task_version":"2.0","jspsych_version":"6.3.1","browser_interactions":0},{"rt":null,"stimulus":"<div style=\"font-size:24px;\">Loading puzzle:<br>17 / 24</div>","response":null,"trial_type":"html-keyboard-response","trial_index":40,"time_elapsed":321272,"internal_node_id":"0.0-25.0-1.0","experiment":"validation-B","task_version":"2.0","jspsych_version":"6.3.1"},{"item":74,"shape_set":1,"distractor":"pd","choice_order":[1,2,0,3],"correct":0,"choice":0,"accuracy":1,"rt":8462.100000023842,"screen_resolution":[1536,864],"minimum_resolution":1,"all_loaded":true,"item_set":3,"long_form":2,"trial_type":"mars","trial_index":41,"time_elapsed":329735,"internal_node_id":"0.0-25.0-2.0","experiment":"validation-B","task_version":"2.0","jspsych_version":"6.3.1","browser_interactions":0},{"rt":null,"stimulus":"<div style=\"font-size:24px;\">Loading puzzle:<br>18 / 24</div>","response":null,"trial_type":"html-keyboard-response","trial_index":42,"time_elapsed":330936,"internal_node_id":"0.0-26.0-1.0","experiment":"validation-B","task_version":"2.0","jspsych_version":"6.3.1"},{"item":46,"shape_set":2,"distractor":"pd","choice_order":[0,3,1,2],"correct":0,"choice":0,"accuracy":1,"rt":9752.5,"screen_resolution":[1536,864],"minimum_resolution":1,"all_loaded":true,"item_set":3,"long_form":2,"trial_type":"mars","trial_index":43,"time_elapsed":340690,"internal_node_id":"0.0-26.0-2.0","experiment":"validation-B","task_version":"2.0","jspsych_version":"6.3.1","browser_interactions":0},{"rt":null,"stimulus":"<div style=\"font-size:24px;\">Loading puzzle:<br>19 / 24</div>","response":null,"trial_type":"html-keyboard-response","trial_index":44,"time_elapsed":341891,"internal_node_id":"0.0-27.0-1.0","experiment":"validation-B","task_version":"2.0","jspsych_version":"6.3.1"},{"item":59,"shape_set":2,"distractor":"pd","choice_order":[2,3,0,1],"correct":0,"choice":0,"accuracy":1,"rt":15274.699999988079,"screen_resolution":[1536,864],"minimum_resolution":1,"all_loaded":true,"item_set":3,"long_form":2,"trial_type":"mars","trial_index":45,"time_elapsed":357167,"internal_node_id":"0.0-27.0-2.0","experiment":"validation-B","task_version":"2.0","jspsych_version":"6.3.1","browser_interactions":0},{"rt":null,"stimulus":"<div style=\"font-size:24px;\">Loading puzzle:<br>20 / 24</div>","response":null,"trial_type":"html-keyboard-response","trial_index":46,"time_elapsed":358369,"internal_node_id":"0.0-28.0-1.0","experiment":"validation-B","task_version":"2.0","jspsych_version":"6.3.1"},{"item":66,"shape_set":3,"distractor":"pd","choice_order":[2,3,1,0],"correct":0,"choice":1,"accuracy":0,"rt":8909.199999988079,"screen_resolution":[1536,864],"minimum_resolution":1,"all_loaded":true,"item_set":3,"long_form":2,"trial_type":"mars","trial_index":47,"time_elapsed":367279,"internal_node_id":"0.0-28.0-2.0","experiment":"validation-B","task_version":"2.0","jspsych_version":"6.3.1","browser_interactions":0},{"rt":null,"stimulus":"<div style=\"font-size:24px;\">Loading puzzle:<br>21 / 24</div>","response":null,"trial_type":"html-keyboard-response","trial_index":48,"time_elapsed":368481,"internal_node_id":"0.0-29.0-1.0","experiment":"validation-B","task_version":"2.0","jspsych_version":"6.3.1"},{"item":63,"shape_set":1,"distractor":"pd","choice_order":[3,2,1,0],"correct":0,"choice":0,"accuracy":1,"rt":12950.5,"screen_resolution":[1536,864],"minimum_resolution":1,"all_loaded":true,"item_set":3,"long_form":2,"trial_type":"mars","trial_index":49,"time_elapsed":381432,"internal_node_id":"0.0-29.0-2.0","experiment":"validation-B","task_version":"2.0","jspsych_version":"6.3.1","browser_interactions":0},{"rt":null,"stimulus":"<div style=\"font-size:24px;\">Loading puzzle:<br>22 / 24</div>","response":null,"trial_type":"html-keyboard-response","trial_index":50,"time_elapsed":382634,"internal_node_id":"0.0-30.0-1.0","experiment":"validation-B","task_version":"2.0","jspsych_version":"6.3.1"},{"item":21,"shape_set":3,"distractor":"pd","choice_order":[0,1,2,3],"correct":0,"choice":0,"accuracy":1,"rt":18314.30000001192,"screen_resolution":[1536,864],"minimum_resolution":1,"all_loaded":true,"item_set":3,"long_form":2,"trial_type":"mars","trial_index":51,"time_elapsed":400950,"internal_node_id":"0.0-30.0-2.0","experiment":"validation-B","task_version":"2.0","jspsych_version":"6.3.1","browser_interactions":0},{"rt":null,"stimulus":"<div style=\"font-size:24px;\">Loading puzzle:<br>23 / 24</div>","response":null,"trial_type":"html-keyboard-response","trial_index":52,"time_elapsed":402152,"internal_node_id":"0.0-31.0-1.0","experiment":"validation-B","task_version":"2.0","jspsych_version":"6.3.1"},{"item":78,"shape_set":3,"distractor":"pd","choice_order":[2,1,0,3],"correct":0,"choice":0,"accuracy":1,"rt":17005.399999976158,"screen_resolution":[1536,864],"minimum_resolution":1,"all_loaded":true,"item_set":3,"long_form":2,"trial_type":"mars","trial_index":53,"time_elapsed":419158,"internal_node_id":"0.0-31.0-2.0","experiment":"validation-B","task_version":"2.0","jspsych_version":"6.3.1","browser_interactions":0},{"rt":null,"stimulus":"<div style=\"font-size:24px;\">Loading puzzle:<br>24 / 24</div>","response":null,"trial_type":"html-keyboard-response","trial_index":54,"time_elapsed":420361,"internal_node_id":"0.0-32.0-1.0","experiment":"validation-B","task_version":"2.0","jspsych_version":"6.3.1"},{"item":44,"shape_set":2,"distractor":"pd","choice_order":[2,1,0,3],"correct":0,"choice":0,"accuracy":1,"rt":5175.399999976158,"screen_resolution":[1536,864],"minimum_resolution":1,"all_loaded":true,"item_set":3,"long_form":2,"trial_type":"mars","trial_index":55,"time_elapsed":425537,"internal_node_id":"0.0-32.0-2.0","experiment":"validation-B","task_version":"2.0","jspsych_version":"6.3.1","browser_interactions":0},{"value":[0,0,0],"trial_type":"call-function","trial_index":56,"time_elapsed":425538,"internal_node_id":"0.0-33.0","experiment":"validation-B","task_version":"2.0","jspsych_version":"6.3.1","interactions":"[{\"event\":\"fullscreenenter\",\"trial\":1,\"time\":2596}]"}]