[{"view_history":[{"page_index":0,"viewing_time":2302.5}],"rt":2303,"trial_type":"instructions","trial_index":0,"time_elapsed":2312,"internal_node_id":"0.0-0.0","experiment":"validation","task_version":"2.0","jspsych_version":"6.3.1"},{"rt":44930.80000001192,"responses":{"age":"21","gender-categorical":"Male","gender-free-response":"","ethnicity":"Not Hispanic or Latino","race":["White"],"education":"Bachelor degree"},"survey":"demographics","trial_type":"survey-demo","trial_index":1,"time_elapsed":47246,"internal_node_id":"0.0-1.0","experiment":"validation","task_version":"2.0","jspsych_version":"6.3.1"},{"responses":{"Q06":"3","Q08":"4","Q10":"3","Q03":"4","Q04":"3","Q07":"3","Q05":"3","Q11":"0","Q01":"3","Q09":"3","Q02":"3"},"rt":55251.5,"item_order":[5,7,9,2,3,6,4,10,0,8,1],"radio_events":[2159.699999988079,4894,6114.699999988079,10413,39591.19999998808,45884,48414.299999952316,49978.5,51777.799999952316,53604.59999996424,54873.799999952316],"key_events":[],"mouse_events":[2159.699999988079,3212.2999999523163,4300.399999976158,4894,6114.699999988079,6596.899999976158,9108.299999952316,9593.5,10013.799999952316,10413,38349.69999998808,38902,39591.19999998808,43274,45179.39999997616,45884,47850.89999997616,48414.299999952316,49978.5,51777.799999952316,53110.799999952316,53604.59999996424,54399.89999997616,54873.799999952316,55250.39999997616],"straightlining":0.5454545454545454,"zigzagging":0.4,"honeypot":0,"survey":"nfc10","trial_type":"survey-template","trial_index":2,"time_elapsed":102500,"internal_node_id":"0.0-2.0","experiment":"validation","task_version":"2.0","jspsych_version":"6.3.1","infrequency":0},{"responses":{"Q08":"4","Q02":"4","Q04":"3","Q05":"3","Q03":"3","Q01":"3","Q06":"4","Q07":"4","Q09":"4"},"rt":43940.59999996424,"item_order":[7,1,3,4,2,0,5,6,8],"radio_events":[3486.300000011921,4342.300000011921,5696.899999976158,8925.099999964237,21212.599999964237,38408,39531.39999997616,40283.80000001192,42551],"key_events":[],"mouse_events":[3486.300000011921,4342.300000011921,5181.5,5696.899999976158,7134.300000011921,7775.699999988079,8925.099999964237,19404.69999998808,19900.599999964237,20304.5,21212.599999964237,38408,39531.39999997616,40283.80000001192,41463.69999998808,42551,43939.80000001192],"straightlining":0.4444444444444444,"zigzagging":0.375,"honeypot":0,"survey":"pcf","trial_type":"survey-template","trial_index":3,"time_elapsed":146443,"internal_node_id":"0.0-3.0","experiment":"validation","task_version":"2.0","jspsych_version":"6.3.1","infrequency":0},{"rt":39280.80000001192,"response":{"Q0":4,"Q2":4,"Q1":4,"Q7":5,"Q3":4,"Q5":4,"Q6":1,"Q4":4,"Q8":0},"question_order":[0,2,1,7,3,5,6,4,8],"survey":"sns","trial_type":"survey-likert","trial_index":4,"time_elapsed":185727,"internal_node_id":"0.0-4.0","experiment":"validation","task_version":"2.0","jspsych_version":"6.3.1","infrequency":0},{"value":0,"trial_type":"call-function","trial_index":5,"time_elapsed":185728,"internal_node_id":"0.0-5.0","experiment":"validation","task_version":"2.0","jspsych_version":"6.3.1","interactions":"[{\"event\":\"blur\",\"trial\":2,\"time\":89678},{\"event\":\"focus\",\"trial\":2,\"time\":90456},{\"event\":\"blur\",\"trial\":4,\"time\":185305},{\"event\":\"focus\",\"trial\":4,\"time\":185680}]"}]