[{"view_history":[{"page_index":0,"viewing_time":3545.5}],"rt":3545.900000002235,"trial_type":"instructions","trial_index":0,"time_elapsed":3549,"internal_node_id":"0.0-0.0","experiment":"validation","task_version":"2.0","jspsych_version":"6.3.1"},{"rt":17345.39999999851,"responses":{"age":"23","gender-categorical":"Male","gender-free-response":"","ethnicity":"Not Hispanic or Latino","race":["White"],"education":"Bachelor degree"},"survey":"demographics","trial_type":"survey-demo","trial_index":1,"time_elapsed":20896,"internal_node_id":"0.0-1.0","experiment":"validation","task_version":"2.0","jspsych_version":"6.3.1"},{"responses":{"Q08":"2","Q05":"3","Q07":"4","Q03":"4","Q01":"4","Q06":"3","Q09":"4","Q04":"3","Q02":"4"},"rt":53931.900000002235,"item_order":[7,4,6,2,0,5,8,3,1],"radio_events":[4949.5,20313.800000000745,30973.900000002235,31839.300000000745,38553.10000000149,40786.20000000298,47296.400000002235,48489.10000000149,49853,51487.400000002235],"key_events":[],"mouse_events":[4949.5,20313.800000000745,25111.60000000149,26318.10000000149,27003.5,27824.400000002235,30973.900000002235,31839.300000000745,37803,38553.10000000149,40786.20000000298,45060.5,46779.300000000745,47296.400000002235,48489.10000000149,49413,49853,51487.400000002235,53433.5,53931.20000000298],"straightlining":0.4444444444444444,"zigzagging":0.5,"honeypot":0,"survey":"pcf","trial_type":"survey-template","trial_index":2,"time_elapsed":74830,"internal_node_id":"0.0-2.0","experiment":"validation","task_version":"2.0","jspsych_version":"6.3.1","infrequency":0},{"responses":{"Q06":"4","Q05":"4","Q02":"4","Q08":"4","Q03":"4","Q04":"3","Q07":"3","Q11":"0","Q01":"4","Q10":"2","Q09":"4"},"rt":126970.60000000149,"item_order":[5,4,1,7,2,3,6,10,0,9,8],"radio_events":[8830.199999999255,9247.900000002235,11546.10000000149,16027.199999999255,19509,24637,33282.800000000745,41550,51021.10000000149,56062.900000002235,66409.19999999925,105029.90000000224],"key_events":[],"mouse_events":[4763,5850.10000000149,8018.300000000745,8830.199999999255,9247.900000002235,10852.300000000745,11546.10000000149,16027.199999999255,18714.400000002235,19509,24136.300000000745,24637,33282.800000000745,40249,41550,45086.60000000149,51021.10000000149,56062.900000002235,65460.400000002235,66122.69999999925,66409.19999999925,105029.90000000224,126969.80000000075],"straightlining":0.45454545454545453,"zigzagging":0.5,"honeypot":0,"survey":"nfc10","trial_type":"survey-template","trial_index":3,"time_elapsed":201803,"internal_node_id":"0.0-3.0","experiment":"validation","task_version":"2.0","jspsych_version":"6.3.1","infrequency":0},{"rt":67021.10000000149,"response":{"Q5":0,"Q3":4,"Q8":0,"Q1":3,"Q0":4,"Q4":5,"Q6":1,"Q7":5,"Q2":4},"question_order":[5,3,8,1,0,4,6,7,2],"survey":"sns","trial_type":"survey-likert","trial_index":4,"time_elapsed":268825,"internal_node_id":"0.0-4.0","experiment":"validation","task_version":"2.0","jspsych_version":"6.3.1","infrequency":0},{"value":0,"trial_type":"call-function","trial_index":5,"time_elapsed":268826,"internal_node_id":"0.0-5.0","experiment":"validation","task_version":"2.0","jspsych_version":"6.3.1","interactions":"[{\"event\":\"blur\",\"trial\":2,\"time\":29579},{\"event\":\"focus\",\"trial\":2,\"time\":36298}]"}]