[{"view_history":[{"page_index":0,"viewing_time":4773.399999999441}],"rt":4773.799999999814,"trial_type":"instructions","trial_index":0,"time_elapsed":4779,"internal_node_id":"0.0-0.0","experiment":"validation","task_version":"2.0","jspsych_version":"6.3.1"},{"rt":9411.899999999441,"responses":{"age":"33","gender-categorical":"Male","gender-free-response":"","ethnicity":"Not Hispanic or Latino","race":["White"],"education":"Bachelor degree"},"survey":"demographics","trial_type":"survey-demo","trial_index":1,"time_elapsed":14193,"internal_node_id":"0.0-1.0","experiment":"validation","task_version":"2.0","jspsych_version":"6.3.1"},{"responses":{"Q08":"3","Q04":"3","Q03":"4","Q07":"4","Q06":"4","Q02":"4","Q09":"4","Q05":"4","Q01":"4"},"rt":34783.200000000186,"item_order":[7,3,2,6,5,1,8,4,0],"radio_events":[3215.7000000001863,5452.9000000003725,10766.5,12900.800000000745,20460.700000000186,21414.800000000745,23366.10000000056,28833.700000000186,30842,32171.10000000056,34087.40000000037],"key_events":[],"mouse_events":[3215.7000000001863,5452.9000000003725,10766.5,12900.800000000745,20460.700000000186,21414.800000000745,22436,23366.10000000056,28833.700000000186,30842,32171.10000000056,34087.40000000037,34782.5],"straightlining":0.6666666666666666,"zigzagging":0.375,"honeypot":0,"survey":"pcf","trial_type":"survey-template","trial_index":2,"time_elapsed":48978,"internal_node_id":"0.0-2.0","experiment":"validation","task_version":"2.0","jspsych_version":"6.3.1","infrequency":0},{"responses":{"Q09":"3","Q08":"3","Q05":"4","Q02":"4","Q07":"3","Q03":"4","Q01":"4","Q10":"4","Q06":"1","Q04":"4","Q11":"0"},"rt":25288.10000000056,"item_order":[8,7,4,1,6,2,0,9,5,3,10],"radio_events":[3850.7000000001863,4933.9000000003725,6567.100000000559,8623.799999999814,10348.600000000559,11513.700000000186,13221.900000000373,14575,16783.400000000373,21744.900000000373,24613.200000000186],"key_events":[],"mouse_events":[3850.7000000001863,4933.9000000003725,6567.100000000559,8623.799999999814,10348.600000000559,11513.700000000186,13221.900000000373,14575,16783.400000000373,18225.60000000056,20074.60000000056,21131.900000000373,21744.900000000373,24613.200000000186,25287.400000000373],"straightlining":0.36363636363636365,"zigzagging":0.4,"honeypot":0,"survey":"nfc10","trial_type":"survey-template","trial_index":3,"time_elapsed":74268,"internal_node_id":"0.0-3.0","experiment":"validation","task_version":"2.0","jspsych_version":"6.3.1","infrequency":0},{"rt":30489.39999999944,"response":{"Q7":4,"Q5":4,"Q2":5,"Q8":0,"Q6":2,"Q4":4,"Q1":3,"Q3":5,"Q0":3},"question_order":[7,5,2,8,6,4,1,3,0],"survey":"sns","trial_type":"survey-likert","trial_index":4,"time_elapsed":104760,"internal_node_id":"0.0-4.0","experiment":"validation","task_version":"2.0","jspsych_version":"6.3.1","infrequency":0},{"value":0,"trial_type":"call-function","trial_index":5,"time_elapsed":104761,"internal_node_id":"0.0-5.0","experiment":"validation","task_version":"2.0","jspsych_version":"6.3.1","interactions":"[]"}]