[{"view_history":[{"page_index":0,"viewing_time":1631.6000000014901}],"rt":1631.9000000022352,"trial_type":"instructions","trial_index":0,"time_elapsed":1646,"internal_node_id":"0.0-0.0","experiment":"validation","task_version":"2.0","jspsych_version":"6.3.1"},{"rt":6787.199999999255,"responses":{"age":"31","gender-categorical":"Male","gender-free-response":"","ethnicity":"Not Hispanic or Latino","race":["White"],"education":"Master degree or higher"},"survey":"demographics","trial_type":"survey-demo","trial_index":1,"time_elapsed":8435,"internal_node_id":"0.0-1.0","experiment":"validation","task_version":"2.0","jspsych_version":"6.3.1"},{"responses":{"Q06":"3","Q01":"3","Q04":"3","Q02":"3","Q09":"4","Q07":"4","Q08":"4","Q03":"4","Q05":"3"},"rt":23146.60000000149,"item_order":[5,0,3,1,8,6,7,2,4],"radio_events":[5407.199999999255,6844.699999999255,11812.300000000745,13377,15476.199999999255,17812.699999999255,19092.89999999851,20689.800000000745,22529.89999999851],"key_events":[],"mouse_events":[3843.5,5407.199999999255,6844.699999999255,11812.300000000745,13377,14958.60000000149,15476.199999999255,17223.699999999255,17812.699999999255,19092.89999999851,20689.800000000745,22186.39999999851,22529.89999999851,23145.39999999851],"straightlining":0.5555555555555556,"zigzagging":0.25,"honeypot":0,"survey":"pcf","trial_type":"survey-template","trial_index":2,"time_elapsed":31588,"internal_node_id":"0.0-2.0","experiment":"validation","task_version":"2.0","jspsych_version":"6.3.1","infrequency":0},{"rt":19600.10000000149,"response":{"Q7":5,"Q5":4,"Q8":0,"Q2":5,"Q1":5,"Q4":5,"Q6":0,"Q0":5,"Q3":5},"question_order":[7,5,8,2,1,4,6,0,3],"survey":"sns","trial_type":"survey-likert","trial_index":3,"time_elapsed":51195,"internal_node_id":"0.0-3.0","experiment":"validation","task_version":"2.0","jspsych_version":"6.3.1","infrequency":0},{"responses":{"Q09":"3","Q05":"4","Q01":"3","Q10":"3","Q03":"4","Q07":"3","Q06":"3","Q02":"4","Q11":"0","Q08":"4","Q04":"4"},"rt":32477.5,"item_order":[8,4,0,9,2,6,5,1,10,7,3],"radio_events":[4991.699999999255,6287,6967.39999999851,9179.39999999851,16838.099999997765,17858.39999999851,19171.300000000745,20945.5,22049.300000000745,23062.39999999851,26060,28701.5,31755.099999997765],"key_events":[],"mouse_events":[2270.099999997765,3516.800000000745,4991.699999999255,6287,6967.39999999851,9179.39999999851,10539.89999999851,16459.89999999851,16838.099999997765,17858.39999999851,19171.300000000745,20945.5,22049.300000000745,22587,23062.39999999851,26060,28701.5,30932.39999999851,31369.5,31755.099999997765,32476.300000000745],"straightlining":0.45454545454545453,"zigzagging":0.4,"honeypot":0,"survey":"nfc10","trial_type":"survey-template","trial_index":4,"time_elapsed":83679,"internal_node_id":"0.0-4.0","experiment":"validation","task_version":"2.0","jspsych_version":"6.3.1","infrequency":0},{"value":0,"trial_type":"call-function","trial_index":5,"time_elapsed":83683,"internal_node_id":"0.0-5.0","experiment":"validation","task_version":"2.0","jspsych_version":"6.3.1","interactions":"[]"}]