[{"view_history":[{"page_index":0,"viewing_time":2218.800000011921}],"rt":2219.100000023842,"trial_type":"instructions","trial_index":0,"time_elapsed":2223,"internal_node_id":"0.0-0.0","experiment":"validation","task_version":"2.0","jspsych_version":"6.3.1"},{"rt":12627.199999988079,"responses":{"age":"35","gender-categorical":"Male","gender-free-response":"","ethnicity":"Not Hispanic or Latino","race":["White"],"education":"Bachelor degree"},"survey":"demographics","trial_type":"survey-demo","trial_index":1,"time_elapsed":14851,"internal_node_id":"0.0-1.0","experiment":"validation","task_version":"2.0","jspsych_version":"6.3.1"},{"rt":40592.19999998808,"response":{"Q2":4,"Q1":4,"Q7":4,"Q6":1,"Q8":0,"Q4":4,"Q5":4,"Q3":4,"Q0":4},"question_order":[2,1,7,6,8,4,5,3,0],"survey":"sns","trial_type":"survey-likert","trial_index":2,"time_elapsed":55448,"internal_node_id":"0.0-2.0","experiment":"validation","task_version":"2.0","jspsych_version":"6.3.1","infrequency":0},{"responses":{"Q07":"4","Q02":"4","Q04":"3","Q09":"4","Q05":"3","Q06":"3","Q01":"3","Q03":"4","Q08":"3"},"rt":43870.5,"item_order":[6,1,3,8,4,5,0,2,7],"radio_events":[2560,20130.30000001192,24377.69999998808,25105.80000001192,27716.19999998808,29498.09999999404,34487.69999998808,35335.80000001192,39498,41478.19999998808,42983.69999998808],"key_events":[2560,19149.90000000596,20130.30000001192,24377.69999998808,25105.80000001192,27716.19999998808,29498.09999999404,33743.80000001192,34487.69999998808,35335.80000001192,39498,41478.19999998808,42983.69999998808,43869.59999999404],"mouse_events":[],"straightlining":0.5555555555555556,"zigzagging":0.375,"honeypot":0,"survey":"pcf","trial_type":"survey-template","trial_index":3,"time_elapsed":99322,"internal_node_id":"0.0-3.0","experiment":"validation","task_version":"2.0","jspsych_version":"6.3.1","infrequency":0},{"responses":{"Q05":"4","Q03":"4","Q10":"4","Q07":"3","Q01":"3","Q09":"3","Q08":"3","Q11":"0","Q06":"3","Q02":"3","Q04":"3"},"rt":53590.79999998212,"item_order":[4,2,9,6,0,8,7,10,5,1,3],"radio_events":[8612.09999999404,9641.799999982119,12588.40000000596,19212.19999998808,21641.90000000596,23341.90000000596,25918.19999998808,29472.19999998808,32872.19999998808,36264,40833.59999999404],"key_events":[7570.199999988079,8612.09999999404,9210,9641.799999982119,11736.299999982119,12588.40000000596,19212.19999998808,21641.90000000596,22860,23341.90000000596,25918.19999998808,28976.09999999404,29472.19999998808,32872.19999998808,35323.90000000596,36264,40833.59999999404,52359.69999998808,53589.90000000596],"mouse_events":[],"straightlining":0.5454545454545454,"zigzagging":0.2,"honeypot":0,"survey":"nfc10","trial_type":"survey-template","trial_index":4,"time_elapsed":152916,"internal_node_id":"0.0-4.0","experiment":"validation","task_version":"2.0","jspsych_version":"6.3.1","infrequency":0},{"value":0,"trial_type":"call-function","trial_index":5,"time_elapsed":152918,"internal_node_id":"0.0-5.0","experiment":"validation","task_version":"2.0","jspsych_version":"6.3.1","interactions":"[{\"event\":\"blur\",\"trial\":3,\"time\":62800},{\"event\":\"focus\",\"trial\":3,\"time\":63968},{\"event\":\"blur\",\"trial\":4,\"time\":147183},{\"event\":\"focus\",\"trial\":4,\"time\":151596}]"}]