[{"view_history":[{"page_index":0,"viewing_time":54051.39999999851}],"rt":54052.29999999702,"trial_type":"instructions","trial_index":0,"time_elapsed":54060,"internal_node_id":"0.0-0.0","experiment":"validation","task_version":"2.0","jspsych_version":"6.3.1"},{"rt":14503,"responses":{"age":"26","gender-categorical":"Female","gender-free-response":"","ethnicity":"Not Hispanic or Latino","race":["White"],"education":"Bachelor degree"},"survey":"demographics","trial_type":"survey-demo","trial_index":1,"time_elapsed":68565,"internal_node_id":"0.0-1.0","experiment":"validation","task_version":"2.0","jspsych_version":"6.3.1"},{"rt":46416.300000000745,"response":{"Q7":3,"Q0":0,"Q1":0,"Q4":2,"Q2":0,"Q5":1,"Q3":0,"Q6":1,"Q8":0},"question_order":[7,0,1,4,2,5,3,6,8],"survey":"sns","trial_type":"survey-likert","trial_index":2,"time_elapsed":114979,"internal_node_id":"0.0-2.0","experiment":"validation","task_version":"2.0","jspsych_version":"6.3.1","infrequency":0},{"responses":{"Q03":"3","Q04":"4","Q09":"4","Q05":"3","Q01":"3","Q02":"3","Q06":"3","Q08":"0","Q07":"4"},"rt":281739.09999999776,"item_order":[2,3,8,4,0,1,5,7,6],"radio_events":[217467.8999999985,238286.5,240686.3999999985,245688.5,248281,267075.09999999776,273434.19999999925,277150.30000000075,280167.19999999925],"key_events":[],"mouse_events":[217467.8999999985,238286.5,240686.3999999985,245688.5,248281,267075.09999999776,273434.19999999925,277150.30000000075,280167.19999999925,281737.59999999776],"straightlining":0.5555555555555556,"zigzagging":0.375,"honeypot":0,"survey":"pcf","trial_type":"survey-template","trial_index":3,"time_elapsed":396720,"internal_node_id":"0.0-3.0","experiment":"validation","task_version":"2.0","jspsych_version":"6.3.1","infrequency":0},{"responses":{"Q08":"2","Q01":"1","Q04":"1","Q09":"2","Q03":"3","Q02":"1","Q07":"2","Q06":"1","Q10":"2","Q05":"3","Q11":"0"},"rt":767886.5999999978,"item_order":[7,0,3,8,2,1,6,5,9,4,10],"radio_events":[112092,147974.09999999776,159117.30000000075,162311.8999999985,164506.19999999925,172206.09999999776,176251.69999999925,179248.80000000075,233695.3999999985,757184.6999999993,766441.1999999993],"key_events":[],"mouse_events":[112092,147974.09999999776,159117.30000000075,162311.8999999985,164506.19999999925,172206.09999999776,176251.69999999925,179248.80000000075,233695.3999999985,757184.6999999993,766441.1999999993,767885.8000000007],"straightlining":0.45454545454545453,"zigzagging":0.8,"honeypot":0,"survey":"nfc10","trial_type":"survey-template","trial_index":4,"time_elapsed":1164644,"internal_node_id":"0.0-4.0","experiment":"validation","task_version":"2.0","jspsych_version":"6.3.1","infrequency":0},{"value":0,"trial_type":"call-function","trial_index":5,"time_elapsed":1164646,"internal_node_id":"0.0-5.0","experiment":"validation","task_version":"2.0","jspsych_version":"6.3.1","interactions":"[{\"event\":\"blur\",\"trial\":3,\"time\":143421},{\"event\":\"focus\",\"trial\":3,\"time\":331111},{\"event\":\"blur\",\"trial\":4,\"time\":633451},{\"event\":\"focus\",\"trial\":4,\"time\":642850},{\"event\":\"blur\",\"trial\":4,\"time\":656936},{\"event\":\"focus\",\"trial\":4,\"time\":658891},{\"event\":\"blur\",\"trial\":4,\"time\":829052},{\"event\":\"focus\",\"trial\":4,\"time\":1124698}]"}]