[{"view_history":[{"page_index":0,"viewing_time":2264.89999999851}],"rt":2265.10000000149,"trial_type":"instructions","trial_index":0,"time_elapsed":2296,"internal_node_id":"0.0-0.0","experiment":"validation","task_version":"2.0","jspsych_version":"6.3.1"},{"rt":30573.900000002235,"responses":{"age":"42","gender-categorical":"Male","gender-free-response":"","ethnicity":"Not Hispanic or Latino","race":["White"],"education":"Master degree or higher"},"survey":"demographics","trial_type":"survey-demo","trial_index":1,"time_elapsed":32873,"internal_node_id":"0.0-1.0","experiment":"validation","task_version":"2.0","jspsych_version":"6.3.1"},{"responses":{"Q01":"4","Q02":"4","Q05":"4","Q09":"4","Q06":"4","Q03":"4","Q04":"4","Q07":"4","Q08":"4"},"rt":20299.300000000745,"item_order":[0,1,4,8,5,2,3,6,7],"radio_events":[4478,5534.900000002235,6191,8079.900000002235,10823.400000002235,14127.900000002235,15623.900000002235,17837.300000000745,18565.900000002235],"key_events":[],"mouse_events":[4478,5534.900000002235,6191,8079.900000002235,10823.400000002235,14127.900000002235,15623.900000002235,16323.800000000745,16820.900000002235,17837.300000000745,18565.900000002235,20298.10000000149],"straightlining":0.8888888888888888,"zigzagging":0.25,"honeypot":0,"survey":"pcf","trial_type":"survey-template","trial_index":2,"time_elapsed":53180,"internal_node_id":"0.0-2.0","experiment":"validation","task_version":"2.0","jspsych_version":"6.3.1","infrequency":0},{"responses":{"Q06":"1","Q07":"3","Q01":"2","Q02":"2","Q05":"3","Q11":"0","Q08":"3","Q03":"4","Q04":"3","Q09":"2","Q10":"3"},"rt":200575.5,"item_order":[5,6,0,1,4,10,7,2,3,8,9],"radio_events":[149031.80000000075,152536.6000000015,155272.5,157704.90000000224,160465.80000000075,161153.80000000075,164994,167657.80000000075,171449.90000000224,173563.70000000298,176986.90000000224,178883.6000000015,199605.6000000015],"key_events":[],"mouse_events":[149031.80000000075,152536.6000000015,155272.5,157704.90000000224,160465.80000000075,161153.80000000075,164994,167657.80000000075,171449.90000000224,173563.70000000298,176986.90000000224,178883.6000000015,199605.6000000015,200573.80000000075],"straightlining":0.2727272727272727,"zigzagging":0.6,"honeypot":0,"survey":"nfc10","trial_type":"survey-template","trial_index":3,"time_elapsed":253767,"internal_node_id":"0.0-3.0","experiment":"validation","task_version":"2.0","jspsych_version":"6.3.1","infrequency":0},{"rt":51653.60000000149,"response":{"Q1":2,"Q3":3,"Q5":2,"Q4":4,"Q0":2,"Q8":0,"Q2":3,"Q7":4,"Q6":1},"question_order":[1,3,5,4,0,8,2,7,6],"survey":"sns","trial_type":"survey-likert","trial_index":4,"time_elapsed":305428,"internal_node_id":"0.0-4.0","experiment":"validation","task_version":"2.0","jspsych_version":"6.3.1","infrequency":0},{"value":0,"trial_type":"call-function","trial_index":5,"time_elapsed":305433,"internal_node_id":"0.0-5.0","experiment":"validation","task_version":"2.0","jspsych_version":"6.3.1","interactions":"[{\"event\":\"blur\",\"trial\":3,\"time\":55343},{\"event\":\"focus\",\"trial\":3,\"time\":196372}]"}]