[{"view_history":[{"page_index":0,"viewing_time":2622.199999988079}],"rt":2622.5,"trial_type":"instructions","trial_index":0,"time_elapsed":2627,"internal_node_id":"0.0-0.0","experiment":"validation","task_version":"2.0","jspsych_version":"6.3.1"},{"rt":11247.099999964237,"responses":{"age":"36","gender-categorical":"Male","gender-free-response":"","ethnicity":"Not Hispanic or Latino","race":["White"],"education":"Associate degree"},"survey":"demographics","trial_type":"survey-demo","trial_index":1,"time_elapsed":13876,"internal_node_id":"0.0-1.0","experiment":"validation","task_version":"2.0","jspsych_version":"6.3.1"},{"rt":58326,"response":{"Q7":4,"Q5":3,"Q4":3,"Q0":2,"Q2":5,"Q6":1,"Q1":5,"Q3":5,"Q8":0},"question_order":[7,5,4,0,2,6,1,3,8],"survey":"sns","trial_type":"survey-likert","trial_index":2,"time_elapsed":72206,"internal_node_id":"0.0-2.0","experiment":"validation","task_version":"2.0","jspsych_version":"6.3.1","infrequency":0},{"responses":{"Q10":"3","Q09":"3","Q01":"3","Q02":"3","Q05":"1","Q11":"0","Q06":"3","Q03":"4","Q08":"3","Q07":"4","Q04":"3"},"rt":238244.59999996424,"item_order":[9,8,0,1,4,10,5,2,7,6,3],"radio_events":[5802.099999964237,7425.699999988079,16303.5,31270.899999976158,35311.89999997616,59503.39999997616,90205.39999997616,91882.30000001192,92862.30000001192,93098,94528.30000001192,99233.69999998808,145487.30000001192,152982.19999998808,154112.09999996424,157729.30000001192,158077.19999998808,159676.09999996424,160639.80000001192,210972.80000001192,232773.69999998808,234255.5],"key_events":[],"mouse_events":[4781.800000011921,5802.099999964237,7425.699999988079,16303.5,30861.69999998808,31270.899999976158,32139.69999998808,33687.89999997616,34365.89999997616,34657.69999998808,35311.89999997616,59503.39999997616,88849.69999998808,89479.30000001192,89903.39999997616,90205.39999997616,90432.09999996424,90855.39999997616,91625.80000001192,91882.30000001192,92248.19999998808,92595.39999997616,92862.30000001192,93098,93736.09999996424,94528.30000001192,95314,98849.80000001192,99233.69999998808,118501.69999998808,145487.30000001192,151373.69999998808,152217.89999997616,152982.19999998808,154112.09999996424,155476.09999996424,156583.69999998808,157399.30000001192,157729.30000001192,158077.19999998808,158791.19999998808,159676.09999996424,160639.80000001192,210265.89999997616,210972.80000001192,232180.69999998808,232773.69999998808,233804.69999998808,234255.5,238243.39999997616],"straightlining":0.6363636363636364,"zigzagging":0.1,"honeypot":0,"survey":"nfc10","trial_type":"survey-template","trial_index":3,"time_elapsed":310453,"internal_node_id":"0.0-3.0","experiment":"validation","task_version":"2.0","jspsych_version":"6.3.1","infrequency":0},{"responses":{"Q03":"2","Q02":"3","Q08":"3","Q04":"3","Q09":"4","Q07":"2","Q06":"2","Q01":"3","Q05":"2"},"rt":30591,"item_order":[2,1,7,3,8,6,5,0,4],"radio_events":[5021.800000011921,5972.400000035763,8788.300000011921,10676.5,12496.5,13730.800000011921,17198.600000023842,21014.30000001192,22506.100000023842,24650.30000001192,26348.30000001192,28490.80000001192,29721],"key_events":[],"mouse_events":[3974.600000023842,4394.700000047684,5021.800000011921,5972.400000035763,8406.800000011921,8788.300000011921,9538.300000011921,10269.100000023842,10676.5,11380.400000035763,11924.100000023842,12496.5,12930.900000035763,13730.800000011921,14366.900000035763,14716.400000035763,15012.5,16974.5,17198.600000023842,19996.600000023842,21014.30000001192,21621.100000023842,22064.5,22506.100000023842,23466.400000035763,23978.30000001192,24650.30000001192,25386.400000035763,26348.30000001192,26994.30000001192,28490.80000001192,29398.5,29721,30590.100000023842],"straightlining":0.4444444444444444,"zigzagging":0.375,"honeypot":0,"survey":"pcf","trial_type":"survey-template","trial_index":4,"time_elapsed":341046,"internal_node_id":"0.0-4.0","experiment":"validation","task_version":"2.0","jspsych_version":"6.3.1","infrequency":0},{"value":0,"trial_type":"call-function","trial_index":5,"time_elapsed":341047,"internal_node_id":"0.0-5.0","experiment":"validation","task_version":"2.0","jspsych_version":"6.3.1","interactions":"[]"}]