[{"view_history":[{"page_index":0,"viewing_time":6851.300000011921}],"rt":6854.600000023842,"trial_type":"instructions","trial_index":0,"time_elapsed":7084,"internal_node_id":"0.0-0.0","experiment":"validation","task_version":"2.0","jspsych_version":"6.3.1"},{"rt":24307.099999964237,"responses":{"age":"34","gender-categorical":"Female","gender-free-response":"","ethnicity":"Not Hispanic or Latino","race":["White"],"education":"Bachelor degree"},"survey":"demographics","trial_type":"survey-demo","trial_index":1,"time_elapsed":31398,"internal_node_id":"0.0-1.0","experiment":"validation","task_version":"2.0","jspsych_version":"6.3.1"},{"rt":118215.30000001192,"response":{"Q3":4,"Q8":0,"Q1":4,"Q7":5,"Q6":3,"Q0":4,"Q4":3,"Q2":4,"Q5":1},"question_order":[3,8,1,7,6,0,4,2,5],"survey":"sns","trial_type":"survey-likert","trial_index":2,"time_elapsed":149628,"internal_node_id":"0.0-2.0","experiment":"validation","task_version":"2.0","jspsych_version":"6.3.1","infrequency":0},{"responses":{"Q06":"2","Q10":"2","Q07":"3","Q08":"3","Q05":"3","Q02":"1","Q09":"3","Q11":"1","Q03":"3","Q01":"2","Q04":"3"},"rt":143413.90000003576,"item_order":[5,9,6,7,4,1,8,10,2,0,3],"radio_events":[19543.600000023842,53311.700000047684,70475.10000002384,75721.60000002384,93072.90000003576,98842.30000001192,104948.10000002384,124735.5,130932.70000004768,136553.80000001192,142416.20000004768],"key_events":[],"mouse_events":[5440.600000023842,5623.300000011921,5808.300000011921,18697,19543.600000023842,21272,21454.80000001192,21625.80000001192,21785.5,53311.700000047684,56404.40000003576,56576.30000001192,56760.40000003576,70475.10000002384,72632.60000002384,75721.60000002384,77203.5,77374.30000001192,77545.80000001192,93072.90000003576,98168.80000001192,98842.30000001192,99467.70000004768,104948.10000002384,112797.20000004768,113031.70000004768,113228.40000003576,124735.5,125887.40000003576,130932.70000004768,136553.80000001192,142416.20000004768,143409.40000003576],"straightlining":0.45454545454545453,"zigzagging":0.3,"honeypot":0,"survey":"nfc10","trial_type":"survey-template","trial_index":3,"time_elapsed":293055,"internal_node_id":"0.0-3.0","experiment":"validation","task_version":"2.0","jspsych_version":"6.3.1","infrequency":0.5},{"responses":{"Q09":"4","Q03":"3","Q05":"3","Q04":"3","Q02":"2","Q08":"2","Q01":"2","Q06":"2","Q07":"3"},"rt":51906.5,"item_order":[8,2,4,3,1,7,0,5,6],"radio_events":[10751.599999964237,14716.699999988079,20216.899999976158,23216.899999976158,29732.5,35418.39999997616,39835.30000001192,43628.09999996424,48141.59999996424,50887.19999998808],"key_events":[],"mouse_events":[10751.599999964237,14716.699999988079,20216.899999976158,23216.899999976158,29732.5,30491,35418.39999997616,39835.30000001192,43628.09999996424,48141.59999996424,50887.19999998808,51903.5],"straightlining":0.4444444444444444,"zigzagging":0.25,"honeypot":0,"survey":"pcf","trial_type":"survey-template","trial_index":4,"time_elapsed":344971,"internal_node_id":"0.0-4.0","experiment":"validation","task_version":"2.0","jspsych_version":"6.3.1","infrequency":0},{"value":0.5,"trial_type":"call-function","trial_index":5,"time_elapsed":344977,"internal_node_id":"0.0-5.0","experiment":"validation","task_version":"2.0","jspsych_version":"6.3.1","interactions":"[{\"event\":\"blur\",\"trial\":2,\"time\":42330},{\"event\":\"focus\",\"trial\":2,\"time\":54161},{\"event\":\"blur\",\"trial\":2,\"time\":91607},{\"event\":\"focus\",\"trial\":2,\"time\":111002},{\"event\":\"blur\",\"trial\":3,\"time\":157627},{\"event\":\"focus\",\"trial\":3,\"time\":166182},{\"event\":\"blur\",\"trial\":3,\"time\":172716},{\"event\":\"focus\",\"trial\":3,\"time\":201479},{\"event\":\"blur\",\"trial\":3,\"time\":211635},{\"event\":\"focus\",\"trial\":3,\"time\":218405},{\"event\":\"blur\",\"trial\":3,\"time\":228437},{\"event\":\"focus\",\"trial\":3,\"time\":239983},{\"event\":\"blur\",\"trial\":3,\"time\":265405},{\"event\":\"focus\",\"trial\":3,\"time\":272377}]"}]