subject,trial,dimension,item_set,test_form,stimulus,distractor,accuracy,rt
076hlg2u9qp5j02ui073rpxd,1,2,3,1.0,1,pd,1.0,1.34
076hlg2u9qp5j02ui073rpxd,2,2,3,1.0,6,pd,1.0,6.655
076hlg2u9qp5j02ui073rpxd,3,3,3,1.0,15,pd,1.0,2.793
076hlg2u9qp5j02ui073rpxd,4,3,3,1.0,10,pd,0.0,6.078
076hlg2u9qp5j02ui073rpxd,5,4,3,1.0,12,pd,0.0,7.464
076hlg2u9qp5j02ui073rpxd,6,4,3,1.0,23,pd,1.0,3.094
076hlg2u9qp5j02ui073rpxd,7,5,3,1.0,52,pd,1.0,7.454
076hlg2u9qp5j02ui073rpxd,8,5,3,1.0,59,pd,1.0,3.517
0cpxpi0rwueyzwtmwm09r1gi,1,2,3,1.0,1,pd,1.0,5.645
0cpxpi0rwueyzwtmwm09r1gi,2,2,3,1.0,6,pd,1.0,16.535
0cpxpi0rwueyzwtmwm09r1gi,3,3,3,1.0,15,pd,,
0cpxpi0rwueyzwtmwm09r1gi,4,3,3,1.0,10,pd,0.0,8.71
0cpxpi0rwueyzwtmwm09r1gi,5,4,3,1.0,16,pd,1.0,18.758
0cpxpi0rwueyzwtmwm09r1gi,6,4,3,1.0,17,pd,0.0,9.775
0cpxpi0rwueyzwtmwm09r1gi,7,5,3,1.0,52,pd,1.0,7.462
0cpxpi0rwueyzwtmwm09r1gi,8,5,3,1.0,59,pd,0.0,13.415
0elzwr27vqu4uwbj8gg93lug,1,2,3,1.0,19,pd,1.0,7.898
0elzwr27vqu4uwbj8gg93lug,2,2,3,1.0,20,pd,1.0,7.989
0elzwr27vqu4uwbj8gg93lug,3,3,3,1.0,11,pd,1.0,10.827
0elzwr27vqu4uwbj8gg93lug,4,3,3,1.0,18,pd,0.0,11.415
0elzwr27vqu4uwbj8gg93lug,5,4,3,1.0,16,pd,1.0,8.811
0elzwr27vqu4uwbj8gg93lug,6,4,3,1.0,17,pd,1.0,12.861
0elzwr27vqu4uwbj8gg93lug,7,5,3,1.0,52,pd,1.0,11.632
0elzwr27vqu4uwbj8gg93lug,8,5,3,1.0,59,pd,0.0,15.189
10vsq79n9pi9zrrc7ihh4gpb,1,2,3,1.0,19,pd,0.0,6.973
10vsq79n9pi9zrrc7ihh4gpb,2,2,3,1.0,20,pd,1.0,8.779
10vsq79n9pi9zrrc7ihh4gpb,3,3,3,1.0,11,pd,1.0,17.587
10vsq79n9pi9zrrc7ihh4gpb,4,3,3,1.0,18,pd,1.0,20.583
10vsq79n9pi9zrrc7ihh4gpb,5,4,3,1.0,12,pd,0.0,6.201
10vsq79n9pi9zrrc7ihh4gpb,6,4,3,1.0,23,pd,1.0,8.973
10vsq79n9pi9zrrc7ihh4gpb,7,5,3,1.0,52,pd,1.0,15.749
10vsq79n9pi9zrrc7ihh4gpb,8,5,3,1.0,59,pd,1.0,7.102
1fpmgsend1l8bjvx30truqd4,1,2,3,1.0,1,pd,1.0,4.215
1fpmgsend1l8bjvx30truqd4,2,2,3,1.0,6,pd,1.0,16.281
1fpmgsend1l8bjvx30truqd4,3,3,3,1.0,15,pd,1.0,18.008
1fpmgsend1l8bjvx30truqd4,4,3,3,1.0,10,pd,0.0,16.399
1fpmgsend1l8bjvx30truqd4,5,4,3,1.0,16,pd,1.0,10.672
1fpmgsend1l8bjvx30truqd4,6,4,3,1.0,17,pd,1.0,20.289
1fpmgsend1l8bjvx30truqd4,7,5,3,1.0,52,pd,1.0,18.145
1fpmgsend1l8bjvx30truqd4,8,5,3,1.0,59,pd,1.0,18.912
1gbumjgvj8h8v6uiq4vwef7w,1,2,3,1.0,1,pd,1.0,1.895
1gbumjgvj8h8v6uiq4vwef7w,2,2,3,1.0,6,pd,0.0,10.023
1gbumjgvj8h8v6uiq4vwef7w,3,3,3,1.0,15,pd,0.0,14.09
1gbumjgvj8h8v6uiq4vwef7w,4,3,3,1.0,10,pd,1.0,7.906
1gbumjgvj8h8v6uiq4vwef7w,5,4,3,1.0,16,pd,1.0,10.746
1gbumjgvj8h8v6uiq4vwef7w,6,4,3,1.0,17,pd,1.0,26.165
1gbumjgvj8h8v6uiq4vwef7w,7,5,3,1.0,52,pd,0.0,8.893
1gbumjgvj8h8v6uiq4vwef7w,8,5,3,1.0,59,pd,0.0,13.32
1i2nvqvazywxiayn3v5v16ej,1,2,3,1.0,1,pd,1.0,1.603
1i2nvqvazywxiayn3v5v16ej,2,2,3,1.0,6,pd,0.0,2.646
1i2nvqvazywxiayn3v5v16ej,3,3,3,1.0,11,pd,0.0,1.658
1i2nvqvazywxiayn3v5v16ej,4,3,3,1.0,18,pd,0.0,0.838
1i2nvqvazywxiayn3v5v16ej,5,4,3,1.0,16,pd,0.0,0.977
1i2nvqvazywxiayn3v5v16ej,6,4,3,1.0,17,pd,0.0,3.295
1i2nvqvazywxiayn3v5v16ej,7,5,3,1.0,14,pd,0.0,2.05
1i2nvqvazywxiayn3v5v16ej,8,5,3,1.0,26,pd,1.0,1.331
1wt4mr7p6qdp72srb0u5esx0,1,2,3,1.0,19,pd,1.0,10.467
1wt4mr7p6qdp72srb0u5esx0,2,2,3,1.0,20,pd,1.0,10.877
1wt4mr7p6qdp72srb0u5esx0,3,3,3,1.0,15,pd,0.0,11.836
1wt4mr7p6qdp72srb0u5esx0,4,3,3,1.0,10,pd,1.0,12.809
1wt4mr7p6qdp72srb0u5esx0,5,4,3,1.0,12,pd,0.0,4.198
1wt4mr7p6qdp72srb0u5esx0,6,4,3,1.0,23,pd,1.0,19.466
1wt4mr7p6qdp72srb0u5esx0,7,5,3,1.0,14,pd,1.0,24.656
1wt4mr7p6qdp72srb0u5esx0,8,5,3,1.0,26,pd,1.0,27.824
1zskm2bzi8y5p5g4j8qhpdz6,1,2,3,1.0,19,pd,1.0,7.679
1zskm2bzi8y5p5g4j8qhpdz6,2,2,3,1.0,20,pd,1.0,12.67
1zskm2bzi8y5p5g4j8qhpdz6,3,3,3,1.0,15,pd,0.0,10.463
1zskm2bzi8y5p5g4j8qhpdz6,4,3,3,1.0,10,pd,1.0,6.365
1zskm2bzi8y5p5g4j8qhpdz6,5,4,3,1.0,16,pd,1.0,14.126
1zskm2bzi8y5p5g4j8qhpdz6,6,4,3,1.0,17,pd,0.0,18.27
1zskm2bzi8y5p5g4j8qhpdz6,7,5,3,1.0,14,pd,1.0,15.79
1zskm2bzi8y5p5g4j8qhpdz6,8,5,3,1.0,26,pd,0.0,16.391
269f5wxawxko5vbndnerjhvt,1,2,3,1.0,19,pd,1.0,4.985
269f5wxawxko5vbndnerjhvt,2,2,3,1.0,20,pd,1.0,6.574
269f5wxawxko5vbndnerjhvt,3,3,3,1.0,11,pd,1.0,7.305
269f5wxawxko5vbndnerjhvt,4,3,3,1.0,18,pd,0.0,9.531
269f5wxawxko5vbndnerjhvt,5,4,3,1.0,16,pd,1.0,7.779
269f5wxawxko5vbndnerjhvt,6,4,3,1.0,17,pd,1.0,8.687
269f5wxawxko5vbndnerjhvt,7,5,3,1.0,52,pd,1.0,11.489
269f5wxawxko5vbndnerjhvt,8,5,3,1.0,59,pd,1.0,20.262
2h7dpwlrhggmhm1t3amwo0oj,1,2,3,1.0,1,pd,1.0,4.422
2h7dpwlrhggmhm1t3amwo0oj,2,2,3,1.0,6,pd,1.0,8.251
2h7dpwlrhggmhm1t3amwo0oj,3,3,3,1.0,11,pd,1.0,14.433
2h7dpwlrhggmhm1t3amwo0oj,4,3,3,1.0,18,pd,1.0,9.992
2h7dpwlrhggmhm1t3amwo0oj,5,4,3,1.0,16,pd,1.0,11.407
2h7dpwlrhggmhm1t3amwo0oj,6,4,3,1.0,17,pd,1.0,18.512
2h7dpwlrhggmhm1t3amwo0oj,7,5,3,1.0,52,pd,1.0,13.048
2h7dpwlrhggmhm1t3amwo0oj,8,5,3,1.0,59,pd,0.0,23.185
2vx94rtcv5761j9exne2q7tc,1,2,3,1.0,19,pd,0.0,8.588
2vx94rtcv5761j9exne2q7tc,2,2,3,1.0,20,pd,0.0,18.447
2vx94rtcv5761j9exne2q7tc,3,3,3,1.0,11,pd,0.0,18.133
2vx94rtcv5761j9exne2q7tc,4,3,3,1.0,18,pd,1.0,17.643
2vx94rtcv5761j9exne2q7tc,5,4,3,1.0,12,pd,1.0,17.35
2vx94rtcv5761j9exne2q7tc,6,4,3,1.0,23,pd,1.0,9.405
2vx94rtcv5761j9exne2q7tc,7,5,3,1.0,52,pd,0.0,28.809
2vx94rtcv5761j9exne2q7tc,8,5,3,1.0,59,pd,0.0,28.986
35aldkywb2cdl1crrf5iyowk,1,2,3,1.0,1,pd,1.0,1.934
35aldkywb2cdl1crrf5iyowk,2,2,3,1.0,6,pd,1.0,5.535
35aldkywb2cdl1crrf5iyowk,3,3,3,1.0,11,pd,0.0,11.029
35aldkywb2cdl1crrf5iyowk,4,3,3,1.0,18,pd,0.0,9.014
35aldkywb2cdl1crrf5iyowk,5,4,3,1.0,12,pd,0.0,5.752
35aldkywb2cdl1crrf5iyowk,6,4,3,1.0,23,pd,1.0,5.465
35aldkywb2cdl1crrf5iyowk,7,5,3,1.0,14,pd,0.0,10.924
35aldkywb2cdl1crrf5iyowk,8,5,3,1.0,26,pd,0.0,8.236
3d10c17cmj2694l83ha5s0bz,1,2,3,1.0,19,pd,1.0,8.697
3d10c17cmj2694l83ha5s0bz,2,2,3,1.0,20,pd,1.0,15.508
3d10c17cmj2694l83ha5s0bz,3,3,3,1.0,11,pd,0.0,16.538
3d10c17cmj2694l83ha5s0bz,4,3,3,1.0,18,pd,1.0,16.49
3d10c17cmj2694l83ha5s0bz,5,4,3,1.0,12,pd,1.0,24.631
3d10c17cmj2694l83ha5s0bz,6,4,3,1.0,23,pd,1.0,11.315
3d10c17cmj2694l83ha5s0bz,7,5,3,1.0,14,pd,0.0,24.392
3d10c17cmj2694l83ha5s0bz,8,5,3,1.0,26,pd,1.0,13.265
3ec999ycpel7dfncdwejf065,1,2,3,1.0,19,pd,1.0,8.711
3ec999ycpel7dfncdwejf065,2,2,3,1.0,20,pd,1.0,3.572
3ec999ycpel7dfncdwejf065,3,3,3,1.0,15,pd,0.0,4.747
3ec999ycpel7dfncdwejf065,4,3,3,1.0,10,pd,0.0,13.686
3ec999ycpel7dfncdwejf065,5,4,3,1.0,12,pd,0.0,9.131
3ec999ycpel7dfncdwejf065,6,4,3,1.0,23,pd,1.0,9.499
3ec999ycpel7dfncdwejf065,7,5,3,1.0,14,pd,0.0,14.506
3ec999ycpel7dfncdwejf065,8,5,3,1.0,26,pd,1.0,11.997
3pb65a6ips5u5tm3kthitq9r,1,2,3,1.0,1,pd,1.0,2.341
3pb65a6ips5u5tm3kthitq9r,2,2,3,1.0,6,pd,1.0,14.601
3pb65a6ips5u5tm3kthitq9r,3,3,3,1.0,15,pd,1.0,23.307
3pb65a6ips5u5tm3kthitq9r,4,3,3,1.0,10,pd,1.0,18.649
3pb65a6ips5u5tm3kthitq9r,5,4,3,1.0,12,pd,1.0,16.941
3pb65a6ips5u5tm3kthitq9r,6,4,3,1.0,23,pd,1.0,12.093
3pb65a6ips5u5tm3kthitq9r,7,5,3,1.0,52,pd,,
3pb65a6ips5u5tm3kthitq9r,8,5,3,1.0,59,pd,0.0,17.975
47ykiekww9y3m9xiv79o4xp8,1,2,3,1.0,1,pd,1.0,2.711
47ykiekww9y3m9xiv79o4xp8,2,2,3,1.0,6,pd,1.0,17.157
47ykiekww9y3m9xiv79o4xp8,3,3,3,1.0,15,pd,0.0,27.854
47ykiekww9y3m9xiv79o4xp8,4,3,3,1.0,10,pd,1.0,19.27
47ykiekww9y3m9xiv79o4xp8,5,4,3,1.0,16,pd,1.0,7.293
47ykiekww9y3m9xiv79o4xp8,6,4,3,1.0,17,pd,0.0,12.532
47ykiekww9y3m9xiv79o4xp8,7,5,3,1.0,14,pd,1.0,16.967
47ykiekww9y3m9xiv79o4xp8,8,5,3,1.0,26,pd,1.0,11.082
4fqdfdjmop2egr2j5gwum6dv,1,2,3,1.0,1,pd,1.0,4.023
4fqdfdjmop2egr2j5gwum6dv,2,2,3,1.0,6,pd,1.0,7.475
4fqdfdjmop2egr2j5gwum6dv,3,3,3,1.0,11,pd,1.0,24.555
4fqdfdjmop2egr2j5gwum6dv,4,3,3,1.0,18,pd,0.0,20.07
4fqdfdjmop2egr2j5gwum6dv,5,4,3,1.0,16,pd,1.0,9.47
4fqdfdjmop2egr2j5gwum6dv,6,4,3,1.0,17,pd,1.0,22.676
4fqdfdjmop2egr2j5gwum6dv,7,5,3,1.0,52,pd,1.0,17.473
4fqdfdjmop2egr2j5gwum6dv,8,5,3,1.0,59,pd,0.0,18.434
4usywut659xwn8vd8ebcvt9p,1,2,3,1.0,19,pd,0.0,8.942
4usywut659xwn8vd8ebcvt9p,2,2,3,1.0,20,pd,1.0,10.48
4usywut659xwn8vd8ebcvt9p,3,3,3,1.0,15,pd,1.0,10.532
4usywut659xwn8vd8ebcvt9p,4,3,3,1.0,10,pd,1.0,12.025
4usywut659xwn8vd8ebcvt9p,5,4,3,1.0,12,pd,0.0,14.629
4usywut659xwn8vd8ebcvt9p,6,4,3,1.0,23,pd,1.0,9.842
4usywut659xwn8vd8ebcvt9p,7,5,3,1.0,14,pd,0.0,14.427
4usywut659xwn8vd8ebcvt9p,8,5,3,1.0,26,pd,1.0,15.687
4zcrmlklswop6kcqvyc11gdc,1,2,3,1.0,19,pd,1.0,5.943
4zcrmlklswop6kcqvyc11gdc,2,2,3,1.0,20,pd,0.0,5.655
4zcrmlklswop6kcqvyc11gdc,3,3,3,1.0,15,pd,1.0,5.655
4zcrmlklswop6kcqvyc11gdc,4,3,3,1.0,10,pd,1.0,8.647
4zcrmlklswop6kcqvyc11gdc,5,4,3,1.0,16,pd,1.0,4.544
4zcrmlklswop6kcqvyc11gdc,6,4,3,1.0,17,pd,0.0,5.784
4zcrmlklswop6kcqvyc11gdc,7,5,3,1.0,52,pd,0.0,6.536
4zcrmlklswop6kcqvyc11gdc,8,5,3,1.0,59,pd,0.0,6.654
58unjwdq1szxwtav4c281qfc,1,2,3,1.0,19,pd,1.0,12.214
58unjwdq1szxwtav4c281qfc,2,2,3,1.0,20,pd,0.0,12.279
58unjwdq1szxwtav4c281qfc,3,3,3,1.0,15,pd,0.0,20.558
58unjwdq1szxwtav4c281qfc,4,3,3,1.0,10,pd,1.0,12.207
58unjwdq1szxwtav4c281qfc,5,4,3,1.0,12,pd,0.0,15.615
58unjwdq1szxwtav4c281qfc,6,4,3,1.0,23,pd,1.0,10.591
58unjwdq1szxwtav4c281qfc,7,5,3,1.0,14,pd,0.0,12.76
58unjwdq1szxwtav4c281qfc,8,5,3,1.0,26,pd,1.0,8.768
5ad0fxo4nksxnoxek6jnwpqh,1,2,3,1.0,19,pd,1.0,8.175
5ad0fxo4nksxnoxek6jnwpqh,2,2,3,1.0,20,pd,0.0,9.255
5ad0fxo4nksxnoxek6jnwpqh,3,3,3,1.0,11,pd,0.0,14.416
5ad0fxo4nksxnoxek6jnwpqh,4,3,3,1.0,18,pd,1.0,17.14
5ad0fxo4nksxnoxek6jnwpqh,5,4,3,1.0,16,pd,1.0,18.014
5ad0fxo4nksxnoxek6jnwpqh,6,4,3,1.0,17,pd,0.0,13.455
5ad0fxo4nksxnoxek6jnwpqh,7,5,3,1.0,14,pd,1.0,24.228
5ad0fxo4nksxnoxek6jnwpqh,8,5,3,1.0,26,pd,1.0,16.268
5b8sbhwigddofjapft20c4tv,1,2,3,1.0,1,pd,1.0,5.504
5b8sbhwigddofjapft20c4tv,2,2,3,1.0,6,pd,1.0,13.446
5b8sbhwigddofjapft20c4tv,3,3,3,1.0,11,pd,1.0,21.005
5b8sbhwigddofjapft20c4tv,4,3,3,1.0,18,pd,1.0,12.119
5b8sbhwigddofjapft20c4tv,5,4,3,1.0,12,pd,1.0,11.542
5b8sbhwigddofjapft20c4tv,6,4,3,1.0,23,pd,1.0,11.016
5b8sbhwigddofjapft20c4tv,7,5,3,1.0,14,pd,0.0,16.737
5b8sbhwigddofjapft20c4tv,8,5,3,1.0,26,pd,1.0,22.926
5d6jhia7y3nyo741tjb9vlsk,1,2,3,1.0,19,pd,1.0,10.09
5d6jhia7y3nyo741tjb9vlsk,2,2,3,1.0,20,pd,1.0,12.977
5d6jhia7y3nyo741tjb9vlsk,3,3,3,1.0,15,pd,0.0,15.477
5d6jhia7y3nyo741tjb9vlsk,4,3,3,1.0,10,pd,0.0,21.544
5d6jhia7y3nyo741tjb9vlsk,5,4,3,1.0,12,pd,0.0,5.543
5d6jhia7y3nyo741tjb9vlsk,6,4,3,1.0,23,pd,1.0,3.598
5d6jhia7y3nyo741tjb9vlsk,7,5,3,1.0,14,pd,1.0,5.349
5d6jhia7y3nyo741tjb9vlsk,8,5,3,1.0,26,pd,1.0,4.188
5rnza8evzb7drfy8beyioein,1,2,3,1.0,1,pd,1.0,3.709
5rnza8evzb7drfy8beyioein,2,2,3,1.0,6,pd,1.0,14.284
5rnza8evzb7drfy8beyioein,3,3,3,1.0,11,pd,1.0,11.892
5rnza8evzb7drfy8beyioein,4,3,3,1.0,18,pd,0.0,20.949
5rnza8evzb7drfy8beyioein,5,4,3,1.0,16,pd,1.0,7.806
5rnza8evzb7drfy8beyioein,6,4,3,1.0,17,pd,,
5rnza8evzb7drfy8beyioein,7,5,3,1.0,14,pd,0.0,14.151
5rnza8evzb7drfy8beyioein,8,5,3,1.0,26,pd,1.0,23.805
5t74t9y7ibglnlge2f71vyk2,1,2,3,1.0,1,pd,1.0,2.96
5t74t9y7ibglnlge2f71vyk2,2,2,3,1.0,6,pd,1.0,3.212
5t74t9y7ibglnlge2f71vyk2,3,3,3,1.0,15,pd,0.0,3.237
5t74t9y7ibglnlge2f71vyk2,4,3,3,1.0,10,pd,0.0,1.857
5t74t9y7ibglnlge2f71vyk2,5,4,3,1.0,12,pd,0.0,2.876
5t74t9y7ibglnlge2f71vyk2,6,4,3,1.0,23,pd,1.0,11.077
5t74t9y7ibglnlge2f71vyk2,7,5,3,1.0,52,pd,0.0,8.279
5t74t9y7ibglnlge2f71vyk2,8,5,3,1.0,59,pd,0.0,3.802
5xsiamm1cbvk38j2nigikj6i,1,2,3,1.0,19,pd,1.0,6.966
5xsiamm1cbvk38j2nigikj6i,2,2,3,1.0,20,pd,0.0,5.459
5xsiamm1cbvk38j2nigikj6i,3,3,3,1.0,11,pd,1.0,16.093
5xsiamm1cbvk38j2nigikj6i,4,3,3,1.0,18,pd,1.0,5.309
5xsiamm1cbvk38j2nigikj6i,5,4,3,1.0,12,pd,0.0,6.729
5xsiamm1cbvk38j2nigikj6i,6,4,3,1.0,23,pd,1.0,6.322
5xsiamm1cbvk38j2nigikj6i,7,5,3,1.0,52,pd,1.0,4.948
5xsiamm1cbvk38j2nigikj6i,8,5,3,1.0,59,pd,0.0,7.205
6m37f5y8vcdo1b9utotly0oi,1,2,3,1.0,19,pd,0.0,5.613
6m37f5y8vcdo1b9utotly0oi,2,2,3,1.0,20,pd,1.0,4.121
6m37f5y8vcdo1b9utotly0oi,3,3,3,1.0,11,pd,0.0,4.426
6m37f5y8vcdo1b9utotly0oi,4,3,3,1.0,18,pd,0.0,2.831
6m37f5y8vcdo1b9utotly0oi,5,4,3,1.0,12,pd,1.0,6.433
6m37f5y8vcdo1b9utotly0oi,6,4,3,1.0,23,pd,0.0,5.588
6m37f5y8vcdo1b9utotly0oi,7,5,3,1.0,14,pd,0.0,5.301
6m37f5y8vcdo1b9utotly0oi,8,5,3,1.0,26,pd,0.0,5.541
6paqscjsfw9kpdn1lzg32po9,1,2,3,1.0,1,pd,1.0,2.807
6paqscjsfw9kpdn1lzg32po9,2,2,3,1.0,6,pd,1.0,10.373
6paqscjsfw9kpdn1lzg32po9,3,3,3,1.0,15,pd,1.0,16.366
6paqscjsfw9kpdn1lzg32po9,4,3,3,1.0,10,pd,0.0,17.915
6paqscjsfw9kpdn1lzg32po9,5,4,3,1.0,16,pd,1.0,17.125
6paqscjsfw9kpdn1lzg32po9,6,4,3,1.0,17,pd,1.0,21.262
6paqscjsfw9kpdn1lzg32po9,7,5,3,1.0,52,pd,0.0,23.156
6paqscjsfw9kpdn1lzg32po9,8,5,3,1.0,59,pd,0.0,18.493
6yenwqo50hemozitvo738ila,1,2,3,1.0,1,pd,1.0,2.153
6yenwqo50hemozitvo738ila,2,2,3,1.0,6,pd,0.0,14.084
6yenwqo50hemozitvo738ila,3,3,3,1.0,15,pd,0.0,18.235
6yenwqo50hemozitvo738ila,4,3,3,1.0,10,pd,1.0,22.695
6yenwqo50hemozitvo738ila,5,4,3,1.0,16,pd,1.0,11.649
6yenwqo50hemozitvo738ila,6,4,3,1.0,17,pd,0.0,19.14
6yenwqo50hemozitvo738ila,7,5,3,1.0,52,pd,0.0,27.952
6yenwqo50hemozitvo738ila,8,5,3,1.0,59,pd,0.0,16.733
71e80tf73in7sys4sre6ajc3,1,2,3,1.0,1,pd,1.0,3.628
71e80tf73in7sys4sre6ajc3,2,2,3,1.0,6,pd,1.0,9.057
71e80tf73in7sys4sre6ajc3,3,3,3,1.0,15,pd,1.0,11.563
71e80tf73in7sys4sre6ajc3,4,3,3,1.0,10,pd,1.0,23.56
71e80tf73in7sys4sre6ajc3,5,4,3,1.0,16,pd,1.0,17.834
71e80tf73in7sys4sre6ajc3,6,4,3,1.0,17,pd,1.0,17.492
71e80tf73in7sys4sre6ajc3,7,5,3,1.0,14,pd,1.0,21.885
71e80tf73in7sys4sre6ajc3,8,5,3,1.0,26,pd,0.0,18.81
7c517gtaonz1mxh2s0meyyps,1,2,3,1.0,1,pd,1.0,2.641
7c517gtaonz1mxh2s0meyyps,2,2,3,1.0,6,pd,0.0,9.408
7c517gtaonz1mxh2s0meyyps,3,3,3,1.0,11,pd,1.0,11.154
7c517gtaonz1mxh2s0meyyps,4,3,3,1.0,18,pd,0.0,16.157
7c517gtaonz1mxh2s0meyyps,5,4,3,1.0,16,pd,1.0,7.724
7c517gtaonz1mxh2s0meyyps,6,4,3,1.0,17,pd,0.0,11.803
7c517gtaonz1mxh2s0meyyps,7,5,3,1.0,52,pd,0.0,8.313
7c517gtaonz1mxh2s0meyyps,8,5,3,1.0,59,pd,0.0,11.722
7gw2yagzw18akzx2c5jh8x0j,1,2,3,1.0,19,pd,0.0,2.449
7gw2yagzw18akzx2c5jh8x0j,2,2,3,1.0,20,pd,0.0,5.494
7gw2yagzw18akzx2c5jh8x0j,3,3,3,1.0,15,pd,1.0,2.54
7gw2yagzw18akzx2c5jh8x0j,4,3,3,1.0,10,pd,1.0,4.595
7gw2yagzw18akzx2c5jh8x0j,5,4,3,1.0,12,pd,0.0,2.749
7gw2yagzw18akzx2c5jh8x0j,6,4,3,1.0,23,pd,1.0,6.749
7gw2yagzw18akzx2c5jh8x0j,7,5,3,1.0,14,pd,1.0,5.914
7gw2yagzw18akzx2c5jh8x0j,8,5,3,1.0,26,pd,1.0,4.107
7smbe5sw31ir72kkjh46hxb5,1,2,3,1.0,19,pd,1.0,7.057
7smbe5sw31ir72kkjh46hxb5,2,2,3,1.0,20,pd,1.0,7.049
7smbe5sw31ir72kkjh46hxb5,3,3,3,1.0,11,pd,1.0,27.177
7smbe5sw31ir72kkjh46hxb5,4,3,3,1.0,18,pd,1.0,4.575
7smbe5sw31ir72kkjh46hxb5,5,4,3,1.0,16,pd,1.0,3.187
7smbe5sw31ir72kkjh46hxb5,6,4,3,1.0,17,pd,0.0,6.736
7smbe5sw31ir72kkjh46hxb5,7,5,3,1.0,52,pd,0.0,26.159
7smbe5sw31ir72kkjh46hxb5,8,5,3,1.0,59,pd,1.0,18.965
7x60mnzq9z7glfp22gmui82y,1,2,3,1.0,1,pd,1.0,2.799
7x60mnzq9z7glfp22gmui82y,2,2,3,1.0,6,pd,1.0,5.952
7x60mnzq9z7glfp22gmui82y,3,3,3,1.0,11,pd,1.0,9.696
7x60mnzq9z7glfp22gmui82y,4,3,3,1.0,18,pd,1.0,13.392
7x60mnzq9z7glfp22gmui82y,5,4,3,1.0,16,pd,1.0,11.52
7x60mnzq9z7glfp22gmui82y,6,4,3,1.0,17,pd,1.0,14.76
7x60mnzq9z7glfp22gmui82y,7,5,3,1.0,52,pd,0.0,18.632
7x60mnzq9z7glfp22gmui82y,8,5,3,1.0,59,pd,0.0,8.136
861v0fk5nwd59atkvjagduyd,1,2,3,1.0,1,pd,1.0,4.695
861v0fk5nwd59atkvjagduyd,2,2,3,1.0,6,pd,1.0,11.906
861v0fk5nwd59atkvjagduyd,3,3,3,1.0,15,pd,0.0,20.494
861v0fk5nwd59atkvjagduyd,4,3,3,1.0,10,pd,1.0,20.531
861v0fk5nwd59atkvjagduyd,5,4,3,1.0,16,pd,1.0,17.74
861v0fk5nwd59atkvjagduyd,6,4,3,1.0,17,pd,1.0,15.138
861v0fk5nwd59atkvjagduyd,7,5,3,1.0,52,pd,0.0,27.088
861v0fk5nwd59atkvjagduyd,8,5,3,1.0,59,pd,0.0,27.192
916h4l4wzxi8bjye3bd741e6,1,2,3,1.0,1,pd,1.0,4.602
916h4l4wzxi8bjye3bd741e6,2,2,3,1.0,6,pd,0.0,11.136
916h4l4wzxi8bjye3bd741e6,3,3,3,1.0,11,pd,1.0,19.406
916h4l4wzxi8bjye3bd741e6,4,3,3,1.0,18,pd,0.0,17.013
916h4l4wzxi8bjye3bd741e6,5,4,3,1.0,12,pd,0.0,5.768
916h4l4wzxi8bjye3bd741e6,6,4,3,1.0,23,pd,0.0,3.389
916h4l4wzxi8bjye3bd741e6,7,5,3,1.0,52,pd,1.0,7.237
916h4l4wzxi8bjye3bd741e6,8,5,3,1.0,59,pd,0.0,12.572
9bz0re3h0r0j1a0x8o4x5cie,1,2,3,1.0,1,pd,1.0,2.925
9bz0re3h0r0j1a0x8o4x5cie,2,2,3,1.0,6,pd,0.0,10.936
9bz0re3h0r0j1a0x8o4x5cie,3,3,3,1.0,11,pd,0.0,11.569
9bz0re3h0r0j1a0x8o4x5cie,4,3,3,1.0,18,pd,1.0,10.26
9bz0re3h0r0j1a0x8o4x5cie,5,4,3,1.0,16,pd,1.0,6.352
9bz0re3h0r0j1a0x8o4x5cie,6,4,3,1.0,17,pd,1.0,13.681
9bz0re3h0r0j1a0x8o4x5cie,7,5,3,1.0,14,pd,1.0,16.391
9bz0re3h0r0j1a0x8o4x5cie,8,5,3,1.0,26,pd,1.0,12.062
9wubfmhiyu2ygfz2dasvibw0,1,2,3,1.0,19,pd,0.0,4.084
9wubfmhiyu2ygfz2dasvibw0,2,2,3,1.0,20,pd,1.0,10.389
9wubfmhiyu2ygfz2dasvibw0,3,3,3,1.0,15,pd,1.0,12.356
9wubfmhiyu2ygfz2dasvibw0,4,3,3,1.0,10,pd,1.0,10.824
9wubfmhiyu2ygfz2dasvibw0,5,4,3,1.0,16,pd,1.0,8.9
9wubfmhiyu2ygfz2dasvibw0,6,4,3,1.0,17,pd,1.0,9.277
9wubfmhiyu2ygfz2dasvibw0,7,5,3,1.0,14,pd,1.0,15.063
9wubfmhiyu2ygfz2dasvibw0,8,5,3,1.0,26,pd,1.0,10.807
a7xws1zeh1hi9810qv1e67u0,1,2,3,1.0,1,pd,1.0,5.575
a7xws1zeh1hi9810qv1e67u0,2,2,3,1.0,6,pd,1.0,8.021
a7xws1zeh1hi9810qv1e67u0,3,3,3,1.0,15,pd,1.0,2.422
a7xws1zeh1hi9810qv1e67u0,4,3,3,1.0,10,pd,1.0,11.989
a7xws1zeh1hi9810qv1e67u0,5,4,3,1.0,16,pd,1.0,8.524
a7xws1zeh1hi9810qv1e67u0,6,4,3,1.0,17,pd,1.0,3.403
a7xws1zeh1hi9810qv1e67u0,7,5,3,1.0,52,pd,1.0,4.208
a7xws1zeh1hi9810qv1e67u0,8,5,3,1.0,59,pd,0.0,4.642
amfgiujf84nee6xej79u94nz,1,2,3,1.0,19,pd,1.0,7.753
amfgiujf84nee6xej79u94nz,2,2,3,1.0,20,pd,1.0,15.254
amfgiujf84nee6xej79u94nz,3,3,3,1.0,11,pd,1.0,17.785
amfgiujf84nee6xej79u94nz,4,3,3,1.0,18,pd,1.0,18.825
amfgiujf84nee6xej79u94nz,5,4,3,1.0,16,pd,1.0,11.277
amfgiujf84nee6xej79u94nz,6,4,3,1.0,17,pd,1.0,26.687
amfgiujf84nee6xej79u94nz,7,5,3,1.0,14,pd,1.0,29.185
amfgiujf84nee6xej79u94nz,8,5,3,1.0,26,pd,1.0,21.419
aovqgbv5rexwvxs4ngqdcuzf,1,2,3,1.0,19,pd,0.0,7.003
aovqgbv5rexwvxs4ngqdcuzf,2,2,3,1.0,20,pd,1.0,12.218
aovqgbv5rexwvxs4ngqdcuzf,3,3,3,1.0,11,pd,1.0,14.371
aovqgbv5rexwvxs4ngqdcuzf,4,3,3,1.0,18,pd,1.0,14.307
aovqgbv5rexwvxs4ngqdcuzf,5,4,3,1.0,16,pd,1.0,9.172
aovqgbv5rexwvxs4ngqdcuzf,6,4,3,1.0,17,pd,0.0,16.028
aovqgbv5rexwvxs4ngqdcuzf,7,5,3,1.0,52,pd,0.0,14.983
aovqgbv5rexwvxs4ngqdcuzf,8,5,3,1.0,59,pd,1.0,19.45
aqdtfik9c5jdgmgtj17n5s60,1,2,3,1.0,19,pd,1.0,2.107
aqdtfik9c5jdgmgtj17n5s60,2,2,3,1.0,20,pd,1.0,1.655
aqdtfik9c5jdgmgtj17n5s60,3,3,3,1.0,11,pd,1.0,1.678
aqdtfik9c5jdgmgtj17n5s60,4,3,3,1.0,18,pd,0.0,1.076
aqdtfik9c5jdgmgtj17n5s60,5,4,3,1.0,16,pd,1.0,1.95
aqdtfik9c5jdgmgtj17n5s60,6,4,3,1.0,17,pd,0.0,1.373
aqdtfik9c5jdgmgtj17n5s60,7,5,3,1.0,14,pd,0.0,0.751
aqdtfik9c5jdgmgtj17n5s60,8,5,3,1.0,26,pd,1.0,1.908
b0x8nafpqqyclhwanq3pkmb9,1,2,3,1.0,1,pd,1.0,2.015
b0x8nafpqqyclhwanq3pkmb9,2,2,3,1.0,6,pd,1.0,5.64
b0x8nafpqqyclhwanq3pkmb9,3,3,3,1.0,11,pd,1.0,14.28
b0x8nafpqqyclhwanq3pkmb9,4,3,3,1.0,18,pd,1.0,13.384
b0x8nafpqqyclhwanq3pkmb9,5,4,3,1.0,16,pd,1.0,4.624
b0x8nafpqqyclhwanq3pkmb9,6,4,3,1.0,17,pd,0.0,11.273
b0x8nafpqqyclhwanq3pkmb9,7,5,3,1.0,14,pd,1.0,14.663
b0x8nafpqqyclhwanq3pkmb9,8,5,3,1.0,26,pd,1.0,14.719
b15a2vfqksmoc9tpyn31ffcd,1,2,3,1.0,1,pd,1.0,2.51
b15a2vfqksmoc9tpyn31ffcd,2,2,3,1.0,6,pd,1.0,5.905
b15a2vfqksmoc9tpyn31ffcd,3,3,3,1.0,11,pd,1.0,12.452
b15a2vfqksmoc9tpyn31ffcd,4,3,3,1.0,18,pd,1.0,14.175
b15a2vfqksmoc9tpyn31ffcd,5,4,3,1.0,12,pd,1.0,6.059
b15a2vfqksmoc9tpyn31ffcd,6,4,3,1.0,23,pd,1.0,5.865
b15a2vfqksmoc9tpyn31ffcd,7,5,3,1.0,52,pd,0.0,16.238
b15a2vfqksmoc9tpyn31ffcd,8,5,3,1.0,59,pd,0.0,10.178
b4cw2gdp51btdceicdu9q0oh,1,2,3,1.0,19,pd,0.0,2.832
b4cw2gdp51btdceicdu9q0oh,2,2,3,1.0,20,pd,1.0,4.376
b4cw2gdp51btdceicdu9q0oh,3,3,3,1.0,15,pd,1.0,5.432
b4cw2gdp51btdceicdu9q0oh,4,3,3,1.0,10,pd,0.0,11.248
b4cw2gdp51btdceicdu9q0oh,5,4,3,1.0,12,pd,0.0,8.688
b4cw2gdp51btdceicdu9q0oh,6,4,3,1.0,23,pd,1.0,8.568
b4cw2gdp51btdceicdu9q0oh,7,5,3,1.0,52,pd,0.0,11.136
b4cw2gdp51btdceicdu9q0oh,8,5,3,1.0,59,pd,1.0,10.808
bb967z2toxxn0x33ep6y7oro,1,2,3,1.0,19,pd,1.0,9.135
bb967z2toxxn0x33ep6y7oro,2,2,3,1.0,20,pd,1.0,5.915
bb967z2toxxn0x33ep6y7oro,3,3,3,1.0,15,pd,0.0,3.832
bb967z2toxxn0x33ep6y7oro,4,3,3,1.0,10,pd,1.0,9.138
bb967z2toxxn0x33ep6y7oro,5,4,3,1.0,12,pd,0.0,3.292
bb967z2toxxn0x33ep6y7oro,6,4,3,1.0,23,pd,1.0,7.429
bb967z2toxxn0x33ep6y7oro,7,5,3,1.0,14,pd,0.0,6.992
bb967z2toxxn0x33ep6y7oro,8,5,3,1.0,26,pd,0.0,7.193
bg3bdltoygqx8m0nzt8ci6g6,1,2,3,1.0,19,pd,1.0,7.266
bg3bdltoygqx8m0nzt8ci6g6,2,2,3,1.0,20,pd,1.0,8.704
bg3bdltoygqx8m0nzt8ci6g6,3,3,3,1.0,15,pd,1.0,15.433
bg3bdltoygqx8m0nzt8ci6g6,4,3,3,1.0,10,pd,0.0,16.098
bg3bdltoygqx8m0nzt8ci6g6,5,4,3,1.0,12,pd,0.0,6.243
bg3bdltoygqx8m0nzt8ci6g6,6,4,3,1.0,23,pd,1.0,7.266
bg3bdltoygqx8m0nzt8ci6g6,7,5,3,1.0,14,pd,1.0,9.84
bg3bdltoygqx8m0nzt8ci6g6,8,5,3,1.0,26,pd,0.0,16.965
bguww2kl1i4embfjm9cmy1oq,1,2,3,1.0,1,pd,1.0,3.123
bguww2kl1i4embfjm9cmy1oq,2,2,3,1.0,6,pd,0.0,9.452
bguww2kl1i4embfjm9cmy1oq,3,3,3,1.0,11,pd,0.0,9.736
bguww2kl1i4embfjm9cmy1oq,4,3,3,1.0,18,pd,1.0,7.363
bguww2kl1i4embfjm9cmy1oq,5,4,3,1.0,16,pd,1.0,6.183
bguww2kl1i4embfjm9cmy1oq,6,4,3,1.0,17,pd,0.0,12.959
bguww2kl1i4embfjm9cmy1oq,7,5,3,1.0,14,pd,1.0,14.371
bguww2kl1i4embfjm9cmy1oq,8,5,3,1.0,26,pd,0.0,26.259
bim3nfivv3jfscqect9yvn3i,1,2,3,1.0,1,pd,1.0,1.499
bim3nfivv3jfscqect9yvn3i,2,2,3,1.0,6,pd,1.0,5.38
bim3nfivv3jfscqect9yvn3i,3,3,3,1.0,11,pd,1.0,9.323
bim3nfivv3jfscqect9yvn3i,4,3,3,1.0,18,pd,0.0,9.749
bim3nfivv3jfscqect9yvn3i,5,4,3,1.0,16,pd,1.0,10.174
bim3nfivv3jfscqect9yvn3i,6,4,3,1.0,17,pd,1.0,13.157
bim3nfivv3jfscqect9yvn3i,7,5,3,1.0,52,pd,1.0,11.511
bim3nfivv3jfscqect9yvn3i,8,5,3,1.0,59,pd,0.0,13.929
bmteqvb5orljgrihy986c136,1,2,3,1.0,1,pd,1.0,2.751
bmteqvb5orljgrihy986c136,2,2,3,1.0,6,pd,1.0,5.928
bmteqvb5orljgrihy986c136,3,3,3,1.0,15,pd,0.0,10.632
bmteqvb5orljgrihy986c136,4,3,3,1.0,10,pd,0.0,15.539
bmteqvb5orljgrihy986c136,5,4,3,1.0,16,pd,1.0,6.484
bmteqvb5orljgrihy986c136,6,4,3,1.0,17,pd,1.0,18.464
bmteqvb5orljgrihy986c136,7,5,3,1.0,52,pd,0.0,6.292
bmteqvb5orljgrihy986c136,8,5,3,1.0,59,pd,0.0,11.216
bnzoabc931851ubzsmnoh4jr,1,2,3,1.0,1,pd,1.0,4.365
bnzoabc931851ubzsmnoh4jr,2,2,3,1.0,6,pd,0.0,9.673
bnzoabc931851ubzsmnoh4jr,3,3,3,1.0,15,pd,1.0,11.842
bnzoabc931851ubzsmnoh4jr,4,3,3,1.0,10,pd,0.0,4.45
bnzoabc931851ubzsmnoh4jr,5,4,3,1.0,16,pd,0.0,10.446
bnzoabc931851ubzsmnoh4jr,6,4,3,1.0,17,pd,1.0,24.619
bnzoabc931851ubzsmnoh4jr,7,5,3,1.0,52,pd,1.0,8.944
bnzoabc931851ubzsmnoh4jr,8,5,3,1.0,59,pd,1.0,13.203
bqmggoo03ysfb6urpkfayu1l,1,2,3,1.0,19,pd,1.0,6.546
bqmggoo03ysfb6urpkfayu1l,2,2,3,1.0,20,pd,1.0,7.907
bqmggoo03ysfb6urpkfayu1l,3,3,3,1.0,11,pd,1.0,9.105
bqmggoo03ysfb6urpkfayu1l,4,3,3,1.0,18,pd,0.0,9.547
bqmggoo03ysfb6urpkfayu1l,5,4,3,1.0,16,pd,1.0,17.169
bqmggoo03ysfb6urpkfayu1l,6,4,3,1.0,17,pd,1.0,11.749
bqmggoo03ysfb6urpkfayu1l,7,5,3,1.0,14,pd,0.0,8.805
bqmggoo03ysfb6urpkfayu1l,8,5,3,1.0,26,pd,0.0,18.263
bvqzl9fx0jdq4vlm8w50jrwi,1,2,3,1.0,1,pd,1.0,1.974
bvqzl9fx0jdq4vlm8w50jrwi,2,2,3,1.0,6,pd,1.0,3.018
bvqzl9fx0jdq4vlm8w50jrwi,3,3,3,1.0,11,pd,1.0,9.362
bvqzl9fx0jdq4vlm8w50jrwi,4,3,3,1.0,18,pd,1.0,8.197
bvqzl9fx0jdq4vlm8w50jrwi,5,4,3,1.0,16,pd,1.0,4.408
bvqzl9fx0jdq4vlm8w50jrwi,6,4,3,1.0,17,pd,1.0,13.171
bvqzl9fx0jdq4vlm8w50jrwi,7,5,3,1.0,52,pd,1.0,7.681
bvqzl9fx0jdq4vlm8w50jrwi,8,5,3,1.0,59,pd,0.0,12.852
c6nqai3ppicym9vqexh80tg3,1,2,3,1.0,1,pd,1.0,2.358
c6nqai3ppicym9vqexh80tg3,2,2,3,1.0,6,pd,0.0,6.08
c6nqai3ppicym9vqexh80tg3,3,3,3,1.0,15,pd,0.0,7.189
c6nqai3ppicym9vqexh80tg3,4,3,3,1.0,10,pd,0.0,8.417
c6nqai3ppicym9vqexh80tg3,5,4,3,1.0,16,pd,1.0,9.326
c6nqai3ppicym9vqexh80tg3,6,4,3,1.0,17,pd,1.0,21.52
c6nqai3ppicym9vqexh80tg3,7,5,3,1.0,52,pd,1.0,16.047
c6nqai3ppicym9vqexh80tg3,8,5,3,1.0,59,pd,1.0,14.827
ciet9vpu24uv7rxytk6tcxuu,1,2,3,1.0,19,pd,1.0,4.159
ciet9vpu24uv7rxytk6tcxuu,2,2,3,1.0,20,pd,1.0,10.029
ciet9vpu24uv7rxytk6tcxuu,3,3,3,1.0,15,pd,1.0,12.317
ciet9vpu24uv7rxytk6tcxuu,4,3,3,1.0,10,pd,0.0,17.062
ciet9vpu24uv7rxytk6tcxuu,5,4,3,1.0,12,pd,1.0,13.831
ciet9vpu24uv7rxytk6tcxuu,6,4,3,1.0,23,pd,1.0,9.167
ciet9vpu24uv7rxytk6tcxuu,7,5,3,1.0,52,pd,1.0,20.583
ciet9vpu24uv7rxytk6tcxuu,8,5,3,1.0,59,pd,1.0,21.551
ckedf3b7jzqesg5lnjf5somo,1,2,3,1.0,1,pd,1.0,2.861
ckedf3b7jzqesg5lnjf5somo,2,2,3,1.0,6,pd,1.0,7.39
ckedf3b7jzqesg5lnjf5somo,3,3,3,1.0,15,pd,1.0,9.661
ckedf3b7jzqesg5lnjf5somo,4,3,3,1.0,10,pd,1.0,14.842
ckedf3b7jzqesg5lnjf5somo,5,4,3,1.0,12,pd,1.0,17.261
ckedf3b7jzqesg5lnjf5somo,6,4,3,1.0,23,pd,1.0,11.461
ckedf3b7jzqesg5lnjf5somo,7,5,3,1.0,14,pd,1.0,18.036
ckedf3b7jzqesg5lnjf5somo,8,5,3,1.0,26,pd,0.0,20.568
cmfakatmv0nai6eflfnczpho,1,2,3,1.0,19,pd,1.0,6.703
cmfakatmv0nai6eflfnczpho,2,2,3,1.0,20,pd,1.0,10.839
cmfakatmv0nai6eflfnczpho,3,3,3,1.0,15,pd,0.0,15.088
cmfakatmv0nai6eflfnczpho,4,3,3,1.0,10,pd,1.0,9.343
cmfakatmv0nai6eflfnczpho,5,4,3,1.0,16,pd,1.0,8.743
cmfakatmv0nai6eflfnczpho,6,4,3,1.0,17,pd,1.0,15.032
cmfakatmv0nai6eflfnczpho,7,5,3,1.0,14,pd,1.0,11.351
cmfakatmv0nai6eflfnczpho,8,5,3,1.0,26,pd,1.0,15.528
d2ko9mppeps02krwfyhdooah,1,2,3,1.0,19,pd,1.0,12.441
d2ko9mppeps02krwfyhdooah,2,2,3,1.0,20,pd,1.0,14.987
d2ko9mppeps02krwfyhdooah,3,3,3,1.0,15,pd,1.0,29.599
d2ko9mppeps02krwfyhdooah,4,3,3,1.0,10,pd,1.0,22.932
d2ko9mppeps02krwfyhdooah,5,4,3,1.0,12,pd,1.0,29.308
d2ko9mppeps02krwfyhdooah,6,4,3,1.0,23,pd,1.0,10.126
d2ko9mppeps02krwfyhdooah,7,5,3,1.0,52,pd,0.0,29.083
d2ko9mppeps02krwfyhdooah,8,5,3,1.0,59,pd,1.0,28.809
d79e6wzq7mnr7g3u6fyuxpyl,1,2,3,1.0,1,pd,1.0,3.37
d79e6wzq7mnr7g3u6fyuxpyl,2,2,3,1.0,6,pd,1.0,7.589
d79e6wzq7mnr7g3u6fyuxpyl,3,3,3,1.0,11,pd,1.0,8.008
d79e6wzq7mnr7g3u6fyuxpyl,4,3,3,1.0,18,pd,1.0,8.169
d79e6wzq7mnr7g3u6fyuxpyl,5,4,3,1.0,12,pd,1.0,8.076
d79e6wzq7mnr7g3u6fyuxpyl,6,4,3,1.0,23,pd,1.0,6.655
d79e6wzq7mnr7g3u6fyuxpyl,7,5,3,1.0,14,pd,1.0,9.133
d79e6wzq7mnr7g3u6fyuxpyl,8,5,3,1.0,26,pd,0.0,11.063
dd4q0uzcr55cskrcz27z24sc,1,2,3,1.0,1,pd,1.0,1.872
dd4q0uzcr55cskrcz27z24sc,2,2,3,1.0,6,pd,1.0,6.613
dd4q0uzcr55cskrcz27z24sc,3,3,3,1.0,15,pd,1.0,6.895
dd4q0uzcr55cskrcz27z24sc,4,3,3,1.0,10,pd,0.0,10.937
dd4q0uzcr55cskrcz27z24sc,5,4,3,1.0,16,pd,0.0,7.965
dd4q0uzcr55cskrcz27z24sc,6,4,3,1.0,17,pd,1.0,3.548
dd4q0uzcr55cskrcz27z24sc,7,5,3,1.0,52,pd,0.0,4.697
dd4q0uzcr55cskrcz27z24sc,8,5,3,1.0,59,pd,1.0,1.61
ddz3bkstcj6vzqizcv08skck,1,2,3,1.0,1,pd,1.0,2.864
ddz3bkstcj6vzqizcv08skck,2,2,3,1.0,6,pd,0.0,16.678
ddz3bkstcj6vzqizcv08skck,3,3,3,1.0,11,pd,1.0,15.951
ddz3bkstcj6vzqizcv08skck,4,3,3,1.0,18,pd,0.0,17.048
ddz3bkstcj6vzqizcv08skck,5,4,3,1.0,16,pd,1.0,10.366
ddz3bkstcj6vzqizcv08skck,6,4,3,1.0,17,pd,1.0,17.096
ddz3bkstcj6vzqizcv08skck,7,5,3,1.0,14,pd,1.0,15.696
ddz3bkstcj6vzqizcv08skck,8,5,3,1.0,26,pd,1.0,17.639
dj21a374lijvbrmhst2hd3b5,1,2,3,1.0,19,pd,1.0,7.574
dj21a374lijvbrmhst2hd3b5,2,2,3,1.0,20,pd,1.0,11.529
dj21a374lijvbrmhst2hd3b5,3,3,3,1.0,11,pd,1.0,10.043
dj21a374lijvbrmhst2hd3b5,4,3,3,1.0,18,pd,1.0,13.259
dj21a374lijvbrmhst2hd3b5,5,4,3,1.0,16,pd,1.0,8.252
dj21a374lijvbrmhst2hd3b5,6,4,3,1.0,17,pd,1.0,22.655
dj21a374lijvbrmhst2hd3b5,7,5,3,1.0,14,pd,0.0,23.921
dj21a374lijvbrmhst2hd3b5,8,5,3,1.0,26,pd,1.0,29.262
dqv12yv7mc6sjik35hhojjm9,1,2,3,1.0,19,pd,0.0,4.375
dqv12yv7mc6sjik35hhojjm9,2,2,3,1.0,20,pd,1.0,4.372
dqv12yv7mc6sjik35hhojjm9,3,3,3,1.0,11,pd,1.0,5.692
dqv12yv7mc6sjik35hhojjm9,4,3,3,1.0,18,pd,1.0,4.816
dqv12yv7mc6sjik35hhojjm9,5,4,3,1.0,12,pd,0.0,4.817
dqv12yv7mc6sjik35hhojjm9,6,4,3,1.0,23,pd,1.0,5.114
dqv12yv7mc6sjik35hhojjm9,7,5,3,1.0,52,pd,0.0,5.687
dqv12yv7mc6sjik35hhojjm9,8,5,3,1.0,59,pd,0.0,4.35
e1db8635tk57zd1wfii8pub4,1,2,3,1.0,1,pd,1.0,9.175
e1db8635tk57zd1wfii8pub4,2,2,3,1.0,6,pd,0.0,18.268
e1db8635tk57zd1wfii8pub4,3,3,3,1.0,15,pd,,
e1db8635tk57zd1wfii8pub4,4,3,3,1.0,10,pd,,
e1db8635tk57zd1wfii8pub4,5,4,3,1.0,12,pd,0.0,27.402
e1db8635tk57zd1wfii8pub4,6,4,3,1.0,23,pd,0.0,3.625
e1db8635tk57zd1wfii8pub4,7,5,3,1.0,14,pd,1.0,4.247
e1db8635tk57zd1wfii8pub4,8,5,3,1.0,26,pd,0.0,6.871
e1nl0grkiat5rfv52e7f9i82,1,2,3,1.0,19,pd,1.0,12.118
e1nl0grkiat5rfv52e7f9i82,2,2,3,1.0,20,pd,1.0,22.464
e1nl0grkiat5rfv52e7f9i82,3,3,3,1.0,15,pd,1.0,25.681
e1nl0grkiat5rfv52e7f9i82,4,3,3,1.0,10,pd,1.0,17.759
e1nl0grkiat5rfv52e7f9i82,5,4,3,1.0,12,pd,1.0,12.756
e1nl0grkiat5rfv52e7f9i82,6,4,3,1.0,23,pd,1.0,16.846
e1nl0grkiat5rfv52e7f9i82,7,5,3,1.0,14,pd,1.0,21.317
e1nl0grkiat5rfv52e7f9i82,8,5,3,1.0,26,pd,1.0,25.843
eh2ff5nnebaun0ukl8isoov6,1,2,3,1.0,19,pd,0.0,8.472
eh2ff5nnebaun0ukl8isoov6,2,2,3,1.0,20,pd,0.0,5.488
eh2ff5nnebaun0ukl8isoov6,3,3,3,1.0,15,pd,0.0,9.031
eh2ff5nnebaun0ukl8isoov6,4,3,3,1.0,10,pd,0.0,10.885
eh2ff5nnebaun0ukl8isoov6,5,4,3,1.0,16,pd,0.0,9.964
eh2ff5nnebaun0ukl8isoov6,6,4,3,1.0,17,pd,1.0,8.69
eh2ff5nnebaun0ukl8isoov6,7,5,3,1.0,52,pd,0.0,15.234
eh2ff5nnebaun0ukl8isoov6,8,5,3,1.0,59,pd,0.0,11.145
et1y68os2qkp3aphx26icrsj,1,2,3,1.0,1,pd,1.0,2.652
et1y68os2qkp3aphx26icrsj,2,2,3,1.0,6,pd,1.0,2.823
et1y68os2qkp3aphx26icrsj,3,3,3,1.0,11,pd,0.0,1.481
et1y68os2qkp3aphx26icrsj,4,3,3,1.0,18,pd,0.0,0.777
et1y68os2qkp3aphx26icrsj,5,4,3,1.0,16,pd,1.0,0.881
et1y68os2qkp3aphx26icrsj,6,4,3,1.0,17,pd,1.0,0.713
et1y68os2qkp3aphx26icrsj,7,5,3,1.0,52,pd,1.0,0.74
et1y68os2qkp3aphx26icrsj,8,5,3,1.0,59,pd,0.0,9.612
fb7k4aysxa2o2pqr6x4tmws7,1,2,3,1.0,19,pd,0.0,8.447
fb7k4aysxa2o2pqr6x4tmws7,2,2,3,1.0,20,pd,0.0,10.447
fb7k4aysxa2o2pqr6x4tmws7,3,3,3,1.0,11,pd,0.0,7.247
fb7k4aysxa2o2pqr6x4tmws7,4,3,3,1.0,18,pd,1.0,7.927
fb7k4aysxa2o2pqr6x4tmws7,5,4,3,1.0,12,pd,0.0,6.433
fb7k4aysxa2o2pqr6x4tmws7,6,4,3,1.0,23,pd,1.0,5.816
fb7k4aysxa2o2pqr6x4tmws7,7,5,3,1.0,14,pd,0.0,18.303
fb7k4aysxa2o2pqr6x4tmws7,8,5,3,1.0,26,pd,0.0,14.008
fk10xuijobp50mlaq2y5y2ce,1,2,3,1.0,19,pd,0.0,1.954
fk10xuijobp50mlaq2y5y2ce,2,2,3,1.0,20,pd,0.0,6.559
fk10xuijobp50mlaq2y5y2ce,3,3,3,1.0,15,pd,1.0,5.716
fk10xuijobp50mlaq2y5y2ce,4,3,3,1.0,10,pd,0.0,8.807
fk10xuijobp50mlaq2y5y2ce,5,4,3,1.0,12,pd,0.0,6.368
fk10xuijobp50mlaq2y5y2ce,6,4,3,1.0,23,pd,0.0,4.77
fk10xuijobp50mlaq2y5y2ce,7,5,3,1.0,14,pd,0.0,6.686
fk10xuijobp50mlaq2y5y2ce,8,5,3,1.0,26,pd,0.0,4.683
fmxp3czl5pcqd9ww0gb2wxnu,1,2,3,1.0,1,pd,1.0,2.188
fmxp3czl5pcqd9ww0gb2wxnu,2,2,3,1.0,6,pd,1.0,7.748
fmxp3czl5pcqd9ww0gb2wxnu,3,3,3,1.0,15,pd,1.0,21.342
fmxp3czl5pcqd9ww0gb2wxnu,4,3,3,1.0,10,pd,1.0,13.429
fmxp3czl5pcqd9ww0gb2wxnu,5,4,3,1.0,16,pd,1.0,8.058
fmxp3czl5pcqd9ww0gb2wxnu,6,4,3,1.0,17,pd,1.0,16.704
fmxp3czl5pcqd9ww0gb2wxnu,7,5,3,1.0,14,pd,1.0,12.896
fmxp3czl5pcqd9ww0gb2wxnu,8,5,3,1.0,26,pd,1.0,15.68
fnrunzz344heazawmlln7qa8,1,2,3,1.0,19,pd,0.0,4.341
fnrunzz344heazawmlln7qa8,2,2,3,1.0,20,pd,0.0,2.235
fnrunzz344heazawmlln7qa8,3,3,3,1.0,15,pd,0.0,1.173
fnrunzz344heazawmlln7qa8,4,3,3,1.0,10,pd,0.0,1.653
fnrunzz344heazawmlln7qa8,5,4,3,1.0,16,pd,0.0,1.558
fnrunzz344heazawmlln7qa8,6,4,3,1.0,17,pd,1.0,3.519
fnrunzz344heazawmlln7qa8,7,5,3,1.0,52,pd,0.0,4.353
fnrunzz344heazawmlln7qa8,8,5,3,1.0,59,pd,1.0,2.098
fwofl8i6vltau2mue0te2hbl,1,2,3,1.0,1,pd,1.0,3.062
fwofl8i6vltau2mue0te2hbl,2,2,3,1.0,6,pd,1.0,3.881
fwofl8i6vltau2mue0te2hbl,3,3,3,1.0,15,pd,0.0,9.644
fwofl8i6vltau2mue0te2hbl,4,3,3,1.0,10,pd,1.0,8.323
fwofl8i6vltau2mue0te2hbl,5,4,3,1.0,12,pd,0.0,7.566
fwofl8i6vltau2mue0te2hbl,6,4,3,1.0,23,pd,1.0,10.438
fwofl8i6vltau2mue0te2hbl,7,5,3,1.0,14,pd,1.0,13.328
fwofl8i6vltau2mue0te2hbl,8,5,3,1.0,26,pd,0.0,6.067
fwoi5lg70mtdde5g3akr9ecb,1,2,3,1.0,19,pd,0.0,6.534
fwoi5lg70mtdde5g3akr9ecb,2,2,3,1.0,20,pd,1.0,10.717
fwoi5lg70mtdde5g3akr9ecb,3,3,3,1.0,11,pd,1.0,7.772
fwoi5lg70mtdde5g3akr9ecb,4,3,3,1.0,18,pd,1.0,10.134
fwoi5lg70mtdde5g3akr9ecb,5,4,3,1.0,16,pd,1.0,8.718
fwoi5lg70mtdde5g3akr9ecb,6,4,3,1.0,17,pd,0.0,9.625
fwoi5lg70mtdde5g3akr9ecb,7,5,3,1.0,14,pd,0.0,9.07
fwoi5lg70mtdde5g3akr9ecb,8,5,3,1.0,26,pd,1.0,10.117
gf0om5v1hgekkkb9sbeju4vk,1,2,3,1.0,19,pd,1.0,5.736
gf0om5v1hgekkkb9sbeju4vk,2,2,3,1.0,20,pd,1.0,9.397
gf0om5v1hgekkkb9sbeju4vk,3,3,3,1.0,15,pd,1.0,14.166
gf0om5v1hgekkkb9sbeju4vk,4,3,3,1.0,10,pd,1.0,15.56
gf0om5v1hgekkkb9sbeju4vk,5,4,3,1.0,16,pd,1.0,19.424
gf0om5v1hgekkkb9sbeju4vk,6,4,3,1.0,17,pd,0.0,19.647
gf0om5v1hgekkkb9sbeju4vk,7,5,3,1.0,52,pd,0.0,24.371
gf0om5v1hgekkkb9sbeju4vk,8,5,3,1.0,59,pd,0.0,24.73
gno66up8i05lvmaecgnbwlcn,1,2,3,1.0,1,pd,1.0,2.535
gno66up8i05lvmaecgnbwlcn,2,2,3,1.0,6,pd,0.0,4.272
gno66up8i05lvmaecgnbwlcn,3,3,3,1.0,15,pd,1.0,13.519
gno66up8i05lvmaecgnbwlcn,4,3,3,1.0,10,pd,1.0,17.227
gno66up8i05lvmaecgnbwlcn,5,4,3,1.0,16,pd,1.0,5.711
gno66up8i05lvmaecgnbwlcn,6,4,3,1.0,17,pd,0.0,7.919
gno66up8i05lvmaecgnbwlcn,7,5,3,1.0,14,pd,0.0,11.959
gno66up8i05lvmaecgnbwlcn,8,5,3,1.0,26,pd,1.0,2.447
gpn8qich9rvm3wmacxs220fq,1,2,3,1.0,1,pd,1.0,1.793
gpn8qich9rvm3wmacxs220fq,2,2,3,1.0,6,pd,0.0,3.848
gpn8qich9rvm3wmacxs220fq,3,3,3,1.0,15,pd,1.0,7.882
gpn8qich9rvm3wmacxs220fq,4,3,3,1.0,10,pd,1.0,5.285
gpn8qich9rvm3wmacxs220fq,5,4,3,1.0,12,pd,0.0,4.21
gpn8qich9rvm3wmacxs220fq,6,4,3,1.0,23,pd,1.0,6.516
gpn8qich9rvm3wmacxs220fq,7,5,3,1.0,52,pd,1.0,6.967
gpn8qich9rvm3wmacxs220fq,8,5,3,1.0,59,pd,1.0,5.4
hj99vydmh5ej5i9dnkwlrl8a,1,2,3,1.0,19,pd,1.0,6.684
hj99vydmh5ej5i9dnkwlrl8a,2,2,3,1.0,20,pd,1.0,4.099
hj99vydmh5ej5i9dnkwlrl8a,3,3,3,1.0,11,pd,0.0,6.664
hj99vydmh5ej5i9dnkwlrl8a,4,3,3,1.0,18,pd,1.0,10.191
hj99vydmh5ej5i9dnkwlrl8a,5,4,3,1.0,16,pd,1.0,7.244
hj99vydmh5ej5i9dnkwlrl8a,6,4,3,1.0,17,pd,1.0,16.272
hj99vydmh5ej5i9dnkwlrl8a,7,5,3,1.0,52,pd,1.0,5.873
hj99vydmh5ej5i9dnkwlrl8a,8,5,3,1.0,59,pd,1.0,5.521
hkaj2w2ieihsv4vt8myp7nyj,1,2,3,1.0,1,pd,1.0,1.787
hkaj2w2ieihsv4vt8myp7nyj,2,2,3,1.0,6,pd,1.0,10.791
hkaj2w2ieihsv4vt8myp7nyj,3,3,3,1.0,11,pd,1.0,9.824
hkaj2w2ieihsv4vt8myp7nyj,4,3,3,1.0,18,pd,1.0,10.021
hkaj2w2ieihsv4vt8myp7nyj,5,4,3,1.0,12,pd,0.0,8.364
hkaj2w2ieihsv4vt8myp7nyj,6,4,3,1.0,23,pd,1.0,8.634
hkaj2w2ieihsv4vt8myp7nyj,7,5,3,1.0,14,pd,0.0,8.34
hkaj2w2ieihsv4vt8myp7nyj,8,5,3,1.0,26,pd,0.0,10.951
hm59giibm3v5mz759etodpks,1,2,3,1.0,1,pd,1.0,2.781
hm59giibm3v5mz759etodpks,2,2,3,1.0,6,pd,1.0,8.781
hm59giibm3v5mz759etodpks,3,3,3,1.0,11,pd,1.0,10.188
hm59giibm3v5mz759etodpks,4,3,3,1.0,18,pd,0.0,17.6
hm59giibm3v5mz759etodpks,5,4,3,1.0,12,pd,1.0,9.199
hm59giibm3v5mz759etodpks,6,4,3,1.0,23,pd,1.0,5.206
hm59giibm3v5mz759etodpks,7,5,3,1.0,52,pd,0.0,15.849
hm59giibm3v5mz759etodpks,8,5,3,1.0,59,pd,1.0,5.937
i3qzg4lnh302twn5jhnsxcot,1,2,3,1.0,1,pd,1.0,4.757
i3qzg4lnh302twn5jhnsxcot,2,2,3,1.0,6,pd,1.0,12.034
i3qzg4lnh302twn5jhnsxcot,3,3,3,1.0,15,pd,1.0,18.991
i3qzg4lnh302twn5jhnsxcot,4,3,3,1.0,10,pd,1.0,20.536
i3qzg4lnh302twn5jhnsxcot,5,4,3,1.0,16,pd,1.0,8.25
i3qzg4lnh302twn5jhnsxcot,6,4,3,1.0,17,pd,0.0,14.211
i3qzg4lnh302twn5jhnsxcot,7,5,3,1.0,52,pd,1.0,17.718
i3qzg4lnh302twn5jhnsxcot,8,5,3,1.0,59,pd,0.0,13.678
i4a29f5r5hfbpgssm2vjk741,1,2,3,1.0,1,pd,1.0,2.015
i4a29f5r5hfbpgssm2vjk741,2,2,3,1.0,6,pd,0.0,10.972
i4a29f5r5hfbpgssm2vjk741,3,3,3,1.0,15,pd,1.0,9.444
i4a29f5r5hfbpgssm2vjk741,4,3,3,1.0,10,pd,1.0,10.403
i4a29f5r5hfbpgssm2vjk741,5,4,3,1.0,12,pd,1.0,11.7
i4a29f5r5hfbpgssm2vjk741,6,4,3,1.0,23,pd,1.0,6.357
i4a29f5r5hfbpgssm2vjk741,7,5,3,1.0,52,pd,1.0,14.069
i4a29f5r5hfbpgssm2vjk741,8,5,3,1.0,59,pd,1.0,15.205
i4iqh3roj0xnxmoit1shq18t,1,2,3,1.0,19,pd,1.0,8.812
i4iqh3roj0xnxmoit1shq18t,2,2,3,1.0,20,pd,1.0,6.994
i4iqh3roj0xnxmoit1shq18t,3,3,3,1.0,15,pd,1.0,6.949
i4iqh3roj0xnxmoit1shq18t,4,3,3,1.0,10,pd,0.0,14.611
i4iqh3roj0xnxmoit1shq18t,5,4,3,1.0,12,pd,0.0,4.372
i4iqh3roj0xnxmoit1shq18t,6,4,3,1.0,23,pd,1.0,10.667
i4iqh3roj0xnxmoit1shq18t,7,5,3,1.0,52,pd,0.0,12.188
i4iqh3roj0xnxmoit1shq18t,8,5,3,1.0,59,pd,0.0,10.251
i7zrmmwvdnj5z4egmqshkxzy,1,2,3,1.0,19,pd,1.0,4.695
i7zrmmwvdnj5z4egmqshkxzy,2,2,3,1.0,20,pd,0.0,11.022
i7zrmmwvdnj5z4egmqshkxzy,3,3,3,1.0,15,pd,1.0,16.048
i7zrmmwvdnj5z4egmqshkxzy,4,3,3,1.0,10,pd,0.0,14.405
i7zrmmwvdnj5z4egmqshkxzy,5,4,3,1.0,12,pd,1.0,19.08
i7zrmmwvdnj5z4egmqshkxzy,6,4,3,1.0,23,pd,1.0,8.341
i7zrmmwvdnj5z4egmqshkxzy,7,5,3,1.0,14,pd,0.0,14.991
i7zrmmwvdnj5z4egmqshkxzy,8,5,3,1.0,26,pd,0.0,17.63
igjmvdboset684mifuqojpij,1,2,3,1.0,19,pd,1.0,5.619
igjmvdboset684mifuqojpij,2,2,3,1.0,20,pd,0.0,7.961
igjmvdboset684mifuqojpij,3,3,3,1.0,15,pd,1.0,1.529
igjmvdboset684mifuqojpij,4,3,3,1.0,10,pd,1.0,8.314
igjmvdboset684mifuqojpij,5,4,3,1.0,16,pd,1.0,9.343
igjmvdboset684mifuqojpij,6,4,3,1.0,17,pd,1.0,13.38
igjmvdboset684mifuqojpij,7,5,3,1.0,52,pd,0.0,12.572
igjmvdboset684mifuqojpij,8,5,3,1.0,59,pd,0.0,1.629
ikqcfr8gvb697kq3xjql5t80,1,2,3,1.0,1,pd,1.0,3.996
ikqcfr8gvb697kq3xjql5t80,2,2,3,1.0,6,pd,1.0,7.525
ikqcfr8gvb697kq3xjql5t80,3,3,3,1.0,11,pd,0.0,8.599
ikqcfr8gvb697kq3xjql5t80,4,3,3,1.0,18,pd,1.0,12.295
ikqcfr8gvb697kq3xjql5t80,5,4,3,1.0,12,pd,0.0,12.598
ikqcfr8gvb697kq3xjql5t80,6,4,3,1.0,23,pd,1.0,10.65
ikqcfr8gvb697kq3xjql5t80,7,5,3,1.0,14,pd,0.0,14.248
ikqcfr8gvb697kq3xjql5t80,8,5,3,1.0,26,pd,1.0,16.875
ip976i3g4frmel44c8xbm6iy,1,2,3,1.0,1,pd,1.0,2.179
ip976i3g4frmel44c8xbm6iy,2,2,3,1.0,6,pd,1.0,6.959
ip976i3g4frmel44c8xbm6iy,3,3,3,1.0,11,pd,1.0,7.539
ip976i3g4frmel44c8xbm6iy,4,3,3,1.0,18,pd,1.0,7.161
ip976i3g4frmel44c8xbm6iy,5,4,3,1.0,16,pd,1.0,8.295
ip976i3g4frmel44c8xbm6iy,6,4,3,1.0,17,pd,1.0,21.2
ip976i3g4frmel44c8xbm6iy,7,5,3,1.0,52,pd,1.0,10.525
ip976i3g4frmel44c8xbm6iy,8,5,3,1.0,59,pd,0.0,17.949
izjm4wjylx9ezfoipz0taful,1,2,3,1.0,19,pd,1.0,9.787
izjm4wjylx9ezfoipz0taful,2,2,3,1.0,20,pd,1.0,12.037
izjm4wjylx9ezfoipz0taful,3,3,3,1.0,15,pd,1.0,13.297
izjm4wjylx9ezfoipz0taful,4,3,3,1.0,10,pd,1.0,10.327
izjm4wjylx9ezfoipz0taful,5,4,3,1.0,16,pd,1.0,8.459
izjm4wjylx9ezfoipz0taful,6,4,3,1.0,17,pd,0.0,6.986
izjm4wjylx9ezfoipz0taful,7,5,3,1.0,52,pd,0.0,12.737
izjm4wjylx9ezfoipz0taful,8,5,3,1.0,59,pd,0.0,11.835
j9vb4rt311eml70hs1jq6hek,1,2,3,1.0,19,pd,1.0,12.998
j9vb4rt311eml70hs1jq6hek,2,2,3,1.0,20,pd,1.0,15.694
j9vb4rt311eml70hs1jq6hek,3,3,3,1.0,15,pd,0.0,13.233
j9vb4rt311eml70hs1jq6hek,4,3,3,1.0,10,pd,1.0,16.284
j9vb4rt311eml70hs1jq6hek,5,4,3,1.0,12,pd,0.0,21.198
j9vb4rt311eml70hs1jq6hek,6,4,3,1.0,23,pd,1.0,11.892
j9vb4rt311eml70hs1jq6hek,7,5,3,1.0,52,pd,0.0,16.928
j9vb4rt311eml70hs1jq6hek,8,5,3,1.0,59,pd,0.0,15.405
jdpiwwidqfq7f857a4nss1m5,1,2,3,1.0,1,pd,1.0,3.26
jdpiwwidqfq7f857a4nss1m5,2,2,3,1.0,6,pd,1.0,6.595
jdpiwwidqfq7f857a4nss1m5,3,3,3,1.0,11,pd,0.0,9.609
jdpiwwidqfq7f857a4nss1m5,4,3,3,1.0,18,pd,0.0,8.204
jdpiwwidqfq7f857a4nss1m5,5,4,3,1.0,16,pd,1.0,5.861
jdpiwwidqfq7f857a4nss1m5,6,4,3,1.0,17,pd,0.0,9.138
jdpiwwidqfq7f857a4nss1m5,7,5,3,1.0,14,pd,0.0,7.747
jdpiwwidqfq7f857a4nss1m5,8,5,3,1.0,26,pd,0.0,12.569
jf62ky1ybuaf1tdqwxu02ej9,1,2,3,1.0,19,pd,1.0,13.748
jf62ky1ybuaf1tdqwxu02ej9,2,2,3,1.0,20,pd,0.0,21.857
jf62ky1ybuaf1tdqwxu02ej9,3,3,3,1.0,11,pd,1.0,11.058
jf62ky1ybuaf1tdqwxu02ej9,4,3,3,1.0,18,pd,1.0,11.944
jf62ky1ybuaf1tdqwxu02ej9,5,4,3,1.0,12,pd,1.0,12.138
jf62ky1ybuaf1tdqwxu02ej9,6,4,3,1.0,23,pd,0.0,5.034
jf62ky1ybuaf1tdqwxu02ej9,7,5,3,1.0,14,pd,1.0,3.717
jf62ky1ybuaf1tdqwxu02ej9,8,5,3,1.0,26,pd,1.0,2.141
jgsxr1bmtcsohmexq5w51rkt,1,2,3,1.0,19,pd,0.0,1.343
jgsxr1bmtcsohmexq5w51rkt,2,2,3,1.0,20,pd,0.0,1.149
jgsxr1bmtcsohmexq5w51rkt,3,3,3,1.0,11,pd,0.0,0.844
jgsxr1bmtcsohmexq5w51rkt,4,3,3,1.0,18,pd,0.0,1.047
jgsxr1bmtcsohmexq5w51rkt,5,4,3,1.0,12,pd,1.0,1.478
jgsxr1bmtcsohmexq5w51rkt,6,4,3,1.0,23,pd,0.0,2.084
jgsxr1bmtcsohmexq5w51rkt,7,5,3,1.0,14,pd,0.0,0.749
jgsxr1bmtcsohmexq5w51rkt,8,5,3,1.0,26,pd,1.0,0.683
jgvrtxnptfze90i4jc2j3s3m,1,2,3,1.0,1,pd,1.0,2.594
jgvrtxnptfze90i4jc2j3s3m,2,2,3,1.0,6,pd,1.0,8.246
jgvrtxnptfze90i4jc2j3s3m,3,3,3,1.0,11,pd,1.0,28.427
jgvrtxnptfze90i4jc2j3s3m,4,3,3,1.0,18,pd,1.0,10.417
jgvrtxnptfze90i4jc2j3s3m,5,4,3,1.0,12,pd,1.0,18.606
jgvrtxnptfze90i4jc2j3s3m,6,4,3,1.0,23,pd,1.0,11.017
jgvrtxnptfze90i4jc2j3s3m,7,5,3,1.0,14,pd,1.0,19.794
jgvrtxnptfze90i4jc2j3s3m,8,5,3,1.0,26,pd,1.0,17.476
jms40b92b01ep1j8lq3tmodd,1,2,3,1.0,1,pd,1.0,3.781
jms40b92b01ep1j8lq3tmodd,2,2,3,1.0,6,pd,1.0,8.749
jms40b92b01ep1j8lq3tmodd,3,3,3,1.0,15,pd,1.0,9.077
jms40b92b01ep1j8lq3tmodd,4,3,3,1.0,10,pd,0.0,7.165
jms40b92b01ep1j8lq3tmodd,5,4,3,1.0,16,pd,0.0,6.141
jms40b92b01ep1j8lq3tmodd,6,4,3,1.0,17,pd,0.0,6.788
jms40b92b01ep1j8lq3tmodd,7,5,3,1.0,52,pd,0.0,10.589
jms40b92b01ep1j8lq3tmodd,8,5,3,1.0,59,pd,0.0,9.207
jn4jqdnicw40wwcl7nhvjno3,1,2,3,1.0,1,pd,1.0,2.796
jn4jqdnicw40wwcl7nhvjno3,2,2,3,1.0,6,pd,1.0,9.179
jn4jqdnicw40wwcl7nhvjno3,3,3,3,1.0,15,pd,0.0,22.222
jn4jqdnicw40wwcl7nhvjno3,4,3,3,1.0,10,pd,1.0,10.556
jn4jqdnicw40wwcl7nhvjno3,5,4,3,1.0,16,pd,0.0,13.23
jn4jqdnicw40wwcl7nhvjno3,6,4,3,1.0,17,pd,1.0,14.501
jn4jqdnicw40wwcl7nhvjno3,7,5,3,1.0,52,pd,0.0,20.527
jn4jqdnicw40wwcl7nhvjno3,8,5,3,1.0,59,pd,0.0,15.677
k1ifw77ij6huwmsv54ssahr2,1,2,3,1.0,1,pd,1.0,2.361
k1ifw77ij6huwmsv54ssahr2,2,2,3,1.0,6,pd,1.0,13.741
k1ifw77ij6huwmsv54ssahr2,3,3,3,1.0,11,pd,1.0,10.85
k1ifw77ij6huwmsv54ssahr2,4,3,3,1.0,18,pd,0.0,2.188
k1ifw77ij6huwmsv54ssahr2,5,4,3,1.0,12,pd,1.0,6.653
k1ifw77ij6huwmsv54ssahr2,6,4,3,1.0,23,pd,1.0,4.282
k1ifw77ij6huwmsv54ssahr2,7,5,3,1.0,52,pd,0.0,13.988
k1ifw77ij6huwmsv54ssahr2,8,5,3,1.0,59,pd,1.0,0.557
k4021dlxnmkquyizv6gjbe8f,1,2,3,1.0,19,pd,0.0,18.02
k4021dlxnmkquyizv6gjbe8f,2,2,3,1.0,20,pd,0.0,22.319
k4021dlxnmkquyizv6gjbe8f,3,3,3,1.0,11,pd,0.0,5.269
k4021dlxnmkquyizv6gjbe8f,4,3,3,1.0,18,pd,1.0,8.779
k4021dlxnmkquyizv6gjbe8f,5,4,3,1.0,16,pd,1.0,9.849
k4021dlxnmkquyizv6gjbe8f,6,4,3,1.0,17,pd,1.0,6.828
k4021dlxnmkquyizv6gjbe8f,7,5,3,1.0,14,pd,0.0,4.309
k4021dlxnmkquyizv6gjbe8f,8,5,3,1.0,26,pd,1.0,6.108
k5r8zyrt60gbiya0rqllldee,1,2,3,1.0,19,pd,1.0,18.861
k5r8zyrt60gbiya0rqllldee,2,2,3,1.0,20,pd,1.0,10.979
k5r8zyrt60gbiya0rqllldee,3,3,3,1.0,15,pd,0.0,21.134
k5r8zyrt60gbiya0rqllldee,4,3,3,1.0,10,pd,1.0,11.176
k5r8zyrt60gbiya0rqllldee,5,4,3,1.0,12,pd,0.0,28.25
k5r8zyrt60gbiya0rqllldee,6,4,3,1.0,23,pd,1.0,13.763
k5r8zyrt60gbiya0rqllldee,7,5,3,1.0,52,pd,0.0,27.028
k5r8zyrt60gbiya0rqllldee,8,5,3,1.0,59,pd,0.0,21.176
k8dbel0hjcn8mthghho5pclb,1,2,3,1.0,19,pd,0.0,5.716
k8dbel0hjcn8mthghho5pclb,2,2,3,1.0,20,pd,0.0,9.957
k8dbel0hjcn8mthghho5pclb,3,3,3,1.0,11,pd,0.0,6.876
k8dbel0hjcn8mthghho5pclb,4,3,3,1.0,18,pd,0.0,4.351
k8dbel0hjcn8mthghho5pclb,5,4,3,1.0,16,pd,1.0,2.469
k8dbel0hjcn8mthghho5pclb,6,4,3,1.0,17,pd,1.0,3.917
k8dbel0hjcn8mthghho5pclb,7,5,3,1.0,14,pd,0.0,2.842
k8dbel0hjcn8mthghho5pclb,8,5,3,1.0,26,pd,0.0,4.187
k9undyo19khqlh5022zgeubt,1,2,3,1.0,1,pd,1.0,2.333
k9undyo19khqlh5022zgeubt,2,2,3,1.0,6,pd,1.0,8.377
k9undyo19khqlh5022zgeubt,3,3,3,1.0,11,pd,0.0,20.612
k9undyo19khqlh5022zgeubt,4,3,3,1.0,18,pd,1.0,17.441
k9undyo19khqlh5022zgeubt,5,4,3,1.0,12,pd,0.0,27.437
k9undyo19khqlh5022zgeubt,6,4,3,1.0,23,pd,1.0,12.152
k9undyo19khqlh5022zgeubt,7,5,3,1.0,52,pd,1.0,25.986
k9undyo19khqlh5022zgeubt,8,5,3,1.0,59,pd,0.0,25.905
ke0bzw04mt5wiwciak9x8px5,1,2,3,1.0,19,pd,1.0,4.71
ke0bzw04mt5wiwciak9x8px5,2,2,3,1.0,20,pd,1.0,7.0
ke0bzw04mt5wiwciak9x8px5,3,3,3,1.0,15,pd,0.0,2.586
ke0bzw04mt5wiwciak9x8px5,4,3,3,1.0,10,pd,1.0,3.312
ke0bzw04mt5wiwciak9x8px5,5,4,3,1.0,16,pd,1.0,4.24
ke0bzw04mt5wiwciak9x8px5,6,4,3,1.0,17,pd,0.0,2.914
ke0bzw04mt5wiwciak9x8px5,7,5,3,1.0,14,pd,0.0,4.087
ke0bzw04mt5wiwciak9x8px5,8,5,3,1.0,26,pd,1.0,7.613
kfno018tzphxukrw3hznhl6b,1,2,3,1.0,19,pd,0.0,3.102
kfno018tzphxukrw3hznhl6b,2,2,3,1.0,20,pd,0.0,1.383
kfno018tzphxukrw3hznhl6b,3,3,3,1.0,11,pd,0.0,2.12
kfno018tzphxukrw3hznhl6b,4,3,3,1.0,18,pd,0.0,1.741
kfno018tzphxukrw3hznhl6b,5,4,3,1.0,16,pd,0.0,1.442
kfno018tzphxukrw3hznhl6b,6,4,3,1.0,17,pd,0.0,2.576
kfno018tzphxukrw3hznhl6b,7,5,3,1.0,52,pd,1.0,1.393
kfno018tzphxukrw3hznhl6b,8,5,3,1.0,59,pd,0.0,2.33
kltfud9cd9tg4sb4od1z8ib1,1,2,3,1.0,1,pd,1.0,1.885
kltfud9cd9tg4sb4od1z8ib1,2,2,3,1.0,6,pd,1.0,7.644
kltfud9cd9tg4sb4od1z8ib1,3,3,3,1.0,15,pd,0.0,9.538
kltfud9cd9tg4sb4od1z8ib1,4,3,3,1.0,10,pd,0.0,9.29
kltfud9cd9tg4sb4od1z8ib1,5,4,3,1.0,12,pd,0.0,8.765
kltfud9cd9tg4sb4od1z8ib1,6,4,3,1.0,23,pd,1.0,5.164
kltfud9cd9tg4sb4od1z8ib1,7,5,3,1.0,52,pd,1.0,2.289
kltfud9cd9tg4sb4od1z8ib1,8,5,3,1.0,59,pd,0.0,17.169
kne02r0ef01jtjaz8oegm4e2,1,2,3,1.0,1,pd,1.0,5.266
kne02r0ef01jtjaz8oegm4e2,2,2,3,1.0,6,pd,1.0,26.247
kne02r0ef01jtjaz8oegm4e2,3,3,3,1.0,11,pd,1.0,25.607
kne02r0ef01jtjaz8oegm4e2,4,3,3,1.0,18,pd,1.0,17.143
kne02r0ef01jtjaz8oegm4e2,5,4,3,1.0,12,pd,1.0,17.904
kne02r0ef01jtjaz8oegm4e2,6,4,3,1.0,23,pd,0.0,25.839
kne02r0ef01jtjaz8oegm4e2,7,5,3,1.0,52,pd,0.0,28.52
kne02r0ef01jtjaz8oegm4e2,8,5,3,1.0,59,pd,0.0,26.606
kueeomc1gdxng0g9wf80nmkh,1,2,3,1.0,19,pd,1.0,9.514
kueeomc1gdxng0g9wf80nmkh,2,2,3,1.0,20,pd,1.0,15.085
kueeomc1gdxng0g9wf80nmkh,3,3,3,1.0,15,pd,1.0,13.992
kueeomc1gdxng0g9wf80nmkh,4,3,3,1.0,10,pd,0.0,9.858
kueeomc1gdxng0g9wf80nmkh,5,4,3,1.0,12,pd,0.0,12.131
kueeomc1gdxng0g9wf80nmkh,6,4,3,1.0,23,pd,1.0,13.605
kueeomc1gdxng0g9wf80nmkh,7,5,3,1.0,14,pd,0.0,12.913
kueeomc1gdxng0g9wf80nmkh,8,5,3,1.0,26,pd,1.0,12.527
kv683zj2q4uxh23bzyw2i9nj,1,2,3,1.0,19,pd,1.0,7.648
kv683zj2q4uxh23bzyw2i9nj,2,2,3,1.0,20,pd,1.0,8.6
kv683zj2q4uxh23bzyw2i9nj,3,3,3,1.0,15,pd,1.0,9.546
kv683zj2q4uxh23bzyw2i9nj,4,3,3,1.0,10,pd,1.0,6.609
kv683zj2q4uxh23bzyw2i9nj,5,4,3,1.0,16,pd,1.0,15.408
kv683zj2q4uxh23bzyw2i9nj,6,4,3,1.0,17,pd,0.0,10.162
kv683zj2q4uxh23bzyw2i9nj,7,5,3,1.0,14,pd,0.0,16.752
kv683zj2q4uxh23bzyw2i9nj,8,5,3,1.0,26,pd,0.0,6.352
l0n6q3ifgz910fqxoi6vuds4,1,2,3,1.0,1,pd,1.0,2.924
l0n6q3ifgz910fqxoi6vuds4,2,2,3,1.0,6,pd,1.0,7.97
l0n6q3ifgz910fqxoi6vuds4,3,3,3,1.0,11,pd,1.0,13.83
l0n6q3ifgz910fqxoi6vuds4,4,3,3,1.0,18,pd,1.0,13.534
l0n6q3ifgz910fqxoi6vuds4,5,4,3,1.0,12,pd,1.0,7.46
l0n6q3ifgz910fqxoi6vuds4,6,4,3,1.0,23,pd,1.0,7.468
l0n6q3ifgz910fqxoi6vuds4,7,5,3,1.0,52,pd,1.0,14.006
l0n6q3ifgz910fqxoi6vuds4,8,5,3,1.0,59,pd,1.0,6.219
l9fw7uzr1yh5hc8sr6u2i9bq,1,2,3,1.0,19,pd,1.0,19.357
l9fw7uzr1yh5hc8sr6u2i9bq,2,2,3,1.0,20,pd,1.0,12.074
l9fw7uzr1yh5hc8sr6u2i9bq,3,3,3,1.0,15,pd,1.0,25.876
l9fw7uzr1yh5hc8sr6u2i9bq,4,3,3,1.0,10,pd,1.0,18.963
l9fw7uzr1yh5hc8sr6u2i9bq,5,4,3,1.0,16,pd,1.0,19.613
l9fw7uzr1yh5hc8sr6u2i9bq,6,4,3,1.0,17,pd,1.0,26.152
l9fw7uzr1yh5hc8sr6u2i9bq,7,5,3,1.0,52,pd,1.0,12.207
l9fw7uzr1yh5hc8sr6u2i9bq,8,5,3,1.0,59,pd,0.0,26.47
m4latujdqhb0fa9jlo0po324,1,2,3,1.0,1,pd,1.0,2.119
m4latujdqhb0fa9jlo0po324,2,2,3,1.0,6,pd,1.0,5.01
m4latujdqhb0fa9jlo0po324,3,3,3,1.0,11,pd,0.0,8.68
m4latujdqhb0fa9jlo0po324,4,3,3,1.0,18,pd,1.0,0.236
m4latujdqhb0fa9jlo0po324,5,4,3,1.0,12,pd,0.0,9.05
m4latujdqhb0fa9jlo0po324,6,4,3,1.0,23,pd,1.0,6.195
m4latujdqhb0fa9jlo0po324,7,5,3,1.0,14,pd,0.0,7.305
m4latujdqhb0fa9jlo0po324,8,5,3,1.0,26,pd,0.0,12.986
m8lnn9ww484u7daprzliwsms,1,2,3,1.0,1,pd,1.0,2.586
m8lnn9ww484u7daprzliwsms,2,2,3,1.0,6,pd,1.0,5.722
m8lnn9ww484u7daprzliwsms,3,3,3,1.0,15,pd,1.0,11.407
m8lnn9ww484u7daprzliwsms,4,3,3,1.0,10,pd,1.0,20.917
m8lnn9ww484u7daprzliwsms,5,4,3,1.0,16,pd,1.0,16.565
m8lnn9ww484u7daprzliwsms,6,4,3,1.0,17,pd,1.0,14.715
m8lnn9ww484u7daprzliwsms,7,5,3,1.0,14,pd,0.0,16.663
m8lnn9ww484u7daprzliwsms,8,5,3,1.0,26,pd,1.0,13.667
mnogoa63pdgk5mcbo4tjshqx,1,2,3,1.0,19,pd,1.0,6.392
mnogoa63pdgk5mcbo4tjshqx,2,2,3,1.0,20,pd,1.0,13.121
mnogoa63pdgk5mcbo4tjshqx,3,3,3,1.0,15,pd,0.0,17.579
mnogoa63pdgk5mcbo4tjshqx,4,3,3,1.0,10,pd,1.0,9.51
mnogoa63pdgk5mcbo4tjshqx,5,4,3,1.0,16,pd,1.0,11.056
mnogoa63pdgk5mcbo4tjshqx,6,4,3,1.0,17,pd,1.0,23.596
mnogoa63pdgk5mcbo4tjshqx,7,5,3,1.0,52,pd,0.0,18.647
mnogoa63pdgk5mcbo4tjshqx,8,5,3,1.0,59,pd,1.0,19.583
mo64hmd74j361z4s51gqpbq5,1,2,3,1.0,19,pd,1.0,7.719
mo64hmd74j361z4s51gqpbq5,2,2,3,1.0,20,pd,1.0,8.735
mo64hmd74j361z4s51gqpbq5,3,3,3,1.0,11,pd,0.0,19.47
mo64hmd74j361z4s51gqpbq5,4,3,3,1.0,18,pd,1.0,13.862
mo64hmd74j361z4s51gqpbq5,5,4,3,1.0,16,pd,1.0,5.784
mo64hmd74j361z4s51gqpbq5,6,4,3,1.0,17,pd,0.0,20.182
mo64hmd74j361z4s51gqpbq5,7,5,3,1.0,52,pd,1.0,17.857
mo64hmd74j361z4s51gqpbq5,8,5,3,1.0,59,pd,0.0,15.678
n010u6xtj8uwo8ruehi3fz19,1,2,3,1.0,19,pd,1.0,8.516
n010u6xtj8uwo8ruehi3fz19,2,2,3,1.0,20,pd,1.0,13.831
n010u6xtj8uwo8ruehi3fz19,3,3,3,1.0,15,pd,0.0,14.078
n010u6xtj8uwo8ruehi3fz19,4,3,3,1.0,10,pd,1.0,18.398
n010u6xtj8uwo8ruehi3fz19,5,4,3,1.0,12,pd,0.0,15.002
n010u6xtj8uwo8ruehi3fz19,6,4,3,1.0,23,pd,1.0,18.319
n010u6xtj8uwo8ruehi3fz19,7,5,3,1.0,14,pd,1.0,23.537
n010u6xtj8uwo8ruehi3fz19,8,5,3,1.0,26,pd,1.0,27.958
n2jg76vpczghdr0htoiuyq87,1,2,3,1.0,19,pd,1.0,15.787
n2jg76vpczghdr0htoiuyq87,2,2,3,1.0,20,pd,1.0,7.084
n2jg76vpczghdr0htoiuyq87,3,3,3,1.0,11,pd,0.0,27.567
n2jg76vpczghdr0htoiuyq87,4,3,3,1.0,18,pd,1.0,15.732
n2jg76vpczghdr0htoiuyq87,5,4,3,1.0,12,pd,0.0,27.443
n2jg76vpczghdr0htoiuyq87,6,4,3,1.0,23,pd,1.0,8.813
n2jg76vpczghdr0htoiuyq87,7,5,3,1.0,52,pd,0.0,10.709
n2jg76vpczghdr0htoiuyq87,8,5,3,1.0,59,pd,0.0,10.054
n4bmbnrp5quihkg03i2j2mbe,1,2,3,1.0,19,pd,1.0,5.351
n4bmbnrp5quihkg03i2j2mbe,2,2,3,1.0,20,pd,1.0,14.045
n4bmbnrp5quihkg03i2j2mbe,3,3,3,1.0,15,pd,0.0,8.259
n4bmbnrp5quihkg03i2j2mbe,4,3,3,1.0,10,pd,0.0,21.66
n4bmbnrp5quihkg03i2j2mbe,5,4,3,1.0,16,pd,1.0,26.558
n4bmbnrp5quihkg03i2j2mbe,6,4,3,1.0,17,pd,0.0,8.814
n4bmbnrp5quihkg03i2j2mbe,7,5,3,1.0,52,pd,0.0,12.606
n4bmbnrp5quihkg03i2j2mbe,8,5,3,1.0,59,pd,0.0,10.637
n5jmmm60g0laqqk7sark6dwq,1,2,3,1.0,19,pd,1.0,9.622
n5jmmm60g0laqqk7sark6dwq,2,2,3,1.0,20,pd,1.0,10.552
n5jmmm60g0laqqk7sark6dwq,3,3,3,1.0,15,pd,0.0,16.223
n5jmmm60g0laqqk7sark6dwq,4,3,3,1.0,10,pd,1.0,13.324
n5jmmm60g0laqqk7sark6dwq,5,4,3,1.0,12,pd,1.0,19.167
n5jmmm60g0laqqk7sark6dwq,6,4,3,1.0,23,pd,1.0,21.164
n5jmmm60g0laqqk7sark6dwq,7,5,3,1.0,52,pd,0.0,25.6
n5jmmm60g0laqqk7sark6dwq,8,5,3,1.0,59,pd,1.0,26.951
n9t9dhsih2wqxyvss2s0flkz,1,2,3,1.0,19,pd,1.0,6.191
n9t9dhsih2wqxyvss2s0flkz,2,2,3,1.0,20,pd,1.0,7.364
n9t9dhsih2wqxyvss2s0flkz,3,3,3,1.0,11,pd,0.0,7.204
n9t9dhsih2wqxyvss2s0flkz,4,3,3,1.0,18,pd,1.0,4.809
n9t9dhsih2wqxyvss2s0flkz,5,4,3,1.0,16,pd,1.0,5.569
n9t9dhsih2wqxyvss2s0flkz,6,4,3,1.0,17,pd,1.0,5.918
n9t9dhsih2wqxyvss2s0flkz,7,5,3,1.0,52,pd,1.0,7.906
n9t9dhsih2wqxyvss2s0flkz,8,5,3,1.0,59,pd,0.0,8.94
nfuyluc7usjl6icx8b9o3xn0,1,2,3,1.0,19,pd,1.0,7.998
nfuyluc7usjl6icx8b9o3xn0,2,2,3,1.0,20,pd,1.0,4.467
nfuyluc7usjl6icx8b9o3xn0,3,3,3,1.0,15,pd,0.0,5.704
nfuyluc7usjl6icx8b9o3xn0,4,3,3,1.0,10,pd,1.0,3.543
nfuyluc7usjl6icx8b9o3xn0,5,4,3,1.0,16,pd,1.0,10.335
nfuyluc7usjl6icx8b9o3xn0,6,4,3,1.0,17,pd,0.0,6.11
nfuyluc7usjl6icx8b9o3xn0,7,5,3,1.0,52,pd,0.0,3.392
nfuyluc7usjl6icx8b9o3xn0,8,5,3,1.0,59,pd,0.0,4.178
nk8s4khwfbh5lp5a7i99tb1m,1,2,3,1.0,19,pd,1.0,11.172
nk8s4khwfbh5lp5a7i99tb1m,2,2,3,1.0,20,pd,1.0,12.817
nk8s4khwfbh5lp5a7i99tb1m,3,3,3,1.0,15,pd,1.0,27.226
nk8s4khwfbh5lp5a7i99tb1m,4,3,3,1.0,10,pd,1.0,18.133
nk8s4khwfbh5lp5a7i99tb1m,5,4,3,1.0,16,pd,1.0,14.929
nk8s4khwfbh5lp5a7i99tb1m,6,4,3,1.0,17,pd,1.0,19.378
nk8s4khwfbh5lp5a7i99tb1m,7,5,3,1.0,14,pd,1.0,11.497
nk8s4khwfbh5lp5a7i99tb1m,8,5,3,1.0,26,pd,1.0,19.989
nl9o6qwgvf9xydryv86o98ot,1,2,3,1.0,1,pd,1.0,3.287
nl9o6qwgvf9xydryv86o98ot,2,2,3,1.0,6,pd,1.0,9.36
nl9o6qwgvf9xydryv86o98ot,3,3,3,1.0,11,pd,1.0,8.465
nl9o6qwgvf9xydryv86o98ot,4,3,3,1.0,18,pd,1.0,7.839
nl9o6qwgvf9xydryv86o98ot,5,4,3,1.0,16,pd,1.0,6.302
nl9o6qwgvf9xydryv86o98ot,6,4,3,1.0,17,pd,0.0,9.593
nl9o6qwgvf9xydryv86o98ot,7,5,3,1.0,52,pd,1.0,12.592
nl9o6qwgvf9xydryv86o98ot,8,5,3,1.0,59,pd,0.0,14.049
nqpcgnf33a2t327z5hwm4bfs,1,2,3,1.0,1,pd,1.0,2.765
nqpcgnf33a2t327z5hwm4bfs,2,2,3,1.0,6,pd,1.0,13.262
nqpcgnf33a2t327z5hwm4bfs,3,3,3,1.0,15,pd,1.0,11.233
nqpcgnf33a2t327z5hwm4bfs,4,3,3,1.0,10,pd,1.0,8.878
nqpcgnf33a2t327z5hwm4bfs,5,4,3,1.0,12,pd,1.0,8.967
nqpcgnf33a2t327z5hwm4bfs,6,4,3,1.0,23,pd,1.0,7.553
nqpcgnf33a2t327z5hwm4bfs,7,5,3,1.0,52,pd,0.0,28.848
nqpcgnf33a2t327z5hwm4bfs,8,5,3,1.0,59,pd,1.0,7.798
ntwcxhglf5m7chxycp10gy4b,1,2,3,1.0,1,pd,1.0,2.599
ntwcxhglf5m7chxycp10gy4b,2,2,3,1.0,6,pd,1.0,7.915
ntwcxhglf5m7chxycp10gy4b,3,3,3,1.0,15,pd,0.0,20.387
ntwcxhglf5m7chxycp10gy4b,4,3,3,1.0,10,pd,0.0,29.088
ntwcxhglf5m7chxycp10gy4b,5,4,3,1.0,12,pd,1.0,14.191
ntwcxhglf5m7chxycp10gy4b,6,4,3,1.0,23,pd,1.0,8.942
ntwcxhglf5m7chxycp10gy4b,7,5,3,1.0,52,pd,1.0,25.688
ntwcxhglf5m7chxycp10gy4b,8,5,3,1.0,59,pd,0.0,15.758
nwnm7jjlm7nnxxyzcci5o6kx,1,2,3,1.0,19,pd,1.0,9.344
nwnm7jjlm7nnxxyzcci5o6kx,2,2,3,1.0,20,pd,1.0,11.901
nwnm7jjlm7nnxxyzcci5o6kx,3,3,3,1.0,15,pd,1.0,11.205
nwnm7jjlm7nnxxyzcci5o6kx,4,3,3,1.0,10,pd,1.0,10.412
nwnm7jjlm7nnxxyzcci5o6kx,5,4,3,1.0,12,pd,0.0,6.486
nwnm7jjlm7nnxxyzcci5o6kx,6,4,3,1.0,23,pd,1.0,19.248
nwnm7jjlm7nnxxyzcci5o6kx,7,5,3,1.0,52,pd,0.0,17.49
nwnm7jjlm7nnxxyzcci5o6kx,8,5,3,1.0,59,pd,1.0,18.732
nynyg75n4le93u2h70uvtfvr,1,2,3,1.0,19,pd,1.0,4.019
nynyg75n4le93u2h70uvtfvr,2,2,3,1.0,20,pd,1.0,3.335
nynyg75n4le93u2h70uvtfvr,3,3,3,1.0,15,pd,0.0,3.912
nynyg75n4le93u2h70uvtfvr,4,3,3,1.0,10,pd,0.0,5.792
nynyg75n4le93u2h70uvtfvr,5,4,3,1.0,12,pd,0.0,2.339
nynyg75n4le93u2h70uvtfvr,6,4,3,1.0,23,pd,0.0,1.171
nynyg75n4le93u2h70uvtfvr,7,5,3,1.0,52,pd,0.0,3.009
nynyg75n4le93u2h70uvtfvr,8,5,3,1.0,59,pd,0.0,2.355
o37ptzs09vzng6tseo9vrsff,1,2,3,1.0,19,pd,0.0,6.407
o37ptzs09vzng6tseo9vrsff,2,2,3,1.0,20,pd,0.0,18.597
o37ptzs09vzng6tseo9vrsff,3,3,3,1.0,15,pd,1.0,27.001
o37ptzs09vzng6tseo9vrsff,4,3,3,1.0,10,pd,1.0,15.96
o37ptzs09vzng6tseo9vrsff,5,4,3,1.0,16,pd,1.0,8.457
o37ptzs09vzng6tseo9vrsff,6,4,3,1.0,17,pd,0.0,21.302
o37ptzs09vzng6tseo9vrsff,7,5,3,1.0,52,pd,0.0,15.002
o37ptzs09vzng6tseo9vrsff,8,5,3,1.0,59,pd,0.0,16.0
o5p8cho9vuif1ht234wea7lj,1,2,3,1.0,1,pd,0.0,2.886
o5p8cho9vuif1ht234wea7lj,2,2,3,1.0,6,pd,1.0,2.298
o5p8cho9vuif1ht234wea7lj,3,3,3,1.0,11,pd,0.0,2.454
o5p8cho9vuif1ht234wea7lj,4,3,3,1.0,18,pd,0.0,1.276
o5p8cho9vuif1ht234wea7lj,5,4,3,1.0,16,pd,0.0,1.257
o5p8cho9vuif1ht234wea7lj,6,4,3,1.0,17,pd,0.0,0.935
o5p8cho9vuif1ht234wea7lj,7,5,3,1.0,52,pd,1.0,0.778
o5p8cho9vuif1ht234wea7lj,8,5,3,1.0,59,pd,0.0,1.362
o94rktohjg5n5pji7idpj3ne,1,2,3,1.0,1,pd,1.0,6.755
o94rktohjg5n5pji7idpj3ne,2,2,3,1.0,6,pd,1.0,14.259
o94rktohjg5n5pji7idpj3ne,3,3,3,1.0,11,pd,1.0,20.371
o94rktohjg5n5pji7idpj3ne,4,3,3,1.0,18,pd,1.0,18.546
o94rktohjg5n5pji7idpj3ne,5,4,3,1.0,12,pd,0.0,21.548
o94rktohjg5n5pji7idpj3ne,6,4,3,1.0,23,pd,1.0,18.563
o94rktohjg5n5pji7idpj3ne,7,5,3,1.0,14,pd,0.0,21.992
o94rktohjg5n5pji7idpj3ne,8,5,3,1.0,26,pd,1.0,20.106
oe507xuw2kbu750010sj0pk3,1,2,3,1.0,1,pd,1.0,2.817
oe507xuw2kbu750010sj0pk3,2,2,3,1.0,6,pd,1.0,8.026
oe507xuw2kbu750010sj0pk3,3,3,3,1.0,11,pd,1.0,14.99
oe507xuw2kbu750010sj0pk3,4,3,3,1.0,18,pd,1.0,15.499
oe507xuw2kbu750010sj0pk3,5,4,3,1.0,16,pd,1.0,8.19
oe507xuw2kbu750010sj0pk3,6,4,3,1.0,17,pd,1.0,16.098
oe507xuw2kbu750010sj0pk3,7,5,3,1.0,52,pd,0.0,15.161
oe507xuw2kbu750010sj0pk3,8,5,3,1.0,59,pd,0.0,9.608
ofunde9ez9f8jpp0ol2bzfeb,1,2,3,1.0,1,pd,1.0,2.633
ofunde9ez9f8jpp0ol2bzfeb,2,2,3,1.0,6,pd,1.0,4.904
ofunde9ez9f8jpp0ol2bzfeb,3,3,3,1.0,11,pd,1.0,9.936
ofunde9ez9f8jpp0ol2bzfeb,4,3,3,1.0,18,pd,0.0,11.577
ofunde9ez9f8jpp0ol2bzfeb,5,4,3,1.0,12,pd,0.0,13.828
ofunde9ez9f8jpp0ol2bzfeb,6,4,3,1.0,23,pd,1.0,5.344
ofunde9ez9f8jpp0ol2bzfeb,7,5,3,1.0,52,pd,0.0,25.654
ofunde9ez9f8jpp0ol2bzfeb,8,5,3,1.0,59,pd,0.0,28.817
opn52u47032uy5s4bqtq4thp,1,2,3,1.0,1,pd,0.0,2.079
opn52u47032uy5s4bqtq4thp,2,2,3,1.0,6,pd,1.0,7.264
opn52u47032uy5s4bqtq4thp,3,3,3,1.0,15,pd,0.0,14.648
opn52u47032uy5s4bqtq4thp,4,3,3,1.0,10,pd,0.0,24.05
opn52u47032uy5s4bqtq4thp,5,4,3,1.0,16,pd,1.0,4.848
opn52u47032uy5s4bqtq4thp,6,4,3,1.0,17,pd,0.0,15.126
opn52u47032uy5s4bqtq4thp,7,5,3,1.0,14,pd,0.0,24.11
opn52u47032uy5s4bqtq4thp,8,5,3,1.0,26,pd,0.0,14.448
opq8ltjs54l84mznb4j7poie,1,2,3,1.0,19,pd,1.0,9.127
opq8ltjs54l84mznb4j7poie,2,2,3,1.0,20,pd,1.0,9.6
opq8ltjs54l84mznb4j7poie,3,3,3,1.0,11,pd,1.0,12.528
opq8ltjs54l84mznb4j7poie,4,3,3,1.0,18,pd,1.0,10.904
opq8ltjs54l84mznb4j7poie,5,4,3,1.0,16,pd,1.0,8.416
opq8ltjs54l84mznb4j7poie,6,4,3,1.0,17,pd,1.0,12.513
opq8ltjs54l84mznb4j7poie,7,5,3,1.0,52,pd,1.0,25.496
opq8ltjs54l84mznb4j7poie,8,5,3,1.0,59,pd,0.0,29.96
p22gffsvhq7t6s5j5z3jhsoj,1,2,3,1.0,1,pd,1.0,2.611
p22gffsvhq7t6s5j5z3jhsoj,2,2,3,1.0,6,pd,1.0,4.547
p22gffsvhq7t6s5j5z3jhsoj,3,3,3,1.0,11,pd,1.0,21.716
p22gffsvhq7t6s5j5z3jhsoj,4,3,3,1.0,18,pd,1.0,16.76
p22gffsvhq7t6s5j5z3jhsoj,5,4,3,1.0,16,pd,1.0,10.111
p22gffsvhq7t6s5j5z3jhsoj,6,4,3,1.0,17,pd,0.0,26.934
p22gffsvhq7t6s5j5z3jhsoj,7,5,3,1.0,52,pd,0.0,27.05
p22gffsvhq7t6s5j5z3jhsoj,8,5,3,1.0,59,pd,0.0,23.182
p233f40aj2ompblg0np7ck05,1,2,3,1.0,19,pd,1.0,4.126
p233f40aj2ompblg0np7ck05,2,2,3,1.0,20,pd,0.0,5.704
p233f40aj2ompblg0np7ck05,3,3,3,1.0,11,pd,0.0,6.105
p233f40aj2ompblg0np7ck05,4,3,3,1.0,18,pd,0.0,10.411
p233f40aj2ompblg0np7ck05,5,4,3,1.0,16,pd,0.0,8.92
p233f40aj2ompblg0np7ck05,6,4,3,1.0,17,pd,1.0,8.552
p233f40aj2ompblg0np7ck05,7,5,3,1.0,52,pd,0.0,13.084
p233f40aj2ompblg0np7ck05,8,5,3,1.0,59,pd,0.0,9.095
p4wk3mkf18i32bq9fmhqgqxm,1,2,3,1.0,1,pd,1.0,3.542
p4wk3mkf18i32bq9fmhqgqxm,2,2,3,1.0,6,pd,0.0,13.296
p4wk3mkf18i32bq9fmhqgqxm,3,3,3,1.0,15,pd,1.0,13.071
p4wk3mkf18i32bq9fmhqgqxm,4,3,3,1.0,10,pd,1.0,20.408
p4wk3mkf18i32bq9fmhqgqxm,5,4,3,1.0,12,pd,1.0,15.719
p4wk3mkf18i32bq9fmhqgqxm,6,4,3,1.0,23,pd,1.0,10.259
p4wk3mkf18i32bq9fmhqgqxm,7,5,3,1.0,14,pd,0.0,19.233
p4wk3mkf18i32bq9fmhqgqxm,8,5,3,1.0,26,pd,0.0,16.285
p8ngi1qy0tgt2613jz8ju482,1,2,3,1.0,19,pd,0.0,10.076
p8ngi1qy0tgt2613jz8ju482,2,2,3,1.0,20,pd,1.0,16.928
p8ngi1qy0tgt2613jz8ju482,3,3,3,1.0,11,pd,0.0,16.248
p8ngi1qy0tgt2613jz8ju482,4,3,3,1.0,18,pd,1.0,20.063
p8ngi1qy0tgt2613jz8ju482,5,4,3,1.0,16,pd,1.0,6.93
p8ngi1qy0tgt2613jz8ju482,6,4,3,1.0,17,pd,1.0,17.727
p8ngi1qy0tgt2613jz8ju482,7,5,3,1.0,14,pd,0.0,21.577
p8ngi1qy0tgt2613jz8ju482,8,5,3,1.0,26,pd,0.0,29.057
pdp0sjilpxro3n4ai3ziwy9l,1,2,3,1.0,1,pd,1.0,1.831
pdp0sjilpxro3n4ai3ziwy9l,2,2,3,1.0,6,pd,1.0,3.342
pdp0sjilpxro3n4ai3ziwy9l,3,3,3,1.0,11,pd,0.0,6.071
pdp0sjilpxro3n4ai3ziwy9l,4,3,3,1.0,18,pd,0.0,5.622
pdp0sjilpxro3n4ai3ziwy9l,5,4,3,1.0,12,pd,0.0,3.326
pdp0sjilpxro3n4ai3ziwy9l,6,4,3,1.0,23,pd,1.0,9.623
pdp0sjilpxro3n4ai3ziwy9l,7,5,3,1.0,52,pd,0.0,11.534
pdp0sjilpxro3n4ai3ziwy9l,8,5,3,1.0,59,pd,0.0,6.527
pgiebczhtlpklswe11sq6yun,1,2,3,1.0,19,pd,1.0,14.212
pgiebczhtlpklswe11sq6yun,2,2,3,1.0,20,pd,1.0,14.403
pgiebczhtlpklswe11sq6yun,3,3,3,1.0,11,pd,0.0,16.24
pgiebczhtlpklswe11sq6yun,4,3,3,1.0,18,pd,0.0,26.582
pgiebczhtlpklswe11sq6yun,5,4,3,1.0,12,pd,,
pgiebczhtlpklswe11sq6yun,6,4,3,1.0,23,pd,0.0,9.774
pgiebczhtlpklswe11sq6yun,7,5,3,1.0,52,pd,1.0,22.422
pgiebczhtlpklswe11sq6yun,8,5,3,1.0,59,pd,1.0,29.072
pjspp9sgkpyn2kh3sh4mqhgm,1,2,3,1.0,19,pd,1.0,8.678
pjspp9sgkpyn2kh3sh4mqhgm,2,2,3,1.0,20,pd,1.0,7.02
pjspp9sgkpyn2kh3sh4mqhgm,3,3,3,1.0,11,pd,1.0,20.025
pjspp9sgkpyn2kh3sh4mqhgm,4,3,3,1.0,18,pd,1.0,16.866
pjspp9sgkpyn2kh3sh4mqhgm,5,4,3,1.0,16,pd,1.0,6.09
pjspp9sgkpyn2kh3sh4mqhgm,6,4,3,1.0,17,pd,0.0,7.222
pjspp9sgkpyn2kh3sh4mqhgm,7,5,3,1.0,52,pd,1.0,17.388
pjspp9sgkpyn2kh3sh4mqhgm,8,5,3,1.0,59,pd,0.0,11.284
pyz9lk7me91x9ehbw3oiyqd7,1,2,3,1.0,1,pd,1.0,2.112
pyz9lk7me91x9ehbw3oiyqd7,2,2,3,1.0,6,pd,1.0,3.047
pyz9lk7me91x9ehbw3oiyqd7,3,3,3,1.0,11,pd,1.0,5.947
pyz9lk7me91x9ehbw3oiyqd7,4,3,3,1.0,18,pd,1.0,8.516
pyz9lk7me91x9ehbw3oiyqd7,5,4,3,1.0,12,pd,0.0,8.537
pyz9lk7me91x9ehbw3oiyqd7,6,4,3,1.0,23,pd,1.0,9.17
pyz9lk7me91x9ehbw3oiyqd7,7,5,3,1.0,52,pd,0.0,7.945
pyz9lk7me91x9ehbw3oiyqd7,8,5,3,1.0,59,pd,0.0,6.116
q3layilcyvnfn92z2xlu2njq,1,2,3,1.0,1,pd,1.0,2.176
q3layilcyvnfn92z2xlu2njq,2,2,3,1.0,6,pd,0.0,16.516
q3layilcyvnfn92z2xlu2njq,3,3,3,1.0,15,pd,1.0,11.843
q3layilcyvnfn92z2xlu2njq,4,3,3,1.0,10,pd,1.0,13.705
q3layilcyvnfn92z2xlu2njq,5,4,3,1.0,16,pd,1.0,15.677
q3layilcyvnfn92z2xlu2njq,6,4,3,1.0,17,pd,1.0,18.916
q3layilcyvnfn92z2xlu2njq,7,5,3,1.0,52,pd,0.0,17.117
q3layilcyvnfn92z2xlu2njq,8,5,3,1.0,59,pd,0.0,22.747
qbulyg8ke67tb1x8xuecwhi4,1,2,3,1.0,19,pd,1.0,5.615
qbulyg8ke67tb1x8xuecwhi4,2,2,3,1.0,20,pd,1.0,7.13
qbulyg8ke67tb1x8xuecwhi4,3,3,3,1.0,11,pd,0.0,8.693
qbulyg8ke67tb1x8xuecwhi4,4,3,3,1.0,18,pd,1.0,9.939
qbulyg8ke67tb1x8xuecwhi4,5,4,3,1.0,16,pd,1.0,4.253
qbulyg8ke67tb1x8xuecwhi4,6,4,3,1.0,17,pd,0.0,8.544
qbulyg8ke67tb1x8xuecwhi4,7,5,3,1.0,52,pd,0.0,13.866
qbulyg8ke67tb1x8xuecwhi4,8,5,3,1.0,59,pd,0.0,6.943
qz3cypz22zf4di7y9yj1uuur,1,2,3,1.0,19,pd,1.0,9.883
qz3cypz22zf4di7y9yj1uuur,2,2,3,1.0,20,pd,1.0,9.687
qz3cypz22zf4di7y9yj1uuur,3,3,3,1.0,15,pd,1.0,7.553
qz3cypz22zf4di7y9yj1uuur,4,3,3,1.0,10,pd,1.0,11.531
qz3cypz22zf4di7y9yj1uuur,5,4,3,1.0,16,pd,1.0,9.06
qz3cypz22zf4di7y9yj1uuur,6,4,3,1.0,17,pd,1.0,9.758
qz3cypz22zf4di7y9yj1uuur,7,5,3,1.0,52,pd,0.0,15.098
qz3cypz22zf4di7y9yj1uuur,8,5,3,1.0,59,pd,1.0,15.439
s62sytaf6l5lm2fdeumsed7n,1,2,3,1.0,19,pd,0.0,1.947
s62sytaf6l5lm2fdeumsed7n,2,2,3,1.0,20,pd,1.0,2.564
s62sytaf6l5lm2fdeumsed7n,3,3,3,1.0,15,pd,0.0,0.658
s62sytaf6l5lm2fdeumsed7n,4,3,3,1.0,10,pd,0.0,0.93
s62sytaf6l5lm2fdeumsed7n,5,4,3,1.0,12,pd,1.0,2.304
s62sytaf6l5lm2fdeumsed7n,6,4,3,1.0,23,pd,1.0,1.076
s62sytaf6l5lm2fdeumsed7n,7,5,3,1.0,14,pd,1.0,1.791
s62sytaf6l5lm2fdeumsed7n,8,5,3,1.0,26,pd,1.0,0.986
s69v6c39uejlekaa0wd3n6gv,1,2,3,1.0,19,pd,1.0,9.413
s69v6c39uejlekaa0wd3n6gv,2,2,3,1.0,20,pd,0.0,14.559
s69v6c39uejlekaa0wd3n6gv,3,3,3,1.0,11,pd,0.0,10.791
s69v6c39uejlekaa0wd3n6gv,4,3,3,1.0,18,pd,0.0,15.625
s69v6c39uejlekaa0wd3n6gv,5,4,3,1.0,12,pd,0.0,10.652
s69v6c39uejlekaa0wd3n6gv,6,4,3,1.0,23,pd,0.0,12.173
s69v6c39uejlekaa0wd3n6gv,7,5,3,1.0,14,pd,0.0,19.034
s69v6c39uejlekaa0wd3n6gv,8,5,3,1.0,26,pd,0.0,8.775
s6qdrc38m24k85lsun809tm1,1,2,3,1.0,1,pd,1.0,1.511
s6qdrc38m24k85lsun809tm1,2,2,3,1.0,6,pd,0.0,4.752
s6qdrc38m24k85lsun809tm1,3,3,3,1.0,15,pd,0.0,6.968
s6qdrc38m24k85lsun809tm1,4,3,3,1.0,10,pd,1.0,14.864
s6qdrc38m24k85lsun809tm1,5,4,3,1.0,16,pd,1.0,9.224
s6qdrc38m24k85lsun809tm1,6,4,3,1.0,17,pd,1.0,14.84
s6qdrc38m24k85lsun809tm1,7,5,3,1.0,52,pd,0.0,9.312
s6qdrc38m24k85lsun809tm1,8,5,3,1.0,59,pd,0.0,7.24
s814fvyx3xtxgoh26lu2xo0o,1,2,3,1.0,19,pd,0.0,4.791
s814fvyx3xtxgoh26lu2xo0o,2,2,3,1.0,20,pd,1.0,10.463
s814fvyx3xtxgoh26lu2xo0o,3,3,3,1.0,11,pd,0.0,11.255
s814fvyx3xtxgoh26lu2xo0o,4,3,3,1.0,18,pd,1.0,6.407
s814fvyx3xtxgoh26lu2xo0o,5,4,3,1.0,12,pd,0.0,3.932
s814fvyx3xtxgoh26lu2xo0o,6,4,3,1.0,23,pd,0.0,5.962
s814fvyx3xtxgoh26lu2xo0o,7,5,3,1.0,14,pd,1.0,3.493
s814fvyx3xtxgoh26lu2xo0o,8,5,3,1.0,26,pd,0.0,5.193
sagqv1lehfgbzqedwjaoa251,1,2,3,1.0,1,pd,1.0,3.42
sagqv1lehfgbzqedwjaoa251,2,2,3,1.0,6,pd,1.0,8.503
sagqv1lehfgbzqedwjaoa251,3,3,3,1.0,11,pd,1.0,21.474
sagqv1lehfgbzqedwjaoa251,4,3,3,1.0,18,pd,1.0,15.112
sagqv1lehfgbzqedwjaoa251,5,4,3,1.0,12,pd,1.0,22.681
sagqv1lehfgbzqedwjaoa251,6,4,3,1.0,23,pd,1.0,15.578
sagqv1lehfgbzqedwjaoa251,7,5,3,1.0,14,pd,1.0,14.725
sagqv1lehfgbzqedwjaoa251,8,5,3,1.0,26,pd,,
sr24x05xbcfpp407vazkqlrz,1,2,3,1.0,1,pd,1.0,3.847
sr24x05xbcfpp407vazkqlrz,2,2,3,1.0,6,pd,1.0,4.672
sr24x05xbcfpp407vazkqlrz,3,3,3,1.0,15,pd,1.0,13.073
sr24x05xbcfpp407vazkqlrz,4,3,3,1.0,10,pd,0.0,6.59
sr24x05xbcfpp407vazkqlrz,5,4,3,1.0,16,pd,0.0,1.229
sr24x05xbcfpp407vazkqlrz,6,4,3,1.0,17,pd,0.0,0.855
sr24x05xbcfpp407vazkqlrz,7,5,3,1.0,14,pd,0.0,2.15
sr24x05xbcfpp407vazkqlrz,8,5,3,1.0,26,pd,0.0,1.277
t40o3iej643eic2dnq824zbo,1,2,3,1.0,19,pd,1.0,13.983
t40o3iej643eic2dnq824zbo,2,2,3,1.0,20,pd,1.0,11.59
t40o3iej643eic2dnq824zbo,3,3,3,1.0,15,pd,0.0,12.039
t40o3iej643eic2dnq824zbo,4,3,3,1.0,10,pd,0.0,18.649
t40o3iej643eic2dnq824zbo,5,4,3,1.0,12,pd,0.0,18.613
t40o3iej643eic2dnq824zbo,6,4,3,1.0,23,pd,0.0,10.854
t40o3iej643eic2dnq824zbo,7,5,3,1.0,14,pd,,
t40o3iej643eic2dnq824zbo,8,5,3,1.0,26,pd,0.0,14.0
t88l62m5luc73cw4o1ue30nz,1,2,3,1.0,19,pd,1.0,4.735
t88l62m5luc73cw4o1ue30nz,2,2,3,1.0,20,pd,0.0,5.117
t88l62m5luc73cw4o1ue30nz,3,3,3,1.0,11,pd,1.0,6.202
t88l62m5luc73cw4o1ue30nz,4,3,3,1.0,18,pd,1.0,7.245
t88l62m5luc73cw4o1ue30nz,5,4,3,1.0,16,pd,1.0,3.382
t88l62m5luc73cw4o1ue30nz,6,4,3,1.0,17,pd,0.0,4.106
t88l62m5luc73cw4o1ue30nz,7,5,3,1.0,14,pd,0.0,3.614
t88l62m5luc73cw4o1ue30nz,8,5,3,1.0,26,pd,0.0,6.134
t9d3r4e94iufm1ah305ebkha,1,2,3,1.0,1,pd,1.0,2.75
t9d3r4e94iufm1ah305ebkha,2,2,3,1.0,6,pd,0.0,11.414
t9d3r4e94iufm1ah305ebkha,3,3,3,1.0,11,pd,0.0,22.106
t9d3r4e94iufm1ah305ebkha,4,3,3,1.0,18,pd,1.0,11.403
t9d3r4e94iufm1ah305ebkha,5,4,3,1.0,16,pd,1.0,6.626
t9d3r4e94iufm1ah305ebkha,6,4,3,1.0,17,pd,0.0,26.126
t9d3r4e94iufm1ah305ebkha,7,5,3,1.0,14,pd,0.0,8.235
t9d3r4e94iufm1ah305ebkha,8,5,3,1.0,26,pd,0.0,10.914
tx3bx0nov1zafxqgq5qxd3ov,1,2,3,1.0,19,pd,1.0,9.543
tx3bx0nov1zafxqgq5qxd3ov,2,2,3,1.0,20,pd,0.0,17.649
tx3bx0nov1zafxqgq5qxd3ov,3,3,3,1.0,15,pd,0.0,27.33
tx3bx0nov1zafxqgq5qxd3ov,4,3,3,1.0,10,pd,1.0,28.525
tx3bx0nov1zafxqgq5qxd3ov,5,4,3,1.0,12,pd,1.0,16.625
tx3bx0nov1zafxqgq5qxd3ov,6,4,3,1.0,23,pd,1.0,15.405
tx3bx0nov1zafxqgq5qxd3ov,7,5,3,1.0,52,pd,0.0,28.845
tx3bx0nov1zafxqgq5qxd3ov,8,5,3,1.0,59,pd,0.0,25.198
u14cqkb3zem2awe3nc6gek7c,1,2,3,1.0,1,pd,1.0,2.699
u14cqkb3zem2awe3nc6gek7c,2,2,3,1.0,6,pd,1.0,3.395
u14cqkb3zem2awe3nc6gek7c,3,3,3,1.0,15,pd,0.0,2.318
u14cqkb3zem2awe3nc6gek7c,4,3,3,1.0,10,pd,0.0,1.372
u14cqkb3zem2awe3nc6gek7c,5,4,3,1.0,16,pd,0.0,1.711
u14cqkb3zem2awe3nc6gek7c,6,4,3,1.0,17,pd,0.0,1.798
u14cqkb3zem2awe3nc6gek7c,7,5,3,1.0,52,pd,0.0,2.272
u14cqkb3zem2awe3nc6gek7c,8,5,3,1.0,59,pd,0.0,2.095
ulw69hgebw64mbud6y4skmnm,1,2,3,1.0,19,pd,1.0,6.628
ulw69hgebw64mbud6y4skmnm,2,2,3,1.0,20,pd,0.0,11.227
ulw69hgebw64mbud6y4skmnm,3,3,3,1.0,15,pd,0.0,23.047
ulw69hgebw64mbud6y4skmnm,4,3,3,1.0,10,pd,0.0,2.636
ulw69hgebw64mbud6y4skmnm,5,4,3,1.0,16,pd,0.0,1.611
ulw69hgebw64mbud6y4skmnm,6,4,3,1.0,17,pd,1.0,1.155
ulw69hgebw64mbud6y4skmnm,7,5,3,1.0,14,pd,0.0,7.214
ulw69hgebw64mbud6y4skmnm,8,5,3,1.0,26,pd,0.0,7.563
v55aoqnaqxifjonrej1e94qo,1,2,3,1.0,19,pd,1.0,7.816
v55aoqnaqxifjonrej1e94qo,2,2,3,1.0,20,pd,1.0,10.396
v55aoqnaqxifjonrej1e94qo,3,3,3,1.0,15,pd,1.0,11.743
v55aoqnaqxifjonrej1e94qo,4,3,3,1.0,10,pd,1.0,16.419
v55aoqnaqxifjonrej1e94qo,5,4,3,1.0,12,pd,0.0,20.954
v55aoqnaqxifjonrej1e94qo,6,4,3,1.0,23,pd,1.0,12.776
v55aoqnaqxifjonrej1e94qo,7,5,3,1.0,14,pd,1.0,15.197
v55aoqnaqxifjonrej1e94qo,8,5,3,1.0,26,pd,1.0,16.865
veifenknm2exp55wkymimhgq,1,2,3,1.0,19,pd,1.0,17.268
veifenknm2exp55wkymimhgq,2,2,3,1.0,20,pd,0.0,2.012
veifenknm2exp55wkymimhgq,3,3,3,1.0,11,pd,0.0,14.92
veifenknm2exp55wkymimhgq,4,3,3,1.0,18,pd,0.0,1.87
veifenknm2exp55wkymimhgq,5,4,3,1.0,12,pd,1.0,12.275
veifenknm2exp55wkymimhgq,6,4,3,1.0,23,pd,1.0,11.685
veifenknm2exp55wkymimhgq,7,5,3,1.0,14,pd,0.0,16.495
veifenknm2exp55wkymimhgq,8,5,3,1.0,26,pd,0.0,2.75
vmjfhqsa104plen4ymhhb54j,1,2,3,1.0,19,pd,1.0,10.974
vmjfhqsa104plen4ymhhb54j,2,2,3,1.0,20,pd,1.0,10.953
vmjfhqsa104plen4ymhhb54j,3,3,3,1.0,15,pd,0.0,26.246
vmjfhqsa104plen4ymhhb54j,4,3,3,1.0,10,pd,1.0,24.203
vmjfhqsa104plen4ymhhb54j,5,4,3,1.0,12,pd,1.0,20.222
vmjfhqsa104plen4ymhhb54j,6,4,3,1.0,23,pd,1.0,15.505
vmjfhqsa104plen4ymhhb54j,7,5,3,1.0,52,pd,0.0,27.065
vmjfhqsa104plen4ymhhb54j,8,5,3,1.0,59,pd,,
w32b9rodpxgsg5wncn0r2hqe,1,2,3,1.0,1,pd,1.0,2.094
w32b9rodpxgsg5wncn0r2hqe,2,2,3,1.0,6,pd,1.0,8.103
w32b9rodpxgsg5wncn0r2hqe,3,3,3,1.0,11,pd,1.0,24.22
w32b9rodpxgsg5wncn0r2hqe,4,3,3,1.0,18,pd,1.0,22.381
w32b9rodpxgsg5wncn0r2hqe,5,4,3,1.0,12,pd,,
w32b9rodpxgsg5wncn0r2hqe,6,4,3,1.0,23,pd,0.0,12.513
w32b9rodpxgsg5wncn0r2hqe,7,5,3,1.0,52,pd,0.0,20.262
w32b9rodpxgsg5wncn0r2hqe,8,5,3,1.0,59,pd,0.0,28.514
w8ybcy6j8oex2oif8n1si4kq,1,2,3,1.0,19,pd,1.0,16.255
w8ybcy6j8oex2oif8n1si4kq,2,2,3,1.0,20,pd,1.0,9.958
w8ybcy6j8oex2oif8n1si4kq,3,3,3,1.0,15,pd,1.0,7.733
w8ybcy6j8oex2oif8n1si4kq,4,3,3,1.0,10,pd,1.0,24.586
w8ybcy6j8oex2oif8n1si4kq,5,4,3,1.0,16,pd,1.0,15.445
w8ybcy6j8oex2oif8n1si4kq,6,4,3,1.0,17,pd,1.0,7.903
w8ybcy6j8oex2oif8n1si4kq,7,5,3,1.0,52,pd,0.0,16.236
w8ybcy6j8oex2oif8n1si4kq,8,5,3,1.0,59,pd,1.0,17.726
wedqa75qtxrnh46824tn6jbk,1,2,3,1.0,19,pd,1.0,5.855
wedqa75qtxrnh46824tn6jbk,2,2,3,1.0,20,pd,1.0,7.977
wedqa75qtxrnh46824tn6jbk,3,3,3,1.0,15,pd,1.0,7.0
wedqa75qtxrnh46824tn6jbk,4,3,3,1.0,10,pd,1.0,12.888
wedqa75qtxrnh46824tn6jbk,5,4,3,1.0,12,pd,1.0,10.664
wedqa75qtxrnh46824tn6jbk,6,4,3,1.0,23,pd,1.0,16.537
wedqa75qtxrnh46824tn6jbk,7,5,3,1.0,52,pd,1.0,16.807
wedqa75qtxrnh46824tn6jbk,8,5,3,1.0,59,pd,0.0,16.489
whp1eqbn0x2dxh7by3nk2dda,1,2,3,1.0,1,pd,1.0,2.719
whp1eqbn0x2dxh7by3nk2dda,2,2,3,1.0,6,pd,1.0,7.343
whp1eqbn0x2dxh7by3nk2dda,3,3,3,1.0,11,pd,1.0,11.829
whp1eqbn0x2dxh7by3nk2dda,4,3,3,1.0,18,pd,1.0,12.623
whp1eqbn0x2dxh7by3nk2dda,5,4,3,1.0,12,pd,0.0,24.259
whp1eqbn0x2dxh7by3nk2dda,6,4,3,1.0,23,pd,1.0,13.497
whp1eqbn0x2dxh7by3nk2dda,7,5,3,1.0,52,pd,1.0,17.339
whp1eqbn0x2dxh7by3nk2dda,8,5,3,1.0,59,pd,1.0,29.715
wjrrapbor7p9s1y6swwqel6g,1,2,3,1.0,1,pd,1.0,2.845
wjrrapbor7p9s1y6swwqel6g,2,2,3,1.0,6,pd,1.0,17.529
wjrrapbor7p9s1y6swwqel6g,3,3,3,1.0,11,pd,1.0,19.149
wjrrapbor7p9s1y6swwqel6g,4,3,3,1.0,18,pd,1.0,15.641
wjrrapbor7p9s1y6swwqel6g,5,4,3,1.0,12,pd,1.0,12.991
wjrrapbor7p9s1y6swwqel6g,6,4,3,1.0,23,pd,1.0,13.048
wjrrapbor7p9s1y6swwqel6g,7,5,3,1.0,14,pd,0.0,24.903
wjrrapbor7p9s1y6swwqel6g,8,5,3,1.0,26,pd,1.0,24.95
wmd7phtdpm131ssmim16a09r,1,2,3,1.0,1,pd,1.0,1.991
wmd7phtdpm131ssmim16a09r,2,2,3,1.0,6,pd,1.0,7.52
wmd7phtdpm131ssmim16a09r,3,3,3,1.0,15,pd,1.0,15.973
wmd7phtdpm131ssmim16a09r,4,3,3,1.0,10,pd,0.0,14.602
wmd7phtdpm131ssmim16a09r,5,4,3,1.0,12,pd,1.0,11.169
wmd7phtdpm131ssmim16a09r,6,4,3,1.0,23,pd,1.0,13.736
wmd7phtdpm131ssmim16a09r,7,5,3,1.0,52,pd,1.0,17.355
wmd7phtdpm131ssmim16a09r,8,5,3,1.0,59,pd,1.0,25.581
wocr3thfx6cm41pyjjzkb4lo,1,2,3,1.0,1,pd,1.0,2.721
wocr3thfx6cm41pyjjzkb4lo,2,2,3,1.0,6,pd,1.0,11.432
wocr3thfx6cm41pyjjzkb4lo,3,3,3,1.0,11,pd,0.0,21.388
wocr3thfx6cm41pyjjzkb4lo,4,3,3,1.0,18,pd,1.0,15.368
wocr3thfx6cm41pyjjzkb4lo,5,4,3,1.0,16,pd,1.0,9.71
wocr3thfx6cm41pyjjzkb4lo,6,4,3,1.0,17,pd,1.0,26.799
wocr3thfx6cm41pyjjzkb4lo,7,5,3,1.0,14,pd,0.0,25.651
wocr3thfx6cm41pyjjzkb4lo,8,5,3,1.0,26,pd,1.0,25.797
wrbi4z8vg5zmwa3cniznq7kr,1,2,3,1.0,19,pd,1.0,8.703
wrbi4z8vg5zmwa3cniznq7kr,2,2,3,1.0,20,pd,1.0,5.656
wrbi4z8vg5zmwa3cniznq7kr,3,3,3,1.0,15,pd,0.0,6.472
wrbi4z8vg5zmwa3cniznq7kr,4,3,3,1.0,10,pd,0.0,8.952
wrbi4z8vg5zmwa3cniznq7kr,5,4,3,1.0,16,pd,0.0,3.976
wrbi4z8vg5zmwa3cniznq7kr,6,4,3,1.0,17,pd,0.0,8.464
wrbi4z8vg5zmwa3cniznq7kr,7,5,3,1.0,52,pd,0.0,5.479
wrbi4z8vg5zmwa3cniznq7kr,8,5,3,1.0,59,pd,0.0,5.879
wz2ndcdxilb4q81ykcq4809w,1,2,3,1.0,1,pd,1.0,3.157
wz2ndcdxilb4q81ykcq4809w,2,2,3,1.0,6,pd,0.0,7.136
wz2ndcdxilb4q81ykcq4809w,3,3,3,1.0,15,pd,0.0,22.606
wz2ndcdxilb4q81ykcq4809w,4,3,3,1.0,10,pd,0.0,29.6
wz2ndcdxilb4q81ykcq4809w,5,4,3,1.0,12,pd,0.0,26.108
wz2ndcdxilb4q81ykcq4809w,6,4,3,1.0,23,pd,0.0,24.42
wz2ndcdxilb4q81ykcq4809w,7,5,3,1.0,52,pd,1.0,26.705
wz2ndcdxilb4q81ykcq4809w,8,5,3,1.0,59,pd,0.0,26.846
wzfis0ja2uu2ozc3erzrlron,1,2,3,1.0,19,pd,1.0,12.666
wzfis0ja2uu2ozc3erzrlron,2,2,3,1.0,20,pd,1.0,9.162
wzfis0ja2uu2ozc3erzrlron,3,3,3,1.0,11,pd,1.0,13.119
wzfis0ja2uu2ozc3erzrlron,4,3,3,1.0,18,pd,1.0,14.096
wzfis0ja2uu2ozc3erzrlron,5,4,3,1.0,16,pd,1.0,5.304
wzfis0ja2uu2ozc3erzrlron,6,4,3,1.0,17,pd,1.0,7.106
wzfis0ja2uu2ozc3erzrlron,7,5,3,1.0,14,pd,1.0,19.7
wzfis0ja2uu2ozc3erzrlron,8,5,3,1.0,26,pd,1.0,14.394
x95sri0tbypb9ga34bql9gpc,1,2,3,1.0,1,pd,1.0,4.201
x95sri0tbypb9ga34bql9gpc,2,2,3,1.0,6,pd,1.0,11.563
x95sri0tbypb9ga34bql9gpc,3,3,3,1.0,15,pd,1.0,14.622
x95sri0tbypb9ga34bql9gpc,4,3,3,1.0,10,pd,1.0,16.725
x95sri0tbypb9ga34bql9gpc,5,4,3,1.0,16,pd,1.0,9.195
x95sri0tbypb9ga34bql9gpc,6,4,3,1.0,17,pd,0.0,26.898
x95sri0tbypb9ga34bql9gpc,7,5,3,1.0,52,pd,1.0,26.151
x95sri0tbypb9ga34bql9gpc,8,5,3,1.0,59,pd,0.0,19.826
x9yinwmoyajxhbzo6k7xc2an,1,2,3,1.0,1,pd,1.0,3.057
x9yinwmoyajxhbzo6k7xc2an,2,2,3,1.0,6,pd,0.0,18.766
x9yinwmoyajxhbzo6k7xc2an,3,3,3,1.0,11,pd,0.0,22.434
x9yinwmoyajxhbzo6k7xc2an,4,3,3,1.0,18,pd,1.0,15.977
x9yinwmoyajxhbzo6k7xc2an,5,4,3,1.0,12,pd,1.0,27.404
x9yinwmoyajxhbzo6k7xc2an,6,4,3,1.0,23,pd,1.0,14.329
x9yinwmoyajxhbzo6k7xc2an,7,5,3,1.0,52,pd,0.0,26.338
x9yinwmoyajxhbzo6k7xc2an,8,5,3,1.0,59,pd,0.0,28.516
xdbs345yx1gy374scqd6b0o9,1,2,3,1.0,1,pd,1.0,3.599
xdbs345yx1gy374scqd6b0o9,2,2,3,1.0,6,pd,0.0,8.307
xdbs345yx1gy374scqd6b0o9,3,3,3,1.0,11,pd,0.0,10.46
xdbs345yx1gy374scqd6b0o9,4,3,3,1.0,18,pd,1.0,18.426
xdbs345yx1gy374scqd6b0o9,5,4,3,1.0,12,pd,1.0,11.548
xdbs345yx1gy374scqd6b0o9,6,4,3,1.0,23,pd,1.0,11.971
xdbs345yx1gy374scqd6b0o9,7,5,3,1.0,14,pd,0.0,26.74
xdbs345yx1gy374scqd6b0o9,8,5,3,1.0,26,pd,0.0,16.135
xtenn66s2r66unn451ffd0gn,1,2,3,1.0,19,pd,0.0,6.74
xtenn66s2r66unn451ffd0gn,2,2,3,1.0,20,pd,1.0,6.645
xtenn66s2r66unn451ffd0gn,3,3,3,1.0,11,pd,1.0,9.862
xtenn66s2r66unn451ffd0gn,4,3,3,1.0,18,pd,1.0,6.695
xtenn66s2r66unn451ffd0gn,5,4,3,1.0,16,pd,1.0,4.769
xtenn66s2r66unn451ffd0gn,6,4,3,1.0,17,pd,0.0,14.208
xtenn66s2r66unn451ffd0gn,7,5,3,1.0,14,pd,0.0,13.276
xtenn66s2r66unn451ffd0gn,8,5,3,1.0,26,pd,0.0,15.242
yeyf5cr0oz08obuk9slyam10,1,2,3,1.0,1,pd,1.0,1.953
yeyf5cr0oz08obuk9slyam10,2,2,3,1.0,6,pd,1.0,10.374
yeyf5cr0oz08obuk9slyam10,3,3,3,1.0,11,pd,1.0,8.732
yeyf5cr0oz08obuk9slyam10,4,3,3,1.0,18,pd,0.0,9.288
yeyf5cr0oz08obuk9slyam10,5,4,3,1.0,16,pd,1.0,4.497
yeyf5cr0oz08obuk9slyam10,6,4,3,1.0,17,pd,1.0,11.387
yeyf5cr0oz08obuk9slyam10,7,5,3,1.0,52,pd,0.0,14.036
yeyf5cr0oz08obuk9slyam10,8,5,3,1.0,59,pd,0.0,8.169
ykfd3p7e4j5s36ksscm33dzz,1,2,3,1.0,19,pd,1.0,11.097
ykfd3p7e4j5s36ksscm33dzz,2,2,3,1.0,20,pd,1.0,9.639
ykfd3p7e4j5s36ksscm33dzz,3,3,3,1.0,11,pd,1.0,26.007
ykfd3p7e4j5s36ksscm33dzz,4,3,3,1.0,18,pd,1.0,13.657
ykfd3p7e4j5s36ksscm33dzz,5,4,3,1.0,16,pd,1.0,8.135
ykfd3p7e4j5s36ksscm33dzz,6,4,3,1.0,17,pd,1.0,25.61
ykfd3p7e4j5s36ksscm33dzz,7,5,3,1.0,52,pd,1.0,23.795
ykfd3p7e4j5s36ksscm33dzz,8,5,3,1.0,59,pd,0.0,29.793
yo56smy7qaae5qs2l8ztx4r4,1,2,3,1.0,19,pd,1.0,6.542
yo56smy7qaae5qs2l8ztx4r4,2,2,3,1.0,20,pd,1.0,12.239
yo56smy7qaae5qs2l8ztx4r4,3,3,3,1.0,15,pd,1.0,19.26
yo56smy7qaae5qs2l8ztx4r4,4,3,3,1.0,10,pd,1.0,17.785
yo56smy7qaae5qs2l8ztx4r4,5,4,3,1.0,12,pd,1.0,22.913
yo56smy7qaae5qs2l8ztx4r4,6,4,3,1.0,23,pd,1.0,28.311
yo56smy7qaae5qs2l8ztx4r4,7,5,3,1.0,14,pd,0.0,27.567
yo56smy7qaae5qs2l8ztx4r4,8,5,3,1.0,26,pd,0.0,11.206
yo8bylaza1b280dbu1btk185,1,2,3,1.0,19,pd,1.0,18.864
yo8bylaza1b280dbu1btk185,2,2,3,1.0,20,pd,1.0,13.196
yo8bylaza1b280dbu1btk185,3,3,3,1.0,15,pd,,
yo8bylaza1b280dbu1btk185,4,3,3,1.0,10,pd,1.0,18.919
yo8bylaza1b280dbu1btk185,5,4,3,1.0,16,pd,1.0,13.569
yo8bylaza1b280dbu1btk185,6,4,3,1.0,17,pd,1.0,20.958
yo8bylaza1b280dbu1btk185,7,5,3,1.0,52,pd,,
yo8bylaza1b280dbu1btk185,8,5,3,1.0,59,pd,0.0,0.248
yu4r9iioam431s56hlzdhd5x,1,2,3,1.0,1,pd,1.0,2.438
yu4r9iioam431s56hlzdhd5x,2,2,3,1.0,6,pd,1.0,5.632
yu4r9iioam431s56hlzdhd5x,3,3,3,1.0,15,pd,1.0,9.238
yu4r9iioam431s56hlzdhd5x,4,3,3,1.0,10,pd,0.0,15.818
yu4r9iioam431s56hlzdhd5x,5,4,3,1.0,12,pd,1.0,5.911
yu4r9iioam431s56hlzdhd5x,6,4,3,1.0,23,pd,0.0,8.647
yu4r9iioam431s56hlzdhd5x,7,5,3,1.0,52,pd,0.0,13.768
yu4r9iioam431s56hlzdhd5x,8,5,3,1.0,59,pd,1.0,13.816
z4msps7pfz5irt5s4nno460i,1,2,3,1.0,19,pd,0.0,12.764
z4msps7pfz5irt5s4nno460i,2,2,3,1.0,20,pd,1.0,6.479
z4msps7pfz5irt5s4nno460i,3,3,3,1.0,15,pd,0.0,9.304
z4msps7pfz5irt5s4nno460i,4,3,3,1.0,10,pd,0.0,10.952
z4msps7pfz5irt5s4nno460i,5,4,3,1.0,12,pd,0.0,6.879
z4msps7pfz5irt5s4nno460i,6,4,3,1.0,23,pd,1.0,9.202
z4msps7pfz5irt5s4nno460i,7,5,3,1.0,52,pd,1.0,9.244
z4msps7pfz5irt5s4nno460i,8,5,3,1.0,59,pd,0.0,6.323
zoo463f39bz7mlyxt7ivk9ob,1,2,3,1.0,1,pd,1.0,3.205
zoo463f39bz7mlyxt7ivk9ob,2,2,3,1.0,6,pd,1.0,7.268
zoo463f39bz7mlyxt7ivk9ob,3,3,3,1.0,15,pd,1.0,8.974
zoo463f39bz7mlyxt7ivk9ob,4,3,3,1.0,10,pd,1.0,14.116
zoo463f39bz7mlyxt7ivk9ob,5,4,3,1.0,12,pd,0.0,12.181
zoo463f39bz7mlyxt7ivk9ob,6,4,3,1.0,23,pd,1.0,11.138
zoo463f39bz7mlyxt7ivk9ob,7,5,3,1.0,14,pd,1.0,15.384
zoo463f39bz7mlyxt7ivk9ob,8,5,3,1.0,26,pd,1.0,21.37
zpib9xtiih76osu2o6qm0yus,1,2,3,1.0,1,pd,1.0,1.842
zpib9xtiih76osu2o6qm0yus,2,2,3,1.0,6,pd,0.0,4.796
zpib9xtiih76osu2o6qm0yus,3,3,3,1.0,11,pd,1.0,7.078
zpib9xtiih76osu2o6qm0yus,4,3,3,1.0,18,pd,0.0,5.832
zpib9xtiih76osu2o6qm0yus,5,4,3,1.0,16,pd,1.0,4.929
zpib9xtiih76osu2o6qm0yus,6,4,3,1.0,17,pd,1.0,7.391
zpib9xtiih76osu2o6qm0yus,7,5,3,1.0,52,pd,0.0,4.689
zpib9xtiih76osu2o6qm0yus,8,5,3,1.0,59,pd,0.0,5.913
zzml755kuw69m5au8z6wt0lg,1,2,3,1.0,19,pd,1.0,8.695
zzml755kuw69m5au8z6wt0lg,2,2,3,1.0,20,pd,1.0,13.966
zzml755kuw69m5au8z6wt0lg,3,3,3,1.0,15,pd,0.0,9.51
zzml755kuw69m5au8z6wt0lg,4,3,3,1.0,10,pd,0.0,17.357
zzml755kuw69m5au8z6wt0lg,5,4,3,1.0,16,pd,1.0,12.95
zzml755kuw69m5au8z6wt0lg,6,4,3,1.0,17,pd,0.0,17.65
zzml755kuw69m5au8z6wt0lg,7,5,3,1.0,52,pd,0.0,18.453
zzml755kuw69m5au8z6wt0lg,8,5,3,1.0,59,pd,0.0,17.404
