subject,trial,item,dimension,puzzle,choice,accuracy,rt
3640419,1,2,1,2_double__0000020001001020_shape_set_17_T.jpeg,2_double__0000020001001020_shape_set_17_T1_minimal_difference.jpeg,1,4.41
3640419,2,3,1,3_clockwork3_single__000011010200_shape_set_20_T.jpeg,3_clockwork3_single__000011010200_shape_set_20_T1_minimal_difference.jpeg,1,2.797
3640419,3,4,1,4_flower_single__02001220000001000200_shape_set_4_T.jpeg,4_flower_single__02001220000001000200_shape_set_4_T1_paired_difference.jpeg,1,4.605
3640419,4,5,1,5_grid_single__0000000010200000_shape_set_17_T.jpeg,5_grid_single__0000000010200000_shape_set_17_T1_paired_difference.jpeg,1,2.42
3640419,5,7,1,7_flower_single__01000200020012200200_shape_set_4_T.jpeg,7_flower_single__01000200020012200200_shape_set_4_T1_minimal_difference.jpeg,1,4.113
3640419,6,8,1,8_grid_single__0100000000001111_shape_set_17_T.jpeg,8_grid_single__0100000000001111_shape_set_17_T3_paired_difference.jpeg,0,5.853
3640419,7,9,1,9_flower_single__10020000020001000200_shape_set_20_T.jpeg,9_flower_single__10020000020001000200_shape_set_20_T1_minimal_difference.jpeg,1,1.086
3640419,8,1,2,1_single__101010001010_shape_set_4_T.jpeg,1_single__101010001010_shape_set_4_T1_paired_difference.jpeg,1,2.264
3640419,9,6,2,6_single__121210101222_shape_set_20_T.jpeg,6_single__121210101222_shape_set_20_T4_paired_difference.jpeg,0,4.571
3640419,10,19,2,19_single__101112201212_shape_set_4_T.jpeg,19_single__101112201212_shape_set_4_T4_minimal_difference.jpeg,0,0.799
3640419,11,20,2,20_double__1221010010220000_shape_set_17_T.jpeg,20_double__1221010010220000_shape_set_17_T2_minimal_difference.jpeg,0,5.185
3640419,12,22,2,22_single__112212211220_shape_set_4_T.jpeg,22_single__112212211220_shape_set_4_T4_paired_difference.jpeg,0,3.141
3640419,13,25,2,25_clockwork3_single__112110110000_shape_set_4_T.jpeg,25_clockwork3_single__112110110000_shape_set_4_T2_minimal_difference.jpeg,0,4.636
3640419,14,28,2,28_flower_double__0000122201000100000011220000020001000100_shape_set_4_T.jpeg,28_flower_double__0000122201000100000011220000020001000100_shape_set_4_T3_minimal_difference.jpeg,0,1.007
3640419,15,39,2,39_flower_double__0100010001000000122001000000010012120200_shape_set_20_T.jpeg,39_flower_double__0100010001000000122001000000010012120200_shape_set_20_T1_paired_difference.jpeg,1,1.103
3640419,16,10,3,10_triple__000012221120010002000000_shape_set_4_T.jpeg,10_triple__000012221120010002000000_shape_set_4_T2_minimal_difference.jpeg,0,2.068
3640419,17,11,3,11_grid_single__1220111101001121_shape_set_17_T.jpeg,11_grid_single__1220111101001121_shape_set_17_T2_minimal_difference.jpeg,0,1.981
3640419,18,13,3,13_flower_single__01001221122102001122_shape_set_4_T.jpeg,13_flower_single__01001221122102001122_shape_set_4_T2_paired_difference.jpeg,0,1.369
3640419,19,15,3,15_double__0000110211121011_shape_set_20_T.jpeg,15_double__0000110211121011_shape_set_20_T2_minimal_difference.jpeg,0,3.732
3640419,20,18,3,18_flower_double__1022102200000100010000000200122101000000_shape_set_20_T.jpeg,18_flower_double__1022102200000100010000000200122101000000_shape_set_20_T1_minimal_difference.jpeg,1,1.817
3640419,21,27,3,27_double__1020020012121122_shape_set_20_T.jpeg,27_double__1020020012121122_shape_set_20_T2_minimal_difference.jpeg,0,3.727
3640419,22,31,3,31_flower_double__0200010011120100020012110000000002001102_shape_set_4_T.jpeg,31_flower_double__0200010011120100020012110000000002001102_shape_set_4_T4_paired_difference.jpeg,0,0.892
3640419,23,12,4,12_double__1212102211111221_shape_set_20_T.jpeg,12_double__1212102211111221_shape_set_20_T4_minimal_difference.jpeg,0,0.588
3640419,24,16,4,16_grid_single__1012121112021101_shape_set_4_T.jpeg,16_grid_single__1012121112021101_shape_set_4_T1_minimal_difference.jpeg,1,0.849
3640419,25,17,4,17_double__1222110111201012_shape_set_17_T.jpeg,17_double__1222110111201012_shape_set_17_T1_paired_difference.jpeg,1,4.592
3640419,26,23,4,23_grid_single__1110120212111121_shape_set_17_T.jpeg,23_grid_single__1110120212111121_shape_set_17_T2_minimal_difference.jpeg,0,3.998
3640419,27,40,4,40_grid_double__02000000010011100200020010211111_shape_set_4_T.jpeg,40_grid_double__02000000010011100200020010211111_shape_set_4_T2_paired_difference.jpeg,0,1.001
3640419,28,42,4,42_double__1111101211021120_shape_set_20_T.jpeg,42_double__1111101211021120_shape_set_20_T1_paired_difference.jpeg,1,0.86
3640419,29,14,5,14_triple__112110100000000010021222_shape_set_17_T.jpeg,14_triple__112110100000000010021222_shape_set_17_T4_paired_difference.jpeg,0,1.091
3640419,30,26,5,26_grid_triple__000000000000112102000100020000000200000011221121_shape_set_17_T.jpeg,26_grid_triple__000000000000112102000100020000000200000011221121_shape_set_17_T3_minimal_difference.jpeg,0,0.587
3640419,31,52,5,52_flower_single__12121202111010011122_shape_set_4_T.jpeg,52_flower_single__12121202111010011122_shape_set_4_T1_minimal_difference.jpeg,1,0.765
3640419,32,59,5,59_flower_single__11211110102010011122_shape_set_17_T.jpeg,59_flower_single__11211110102010011122_shape_set_17_T4_paired_difference.jpeg,0,1.235
3640419,33,36,6,36_triple__111212011010112010220100_shape_set_20_T.jpeg,36_triple__111212011010112010220100_shape_set_20_T1_minimal_difference.jpeg,1,0.791
3640419,34,44,6,44_triple__120211201211000011101212_shape_set_17_T.jpeg,44_triple__120211201211000011101212_shape_set_17_T3_minimal_difference.jpeg,0,0.938
3640419,35,46,6,46_triple__101112200200110212211001_shape_set_4_T.jpeg,46_triple__101112200200110212211001_shape_set_4_T2_paired_difference.jpeg,0,0.946
3640419,36,54,6,54_grid_double__01001121120112110100100212100100_shape_set_20_T.jpeg,54_grid_double__01001121120112110100100212100100_shape_set_20_T2_paired_difference.jpeg,0,2.124
3640419,37,21,7,21_triple__100111201112121010221202_shape_set_20_T.jpeg,21_triple__100111201112121010221202_shape_set_20_T1_paired_difference.jpeg,1,0.744
3640419,38,24,7,24_grid_triple__010011220200122002000200100110021212000001000200_shape_set_20_T.jpeg,24_grid_triple__010011220200122002000200100110021212000001000200_shape_set_20_T1_minimal_difference.jpeg,1,0.908
3640419,39,29,7,29_grid_double__10121011111012010000102012020000_shape_set_17_T.jpeg,29_grid_double__10121011111012010000102012020000_shape_set_17_T4_paired_difference.jpeg,0,0.759
3640419,40,35,8,35_grid_triple__122112021120000000001010010001001022110101000100_shape_set_17_T.jpeg,35_grid_triple__122112021120000000001010010001001022110101000100_shape_set_17_T3_paired_difference.jpeg,0,0.448
3646738,1,2,1,2_double__0000020001001020_shape_set_17_T.jpeg,2_double__0000020001001020_shape_set_17_T1_paired_difference.jpeg,1,6.458
3646738,2,3,1,3_clockwork3_single__000011010200_shape_set_20_T.jpeg,3_clockwork3_single__000011010200_shape_set_20_T1_minimal_difference.jpeg,1,2.934
3646738,3,4,1,4_flower_single__02001220000001000200_shape_set_4_T.jpeg,4_flower_single__02001220000001000200_shape_set_4_T1_minimal_difference.jpeg,1,5.032
3646738,4,5,1,5_grid_single__0000000010200000_shape_set_17_T.jpeg,5_grid_single__0000000010200000_shape_set_17_T1_minimal_difference.jpeg,1,2.27
3646738,5,7,1,7_flower_single__01000200020012200200_shape_set_4_T.jpeg,7_flower_single__01000200020012200200_shape_set_4_T1_paired_difference.jpeg,1,3.418
3646738,6,8,1,8_grid_single__0100000000001111_shape_set_17_T.jpeg,8_grid_single__0100000000001111_shape_set_17_T1_minimal_difference.jpeg,1,7.54
3646738,7,9,1,9_flower_single__10020000020001000200_shape_set_20_T.jpeg,9_flower_single__10020000020001000200_shape_set_20_T1_paired_difference.jpeg,1,4.339
3646738,8,1,2,1_single__101010001010_shape_set_4_T.jpeg,1_single__101010001010_shape_set_4_T1_minimal_difference.jpeg,1,3.124
3646738,9,6,2,6_single__121210101222_shape_set_20_T.jpeg,6_single__121210101222_shape_set_20_T1_minimal_difference.jpeg,1,15.171
3646738,10,19,2,19_single__101112201212_shape_set_4_T.jpeg,19_single__101112201212_shape_set_4_T1_paired_difference.jpeg,1,8.925
3646738,11,20,2,20_double__1221010010220000_shape_set_17_T.jpeg,20_double__1221010010220000_shape_set_17_T1_paired_difference.jpeg,1,9.588
3646738,12,22,2,22_single__112212211220_shape_set_4_T.jpeg,22_single__112212211220_shape_set_4_T3_minimal_difference.jpeg,0,4.057
3646738,13,25,2,25_clockwork3_single__112110110000_shape_set_4_T.jpeg,25_clockwork3_single__112110110000_shape_set_4_T1_paired_difference.jpeg,1,13.35
3646738,14,28,2,28_flower_double__0000122201000100000011220000020001000100_shape_set_4_T.jpeg,28_flower_double__0000122201000100000011220000020001000100_shape_set_4_T1_paired_difference.jpeg,1,10.859
3646738,15,39,2,39_flower_double__0100010001000000122001000000010012120200_shape_set_20_T.jpeg,39_flower_double__0100010001000000122001000000010012120200_shape_set_20_T1_paired_difference.jpeg,1,27.639
3646738,16,10,3,10_triple__000012221120010002000000_shape_set_4_T.jpeg,10_triple__000012221120010002000000_shape_set_4_T1_paired_difference.jpeg,1,23.498
3646738,17,11,3,11_grid_single__1220111101001121_shape_set_17_T.jpeg,11_grid_single__1220111101001121_shape_set_17_T1_paired_difference.jpeg,1,14.401
3646738,18,13,3,13_flower_single__01001221122102001122_shape_set_4_T.jpeg,13_flower_single__01001221122102001122_shape_set_4_T4_minimal_difference.jpeg,0,29.382
3646738,19,15,3,15_double__0000110211121011_shape_set_20_T.jpeg,15_double__0000110211121011_shape_set_20_T1_paired_difference.jpeg,1,25.499
3657502,1,2,1,2_double__0000020001001020_shape_set_17_T.jpeg,2_double__0000020001001020_shape_set_17_T1_minimal_difference.jpeg,1,2.515
3657502,2,3,1,3_clockwork3_single__000011010200_shape_set_20_T.jpeg,3_clockwork3_single__000011010200_shape_set_20_T1_minimal_difference.jpeg,1,2.117
3657502,3,4,1,4_flower_single__02001220000001000200_shape_set_4_T.jpeg,4_flower_single__02001220000001000200_shape_set_4_T1_minimal_difference.jpeg,1,3.452
3657502,4,5,1,5_grid_single__0000000010200000_shape_set_17_T.jpeg,5_grid_single__0000000010200000_shape_set_17_T1_minimal_difference.jpeg,1,2.08
3657502,5,7,1,7_flower_single__01000200020012200200_shape_set_4_T.jpeg,7_flower_single__01000200020012200200_shape_set_4_T1_minimal_difference.jpeg,1,4.745
3657502,6,8,1,8_grid_single__0100000000001111_shape_set_17_T.jpeg,8_grid_single__0100000000001111_shape_set_17_T1_paired_difference.jpeg,1,7.517
3657502,7,9,1,9_flower_single__10020000020001000200_shape_set_20_T.jpeg,9_flower_single__10020000020001000200_shape_set_20_T1_paired_difference.jpeg,1,5.758
3657502,8,1,2,1_single__101010001010_shape_set_4_T.jpeg,1_single__101010001010_shape_set_4_T1_paired_difference.jpeg,1,1.448
3657502,9,6,2,6_single__121210101222_shape_set_20_T.jpeg,6_single__121210101222_shape_set_20_T1_paired_difference.jpeg,1,10.868
3657502,10,19,2,19_single__101112201212_shape_set_4_T.jpeg,19_single__101112201212_shape_set_4_T1_paired_difference.jpeg,1,14.741
3657502,11,20,2,20_double__1221010010220000_shape_set_17_T.jpeg,20_double__1221010010220000_shape_set_17_T1_minimal_difference.jpeg,1,10.091
3657502,12,22,2,22_single__112212211220_shape_set_4_T.jpeg,22_single__112212211220_shape_set_4_T1_minimal_difference.jpeg,1,9.536
3657502,13,25,2,25_clockwork3_single__112110110000_shape_set_4_T.jpeg,25_clockwork3_single__112110110000_shape_set_4_T1_minimal_difference.jpeg,1,14.0
3657502,14,28,2,28_flower_double__0000122201000100000011220000020001000100_shape_set_4_T.jpeg,28_flower_double__0000122201000100000011220000020001000100_shape_set_4_T4_paired_difference.jpeg,0,15.684
3657502,15,39,2,39_flower_double__0100010001000000122001000000010012120200_shape_set_20_T.jpeg,39_flower_double__0100010001000000122001000000010012120200_shape_set_20_T2_paired_difference.jpeg,0,27.74
3657502,16,10,3,10_triple__000012221120010002000000_shape_set_4_T.jpeg,10_triple__000012221120010002000000_shape_set_4_T1_minimal_difference.jpeg,1,16.674
3657502,17,11,3,11_grid_single__1220111101001121_shape_set_17_T.jpeg,11_grid_single__1220111101001121_shape_set_17_T1_paired_difference.jpeg,1,15.601
3657502,18,13,3,13_flower_single__01001221122102001122_shape_set_4_T.jpeg,13_flower_single__01001221122102001122_shape_set_4_T2_paired_difference.jpeg,0,25.859
3657502,19,15,3,15_double__0000110211121011_shape_set_20_T.jpeg,15_double__0000110211121011_shape_set_20_T1_paired_difference.jpeg,1,17.539
3657502,20,18,3,18_flower_double__1022102200000100010000000200122101000000_shape_set_20_T.jpeg,18_flower_double__1022102200000100010000000200122101000000_shape_set_20_T3_paired_difference.jpeg,0,25.982
3658679,1,2,1,2_double__0000020001001020_shape_set_17_T.jpeg,2_double__0000020001001020_shape_set_17_T1_minimal_difference.jpeg,1,3.456
3658679,2,3,1,3_clockwork3_single__000011010200_shape_set_20_T.jpeg,3_clockwork3_single__000011010200_shape_set_20_T1_paired_difference.jpeg,1,1.518
3658679,3,4,1,4_flower_single__02001220000001000200_shape_set_4_T.jpeg,4_flower_single__02001220000001000200_shape_set_4_T1_minimal_difference.jpeg,1,3.242
3658679,4,5,1,5_grid_single__0000000010200000_shape_set_17_T.jpeg,5_grid_single__0000000010200000_shape_set_17_T1_paired_difference.jpeg,1,1.784
3658679,5,7,1,7_flower_single__01000200020012200200_shape_set_4_T.jpeg,7_flower_single__01000200020012200200_shape_set_4_T1_paired_difference.jpeg,1,3.01
3658679,6,8,1,8_grid_single__0100000000001111_shape_set_17_T.jpeg,8_grid_single__0100000000001111_shape_set_17_T1_paired_difference.jpeg,1,6.722
3658679,7,9,1,9_flower_single__10020000020001000200_shape_set_20_T.jpeg,9_flower_single__10020000020001000200_shape_set_20_T3_minimal_difference.jpeg,0,4.806
3658679,8,1,2,1_single__101010001010_shape_set_4_T.jpeg,1_single__101010001010_shape_set_4_T1_paired_difference.jpeg,1,2.102
3658679,9,6,2,6_single__121210101222_shape_set_20_T.jpeg,6_single__121210101222_shape_set_20_T2_paired_difference.jpeg,0,5.938
3658679,10,19,2,19_single__101112201212_shape_set_4_T.jpeg,19_single__101112201212_shape_set_4_T4_paired_difference.jpeg,0,7.436
3658679,11,20,2,20_double__1221010010220000_shape_set_17_T.jpeg,20_double__1221010010220000_shape_set_17_T2_paired_difference.jpeg,0,8.108
3658679,12,22,2,22_single__112212211220_shape_set_4_T.jpeg,22_single__112212211220_shape_set_4_T2_paired_difference.jpeg,0,10.345
3658679,13,25,2,25_clockwork3_single__112110110000_shape_set_4_T.jpeg,25_clockwork3_single__112110110000_shape_set_4_T2_minimal_difference.jpeg,0,12.466
3658679,14,28,2,28_flower_double__0000122201000100000011220000020001000100_shape_set_4_T.jpeg,28_flower_double__0000122201000100000011220000020001000100_shape_set_4_T3_paired_difference.jpeg,0,6.369
3658679,15,39,2,39_flower_double__0100010001000000122001000000010012120200_shape_set_20_T.jpeg,39_flower_double__0100010001000000122001000000010012120200_shape_set_20_T4_paired_difference.jpeg,0,6.434
3658679,16,10,3,10_triple__000012221120010002000000_shape_set_4_T.jpeg,10_triple__000012221120010002000000_shape_set_4_T1_minimal_difference.jpeg,1,10.738
3658679,17,11,3,11_grid_single__1220111101001121_shape_set_17_T.jpeg,11_grid_single__1220111101001121_shape_set_17_T3_minimal_difference.jpeg,0,11.169
3658679,18,13,3,13_flower_single__01001221122102001122_shape_set_4_T.jpeg,13_flower_single__01001221122102001122_shape_set_4_T3_paired_difference.jpeg,0,8.967
3658679,19,15,3,15_double__0000110211121011_shape_set_20_T.jpeg,15_double__0000110211121011_shape_set_20_T1_minimal_difference.jpeg,1,7.842
3658679,20,18,3,18_flower_double__1022102200000100010000000200122101000000_shape_set_20_T.jpeg,18_flower_double__1022102200000100010000000200122101000000_shape_set_20_T3_minimal_difference.jpeg,0,13.021
3658679,21,27,3,27_double__1020020012121122_shape_set_20_T.jpeg,27_double__1020020012121122_shape_set_20_T1_minimal_difference.jpeg,1,8.656
3658679,22,31,3,31_flower_double__0200010011120100020012110000000002001102_shape_set_4_T.jpeg,31_flower_double__0200010011120100020012110000000002001102_shape_set_4_T4_minimal_difference.jpeg,0,4.109
3658679,23,12,4,12_double__1212102211111221_shape_set_20_T.jpeg,12_double__1212102211111221_shape_set_20_T1_paired_difference.jpeg,1,14.192
3658679,24,16,4,16_grid_single__1012121112021101_shape_set_4_T.jpeg,16_grid_single__1012121112021101_shape_set_4_T1_paired_difference.jpeg,1,9.786
3658679,25,17,4,17_double__1222110111201012_shape_set_17_T.jpeg,17_double__1222110111201012_shape_set_17_T1_paired_difference.jpeg,1,8.498
3658679,26,23,4,23_grid_single__1110120212111121_shape_set_17_T.jpeg,23_grid_single__1110120212111121_shape_set_17_T1_paired_difference.jpeg,1,5.392
3658679,27,40,4,40_grid_double__02000000010011100200020010211111_shape_set_4_T.jpeg,40_grid_double__02000000010011100200020010211111_shape_set_4_T1_paired_difference.jpeg,1,9.728
3658679,28,42,4,42_double__1111101211021120_shape_set_20_T.jpeg,42_double__1111101211021120_shape_set_20_T2_minimal_difference.jpeg,0,9.331
3658679,29,14,5,14_triple__112110100000000010021222_shape_set_17_T.jpeg,14_triple__112110100000000010021222_shape_set_17_T4_paired_difference.jpeg,0,8.708
3661344,3,4,1,4_flower_single__02001220000001000200_shape_set_4_T.jpeg,4_flower_single__02001220000001000200_shape_set_4_T3_minimal_difference.jpeg,0,16.776
3661344,4,5,1,5_grid_single__0000000010200000_shape_set_17_T.jpeg,5_grid_single__0000000010200000_shape_set_17_T1_paired_difference.jpeg,1,2.666
3661344,5,7,1,7_flower_single__01000200020012200200_shape_set_4_T.jpeg,7_flower_single__01000200020012200200_shape_set_4_T1_minimal_difference.jpeg,1,2.673
3661344,6,8,1,8_grid_single__0100000000001111_shape_set_17_T.jpeg,8_grid_single__0100000000001111_shape_set_17_T1_minimal_difference.jpeg,1,2.56
3661344,7,9,1,9_flower_single__10020000020001000200_shape_set_20_T.jpeg,9_flower_single__10020000020001000200_shape_set_20_T1_paired_difference.jpeg,1,3.735
3661344,8,1,2,1_single__101010001010_shape_set_4_T.jpeg,1_single__101010001010_shape_set_4_T1_paired_difference.jpeg,1,1.839
3661344,9,6,2,6_single__121210101222_shape_set_20_T.jpeg,6_single__121210101222_shape_set_20_T2_paired_difference.jpeg,0,6.241
3661344,10,19,2,19_single__101112201212_shape_set_4_T.jpeg,19_single__101112201212_shape_set_4_T1_minimal_difference.jpeg,1,3.982
3661344,11,20,2,20_double__1221010010220000_shape_set_17_T.jpeg,20_double__1221010010220000_shape_set_17_T1_minimal_difference.jpeg,1,6.895
3661344,12,22,2,22_single__112212211220_shape_set_4_T.jpeg,22_single__112212211220_shape_set_4_T3_minimal_difference.jpeg,0,2.796
3661344,13,25,2,25_clockwork3_single__112110110000_shape_set_4_T.jpeg,25_clockwork3_single__112110110000_shape_set_4_T3_paired_difference.jpeg,0,6.254
3661344,14,28,2,28_flower_double__0000122201000100000011220000020001000100_shape_set_4_T.jpeg,28_flower_double__0000122201000100000011220000020001000100_shape_set_4_T3_paired_difference.jpeg,0,7.427
3661344,15,39,2,39_flower_double__0100010001000000122001000000010012120200_shape_set_20_T.jpeg,39_flower_double__0100010001000000122001000000010012120200_shape_set_20_T2_minimal_difference.jpeg,0,10.829
3661344,16,10,3,10_triple__000012221120010002000000_shape_set_4_T.jpeg,10_triple__000012221120010002000000_shape_set_4_T1_paired_difference.jpeg,1,13.114
3661344,17,11,3,11_grid_single__1220111101001121_shape_set_17_T.jpeg,11_grid_single__1220111101001121_shape_set_17_T4_paired_difference.jpeg,0,6.357
3661344,18,13,3,13_flower_single__01001221122102001122_shape_set_4_T.jpeg,13_flower_single__01001221122102001122_shape_set_4_T2_minimal_difference.jpeg,0,10.932
3661344,19,15,3,15_double__0000110211121011_shape_set_20_T.jpeg,15_double__0000110211121011_shape_set_20_T4_minimal_difference.jpeg,0,10.606
3661344,20,18,3,18_flower_double__1022102200000100010000000200122101000000_shape_set_20_T.jpeg,18_flower_double__1022102200000100010000000200122101000000_shape_set_20_T3_minimal_difference.jpeg,0,10.462
3661344,21,27,3,27_double__1020020012121122_shape_set_20_T.jpeg,27_double__1020020012121122_shape_set_20_T1_minimal_difference.jpeg,1,10.043
3661344,22,31,3,31_flower_double__0200010011120100020012110000000002001102_shape_set_4_T.jpeg,31_flower_double__0200010011120100020012110000000002001102_shape_set_4_T2_paired_difference.jpeg,0,9.508
3661344,23,12,4,12_double__1212102211111221_shape_set_20_T.jpeg,12_double__1212102211111221_shape_set_20_T3_paired_difference.jpeg,0,3.674
3661344,24,16,4,16_grid_single__1012121112021101_shape_set_4_T.jpeg,16_grid_single__1012121112021101_shape_set_4_T1_minimal_difference.jpeg,1,10.213
3669111,1,2,1,2_double__0000020001001020_shape_set_17_T.jpeg,2_double__0000020001001020_shape_set_17_T1_minimal_difference.jpeg,1,2.596
3669111,2,3,1,3_clockwork3_single__000011010200_shape_set_20_T.jpeg,3_clockwork3_single__000011010200_shape_set_20_T1_minimal_difference.jpeg,1,2.212
3669111,3,4,1,4_flower_single__02001220000001000200_shape_set_4_T.jpeg,4_flower_single__02001220000001000200_shape_set_4_T1_paired_difference.jpeg,1,4.99
3669111,4,5,1,5_grid_single__0000000010200000_shape_set_17_T.jpeg,5_grid_single__0000000010200000_shape_set_17_T1_minimal_difference.jpeg,1,1.731
3669111,5,7,1,7_flower_single__01000200020012200200_shape_set_4_T.jpeg,7_flower_single__01000200020012200200_shape_set_4_T1_paired_difference.jpeg,1,3.353
3669111,6,8,1,8_grid_single__0100000000001111_shape_set_17_T.jpeg,8_grid_single__0100000000001111_shape_set_17_T1_paired_difference.jpeg,1,2.802
3669111,7,9,1,9_flower_single__10020000020001000200_shape_set_20_T.jpeg,9_flower_single__10020000020001000200_shape_set_20_T1_paired_difference.jpeg,1,5.938
3669111,8,1,2,1_single__101010001010_shape_set_4_T.jpeg,1_single__101010001010_shape_set_4_T1_minimal_difference.jpeg,1,2.467
3669111,9,6,2,6_single__121210101222_shape_set_20_T.jpeg,6_single__121210101222_shape_set_20_T1_paired_difference.jpeg,1,7.61
3669111,10,19,2,19_single__101112201212_shape_set_4_T.jpeg,19_single__101112201212_shape_set_4_T4_minimal_difference.jpeg,0,5.313
3669111,11,20,2,20_double__1221010010220000_shape_set_17_T.jpeg,20_double__1221010010220000_shape_set_17_T1_minimal_difference.jpeg,1,10.229
3669111,12,22,2,22_single__112212211220_shape_set_4_T.jpeg,22_single__112212211220_shape_set_4_T1_paired_difference.jpeg,1,3.766
3669111,13,25,2,25_clockwork3_single__112110110000_shape_set_4_T.jpeg,25_clockwork3_single__112110110000_shape_set_4_T2_minimal_difference.jpeg,0,2.933
3669111,14,28,2,28_flower_double__0000122201000100000011220000020001000100_shape_set_4_T.jpeg,28_flower_double__0000122201000100000011220000020001000100_shape_set_4_T1_minimal_difference.jpeg,1,10.386
3669111,15,39,2,39_flower_double__0100010001000000122001000000010012120200_shape_set_20_T.jpeg,39_flower_double__0100010001000000122001000000010012120200_shape_set_20_T4_minimal_difference.jpeg,0,11.023
3669111,16,10,3,10_triple__000012221120010002000000_shape_set_4_T.jpeg,10_triple__000012221120010002000000_shape_set_4_T3_paired_difference.jpeg,0,8.03
3669111,17,11,3,11_grid_single__1220111101001121_shape_set_17_T.jpeg,11_grid_single__1220111101001121_shape_set_17_T2_minimal_difference.jpeg,0,7.427
3669111,18,13,3,13_flower_single__01001221122102001122_shape_set_4_T.jpeg,13_flower_single__01001221122102001122_shape_set_4_T2_minimal_difference.jpeg,0,6.009
3669111,19,15,3,15_double__0000110211121011_shape_set_20_T.jpeg,15_double__0000110211121011_shape_set_20_T1_minimal_difference.jpeg,1,12.683
3669111,20,18,3,18_flower_double__1022102200000100010000000200122101000000_shape_set_20_T.jpeg,18_flower_double__1022102200000100010000000200122101000000_shape_set_20_T1_minimal_difference.jpeg,1,7.034
3669111,21,27,3,27_double__1020020012121122_shape_set_20_T.jpeg,27_double__1020020012121122_shape_set_20_T1_minimal_difference.jpeg,1,11.883
3669111,22,31,3,31_flower_double__0200010011120100020012110000000002001102_shape_set_4_T.jpeg,31_flower_double__0200010011120100020012110000000002001102_shape_set_4_T2_minimal_difference.jpeg,0,13.748
3669111,23,12,4,12_double__1212102211111221_shape_set_20_T.jpeg,12_double__1212102211111221_shape_set_20_T3_minimal_difference.jpeg,0,10.398
3669111,24,16,4,16_grid_single__1012121112021101_shape_set_4_T.jpeg,16_grid_single__1012121112021101_shape_set_4_T1_paired_difference.jpeg,1,5.849
3669111,25,17,4,17_double__1222110111201012_shape_set_17_T.jpeg,17_double__1222110111201012_shape_set_17_T1_paired_difference.jpeg,1,7.866
3669111,26,23,4,23_grid_single__1110120212111121_shape_set_17_T.jpeg,23_grid_single__1110120212111121_shape_set_17_T1_minimal_difference.jpeg,1,4.265
3669111,27,40,4,40_grid_double__02000000010011100200020010211111_shape_set_4_T.jpeg,40_grid_double__02000000010011100200020010211111_shape_set_4_T4_minimal_difference.jpeg,0,7.16
3669111,28,42,4,42_double__1111101211021120_shape_set_20_T.jpeg,42_double__1111101211021120_shape_set_20_T3_minimal_difference.jpeg,0,5.503
3669111,29,14,5,14_triple__112110100000000010021222_shape_set_17_T.jpeg,14_triple__112110100000000010021222_shape_set_17_T1_minimal_difference.jpeg,1,9.246
3669111,30,26,5,26_grid_triple__000000000000112102000100020000000200000011221121_shape_set_17_T.jpeg,26_grid_triple__000000000000112102000100020000000200000011221121_shape_set_17_T4_paired_difference.jpeg,0,6.756
3669111,31,52,5,52_flower_single__12121202111010011122_shape_set_4_T.jpeg,52_flower_single__12121202111010011122_shape_set_4_T1_paired_difference.jpeg,1,5.458
3677452,1,2,1,2_double__0000020001001020_shape_set_17_T.jpeg,2_double__0000020001001020_shape_set_17_T1_minimal_difference.jpeg,1,8.75
3677452,2,3,1,3_clockwork3_single__000011010200_shape_set_20_T.jpeg,3_clockwork3_single__000011010200_shape_set_20_T1_paired_difference.jpeg,1,19.709
3677452,3,4,1,4_flower_single__02001220000001000200_shape_set_4_T.jpeg,4_flower_single__02001220000001000200_shape_set_4_T1_minimal_difference.jpeg,1,22.679
3677452,4,5,1,5_grid_single__0000000010200000_shape_set_17_T.jpeg,5_grid_single__0000000010200000_shape_set_17_T1_paired_difference.jpeg,1,21.961
3677452,5,7,1,7_flower_single__01000200020012200200_shape_set_4_T.jpeg,7_flower_single__01000200020012200200_shape_set_4_T1_paired_difference.jpeg,1,22.276
3677452,6,8,1,8_grid_single__0100000000001111_shape_set_17_T.jpeg,8_grid_single__0100000000001111_shape_set_17_T1_minimal_difference.jpeg,1,22.232
3677452,7,9,1,9_flower_single__10020000020001000200_shape_set_20_T.jpeg,9_flower_single__10020000020001000200_shape_set_20_T1_minimal_difference.jpeg,1,25.147
3677452,8,1,2,1_single__101010001010_shape_set_4_T.jpeg,1_single__101010001010_shape_set_4_T1_minimal_difference.jpeg,1,25.031
3677452,9,6,2,6_single__121210101222_shape_set_20_T.jpeg,6_single__121210101222_shape_set_20_T3_minimal_difference.jpeg,0,27.418
3677452,10,19,2,19_single__101112201212_shape_set_4_T.jpeg,19_single__101112201212_shape_set_4_T3_minimal_difference.jpeg,0,26.218
3677452,11,20,2,20_double__1221010010220000_shape_set_17_T.jpeg,20_double__1221010010220000_shape_set_17_T1_minimal_difference.jpeg,1,28.435
3677764,1,2,1,2_double__0000020001001020_shape_set_17_T.jpeg,2_double__0000020001001020_shape_set_17_T1_minimal_difference.jpeg,1,6.6
3677764,2,3,1,3_clockwork3_single__000011010200_shape_set_20_T.jpeg,3_clockwork3_single__000011010200_shape_set_20_T3_minimal_difference.jpeg,0,5.992
3677764,3,4,1,4_flower_single__02001220000001000200_shape_set_4_T.jpeg,4_flower_single__02001220000001000200_shape_set_4_T4_minimal_difference.jpeg,0,16.483
3677764,4,5,1,5_grid_single__0000000010200000_shape_set_17_T.jpeg,5_grid_single__0000000010200000_shape_set_17_T1_paired_difference.jpeg,1,4.936
3677764,5,7,1,7_flower_single__01000200020012200200_shape_set_4_T.jpeg,7_flower_single__01000200020012200200_shape_set_4_T1_minimal_difference.jpeg,1,6.81
3677764,6,8,1,8_grid_single__0100000000001111_shape_set_17_T.jpeg,8_grid_single__0100000000001111_shape_set_17_T1_paired_difference.jpeg,1,7.226
3677764,7,9,1,9_flower_single__10020000020001000200_shape_set_20_T.jpeg,9_flower_single__10020000020001000200_shape_set_20_T1_paired_difference.jpeg,1,12.153
3677764,8,1,2,1_single__101010001010_shape_set_4_T.jpeg,1_single__101010001010_shape_set_4_T1_paired_difference.jpeg,1,1.787
3677764,9,6,2,6_single__121210101222_shape_set_20_T.jpeg,6_single__121210101222_shape_set_20_T4_minimal_difference.jpeg,0,18.01
3677764,10,19,2,19_single__101112201212_shape_set_4_T.jpeg,19_single__101112201212_shape_set_4_T4_minimal_difference.jpeg,0,9.857
3677764,11,20,2,20_double__1221010010220000_shape_set_17_T.jpeg,20_double__1221010010220000_shape_set_17_T4_minimal_difference.jpeg,0,13.488
3677764,12,22,2,22_single__112212211220_shape_set_4_T.jpeg,22_single__112212211220_shape_set_4_T1_paired_difference.jpeg,1,10.273
3677764,13,25,2,25_clockwork3_single__112110110000_shape_set_4_T.jpeg,25_clockwork3_single__112110110000_shape_set_4_T2_minimal_difference.jpeg,0,9.657
3677764,14,28,2,28_flower_double__0000122201000100000011220000020001000100_shape_set_4_T.jpeg,28_flower_double__0000122201000100000011220000020001000100_shape_set_4_T4_paired_difference.jpeg,0,23.087
3677764,15,39,2,39_flower_double__0100010001000000122001000000010012120200_shape_set_20_T.jpeg,39_flower_double__0100010001000000122001000000010012120200_shape_set_20_T1_minimal_difference.jpeg,1,21.595
3677764,16,10,3,10_triple__000012221120010002000000_shape_set_4_T.jpeg,10_triple__000012221120010002000000_shape_set_4_T1_paired_difference.jpeg,1,25.82
3677764,17,11,3,11_grid_single__1220111101001121_shape_set_17_T.jpeg,11_grid_single__1220111101001121_shape_set_17_T1_paired_difference.jpeg,1,23.307
3677764,18,13,3,13_flower_single__01001221122102001122_shape_set_4_T.jpeg,13_flower_single__01001221122102001122_shape_set_4_T2_minimal_difference.jpeg,0,24.733
3690298,1,2,1,2_double__0000020001001020_shape_set_17_T.jpeg,2_double__0000020001001020_shape_set_17_T1_paired_difference.jpeg,1,4.153
3690298,2,3,1,3_clockwork3_single__000011010200_shape_set_20_T.jpeg,3_clockwork3_single__000011010200_shape_set_20_T1_paired_difference.jpeg,1,1.534
3690298,3,4,1,4_flower_single__02001220000001000200_shape_set_4_T.jpeg,4_flower_single__02001220000001000200_shape_set_4_T1_minimal_difference.jpeg,1,3.214
3690298,4,5,1,5_grid_single__0000000010200000_shape_set_17_T.jpeg,5_grid_single__0000000010200000_shape_set_17_T1_paired_difference.jpeg,1,2.442
3690298,5,7,1,7_flower_single__01000200020012200200_shape_set_4_T.jpeg,7_flower_single__01000200020012200200_shape_set_4_T1_paired_difference.jpeg,1,2.6
3690298,6,8,1,8_grid_single__0100000000001111_shape_set_17_T.jpeg,8_grid_single__0100000000001111_shape_set_17_T1_minimal_difference.jpeg,1,5.258
3690298,7,9,1,9_flower_single__10020000020001000200_shape_set_20_T.jpeg,9_flower_single__10020000020001000200_shape_set_20_T1_paired_difference.jpeg,1,3.978
3690298,8,1,2,1_single__101010001010_shape_set_4_T.jpeg,1_single__101010001010_shape_set_4_T1_minimal_difference.jpeg,1,1.596
3690298,9,6,2,6_single__121210101222_shape_set_20_T.jpeg,6_single__121210101222_shape_set_20_T1_paired_difference.jpeg,1,7.548
3690298,10,19,2,19_single__101112201212_shape_set_4_T.jpeg,19_single__101112201212_shape_set_4_T4_minimal_difference.jpeg,0,3.884
3690298,11,20,2,20_double__1221010010220000_shape_set_17_T.jpeg,20_double__1221010010220000_shape_set_17_T1_paired_difference.jpeg,1,11.156
3690298,12,22,2,22_single__112212211220_shape_set_4_T.jpeg,22_single__112212211220_shape_set_4_T1_paired_difference.jpeg,1,4.807
3690298,13,25,2,25_clockwork3_single__112110110000_shape_set_4_T.jpeg,25_clockwork3_single__112110110000_shape_set_4_T1_paired_difference.jpeg,1,4.191
3690298,14,28,2,28_flower_double__0000122201000100000011220000020001000100_shape_set_4_T.jpeg,28_flower_double__0000122201000100000011220000020001000100_shape_set_4_T1_paired_difference.jpeg,1,5.439
3690298,15,39,2,39_flower_double__0100010001000000122001000000010012120200_shape_set_20_T.jpeg,39_flower_double__0100010001000000122001000000010012120200_shape_set_20_T2_paired_difference.jpeg,0,13.226
3690298,16,10,3,10_triple__000012221120010002000000_shape_set_4_T.jpeg,10_triple__000012221120010002000000_shape_set_4_T1_paired_difference.jpeg,1,7.531
3690298,17,11,3,11_grid_single__1220111101001121_shape_set_17_T.jpeg,11_grid_single__1220111101001121_shape_set_17_T1_minimal_difference.jpeg,1,10.44
3690298,18,13,3,13_flower_single__01001221122102001122_shape_set_4_T.jpeg,13_flower_single__01001221122102001122_shape_set_4_T1_paired_difference.jpeg,1,10.784
3690298,19,15,3,15_double__0000110211121011_shape_set_20_T.jpeg,15_double__0000110211121011_shape_set_20_T1_paired_difference.jpeg,1,13.826
3690298,20,18,3,18_flower_double__1022102200000100010000000200122101000000_shape_set_20_T.jpeg,18_flower_double__1022102200000100010000000200122101000000_shape_set_20_T1_paired_difference.jpeg,1,10.947
3690298,21,27,3,27_double__1020020012121122_shape_set_20_T.jpeg,27_double__1020020012121122_shape_set_20_T2_paired_difference.jpeg,0,17.536
3690298,22,31,3,31_flower_double__0200010011120100020012110000000002001102_shape_set_4_T.jpeg,31_flower_double__0200010011120100020012110000000002001102_shape_set_4_T1_minimal_difference.jpeg,1,15.409
3690298,23,12,4,12_double__1212102211111221_shape_set_20_T.jpeg,12_double__1212102211111221_shape_set_20_T4_minimal_difference.jpeg,0,13.182
3690298,24,16,4,16_grid_single__1012121112021101_shape_set_4_T.jpeg,16_grid_single__1012121112021101_shape_set_4_T1_minimal_difference.jpeg,1,8.46
3690298,25,17,4,17_double__1222110111201012_shape_set_17_T.jpeg,17_double__1222110111201012_shape_set_17_T1_paired_difference.jpeg,1,11.43
3690298,26,23,4,23_grid_single__1110120212111121_shape_set_17_T.jpeg,23_grid_single__1110120212111121_shape_set_17_T1_minimal_difference.jpeg,1,8.618
3690298,27,40,4,40_grid_double__02000000010011100200020010211111_shape_set_4_T.jpeg,40_grid_double__02000000010011100200020010211111_shape_set_4_T1_minimal_difference.jpeg,1,10.517
3695633,1,2,1,2_double__0000020001001020_shape_set_17_T.jpeg,2_double__0000020001001020_shape_set_17_T1_minimal_difference.jpeg,1,2.744
3695633,2,3,1,3_clockwork3_single__000011010200_shape_set_20_T.jpeg,3_clockwork3_single__000011010200_shape_set_20_T1_paired_difference.jpeg,1,2.228
3695633,3,4,1,4_flower_single__02001220000001000200_shape_set_4_T.jpeg,4_flower_single__02001220000001000200_shape_set_4_T1_minimal_difference.jpeg,1,2.978
3695633,4,5,1,5_grid_single__0000000010200000_shape_set_17_T.jpeg,5_grid_single__0000000010200000_shape_set_17_T1_paired_difference.jpeg,1,3.84
3695633,5,7,1,7_flower_single__01000200020012200200_shape_set_4_T.jpeg,7_flower_single__01000200020012200200_shape_set_4_T1_paired_difference.jpeg,1,2.591
3695633,6,8,1,8_grid_single__0100000000001111_shape_set_17_T.jpeg,8_grid_single__0100000000001111_shape_set_17_T1_paired_difference.jpeg,1,4.813
3695633,7,9,1,9_flower_single__10020000020001000200_shape_set_20_T.jpeg,9_flower_single__10020000020001000200_shape_set_20_T1_paired_difference.jpeg,1,4.636
3695633,8,1,2,1_single__101010001010_shape_set_4_T.jpeg,1_single__101010001010_shape_set_4_T1_minimal_difference.jpeg,1,1.294
3695633,9,6,2,6_single__121210101222_shape_set_20_T.jpeg,6_single__121210101222_shape_set_20_T2_minimal_difference.jpeg,0,7.037
3695633,10,19,2,19_single__101112201212_shape_set_4_T.jpeg,19_single__101112201212_shape_set_4_T4_minimal_difference.jpeg,0,5.216
3695633,11,20,2,20_double__1221010010220000_shape_set_17_T.jpeg,20_double__1221010010220000_shape_set_17_T3_minimal_difference.jpeg,0,5.499
3695633,12,22,2,22_single__112212211220_shape_set_4_T.jpeg,22_single__112212211220_shape_set_4_T1_minimal_difference.jpeg,1,9.385
3695633,13,25,2,25_clockwork3_single__112110110000_shape_set_4_T.jpeg,25_clockwork3_single__112110110000_shape_set_4_T1_minimal_difference.jpeg,1,4.97
3695633,14,28,2,28_flower_double__0000122201000100000011220000020001000100_shape_set_4_T.jpeg,28_flower_double__0000122201000100000011220000020001000100_shape_set_4_T3_paired_difference.jpeg,0,2.741
3695633,15,39,2,39_flower_double__0100010001000000122001000000010012120200_shape_set_20_T.jpeg,39_flower_double__0100010001000000122001000000010012120200_shape_set_20_T1_paired_difference.jpeg,1,4.956
3695633,16,10,3,10_triple__000012221120010002000000_shape_set_4_T.jpeg,10_triple__000012221120010002000000_shape_set_4_T1_paired_difference.jpeg,1,25.865
3695633,17,11,3,11_grid_single__1220111101001121_shape_set_17_T.jpeg,11_grid_single__1220111101001121_shape_set_17_T1_paired_difference.jpeg,1,9.657
3695633,18,13,3,13_flower_single__01001221122102001122_shape_set_4_T.jpeg,13_flower_single__01001221122102001122_shape_set_4_T1_paired_difference.jpeg,1,10.087
3695633,19,15,3,15_double__0000110211121011_shape_set_20_T.jpeg,15_double__0000110211121011_shape_set_20_T1_paired_difference.jpeg,1,4.737
3695633,20,18,3,18_flower_double__1022102200000100010000000200122101000000_shape_set_20_T.jpeg,18_flower_double__1022102200000100010000000200122101000000_shape_set_20_T3_minimal_difference.jpeg,0,5.423
3695633,21,27,3,27_double__1020020012121122_shape_set_20_T.jpeg,27_double__1020020012121122_shape_set_20_T1_minimal_difference.jpeg,1,8.193
3695633,22,31,3,31_flower_double__0200010011120100020012110000000002001102_shape_set_4_T.jpeg,31_flower_double__0200010011120100020012110000000002001102_shape_set_4_T1_paired_difference.jpeg,1,10.91
3695633,23,12,4,12_double__1212102211111221_shape_set_20_T.jpeg,12_double__1212102211111221_shape_set_20_T1_minimal_difference.jpeg,1,10.069
3695633,24,16,4,16_grid_single__1012121112021101_shape_set_4_T.jpeg,16_grid_single__1012121112021101_shape_set_4_T2_minimal_difference.jpeg,0,4.612
3695633,25,17,4,17_double__1222110111201012_shape_set_17_T.jpeg,17_double__1222110111201012_shape_set_17_T1_minimal_difference.jpeg,1,15.903
3695633,26,23,4,23_grid_single__1110120212111121_shape_set_17_T.jpeg,23_grid_single__1110120212111121_shape_set_17_T1_minimal_difference.jpeg,1,11.66
3695633,27,40,4,40_grid_double__02000000010011100200020010211111_shape_set_4_T.jpeg,40_grid_double__02000000010011100200020010211111_shape_set_4_T1_paired_difference.jpeg,1,7.53
3695633,28,42,4,42_double__1111101211021120_shape_set_20_T.jpeg,42_double__1111101211021120_shape_set_20_T1_paired_difference.jpeg,1,6.206
3695633,29,14,5,14_triple__112110100000000010021222_shape_set_17_T.jpeg,14_triple__112110100000000010021222_shape_set_17_T1_minimal_difference.jpeg,1,6.876
3695633,30,26,5,26_grid_triple__000000000000112102000100020000000200000011221121_shape_set_17_T.jpeg,26_grid_triple__000000000000112102000100020000000200000011221121_shape_set_17_T1_minimal_difference.jpeg,1,8.231
3712936,1,2,1,2_double__0000020001001020_shape_set_17_T.jpeg,2_double__0000020001001020_shape_set_17_T1_paired_difference.jpeg,1,3.086
3712936,2,3,1,3_clockwork3_single__000011010200_shape_set_20_T.jpeg,3_clockwork3_single__000011010200_shape_set_20_T1_minimal_difference.jpeg,1,3.627
3712936,3,4,1,4_flower_single__02001220000001000200_shape_set_4_T.jpeg,4_flower_single__02001220000001000200_shape_set_4_T1_minimal_difference.jpeg,1,3.158
3712936,4,5,1,5_grid_single__0000000010200000_shape_set_17_T.jpeg,5_grid_single__0000000010200000_shape_set_17_T1_paired_difference.jpeg,1,2.803
3712936,5,7,1,7_flower_single__01000200020012200200_shape_set_4_T.jpeg,7_flower_single__01000200020012200200_shape_set_4_T1_minimal_difference.jpeg,1,2.682
3712936,6,8,1,8_grid_single__0100000000001111_shape_set_17_T.jpeg,8_grid_single__0100000000001111_shape_set_17_T1_minimal_difference.jpeg,1,4.221
3712936,7,9,1,9_flower_single__10020000020001000200_shape_set_20_T.jpeg,9_flower_single__10020000020001000200_shape_set_20_T1_minimal_difference.jpeg,1,4.228
3712936,8,1,2,1_single__101010001010_shape_set_4_T.jpeg,1_single__101010001010_shape_set_4_T1_minimal_difference.jpeg,1,2.86
3712936,9,6,2,6_single__121210101222_shape_set_20_T.jpeg,6_single__121210101222_shape_set_20_T1_paired_difference.jpeg,1,4.893
3712936,10,19,2,19_single__101112201212_shape_set_4_T.jpeg,19_single__101112201212_shape_set_4_T1_paired_difference.jpeg,1,4.695
3712936,11,20,2,20_double__1221010010220000_shape_set_17_T.jpeg,20_double__1221010010220000_shape_set_17_T3_minimal_difference.jpeg,0,10.735
3712936,12,22,2,22_single__112212211220_shape_set_4_T.jpeg,22_single__112212211220_shape_set_4_T1_minimal_difference.jpeg,1,10.627
3712936,13,25,2,25_clockwork3_single__112110110000_shape_set_4_T.jpeg,25_clockwork3_single__112110110000_shape_set_4_T3_paired_difference.jpeg,0,10.513
3712936,14,28,2,28_flower_double__0000122201000100000011220000020001000100_shape_set_4_T.jpeg,28_flower_double__0000122201000100000011220000020001000100_shape_set_4_T2_minimal_difference.jpeg,0,6.116
3712936,15,39,2,39_flower_double__0100010001000000122001000000010012120200_shape_set_20_T.jpeg,39_flower_double__0100010001000000122001000000010012120200_shape_set_20_T4_minimal_difference.jpeg,0,4.288
3712936,16,10,3,10_triple__000012221120010002000000_shape_set_4_T.jpeg,10_triple__000012221120010002000000_shape_set_4_T2_minimal_difference.jpeg,0,10.06
3712936,17,11,3,11_grid_single__1220111101001121_shape_set_17_T.jpeg,11_grid_single__1220111101001121_shape_set_17_T1_paired_difference.jpeg,1,13.494
3712936,18,13,3,13_flower_single__01001221122102001122_shape_set_4_T.jpeg,13_flower_single__01001221122102001122_shape_set_4_T3_minimal_difference.jpeg,0,6.768
3712936,19,15,3,15_double__0000110211121011_shape_set_20_T.jpeg,15_double__0000110211121011_shape_set_20_T1_paired_difference.jpeg,1,17.769
3712936,20,18,3,18_flower_double__1022102200000100010000000200122101000000_shape_set_20_T.jpeg,18_flower_double__1022102200000100010000000200122101000000_shape_set_20_T2_minimal_difference.jpeg,0,7.681
3712936,21,27,3,27_double__1020020012121122_shape_set_20_T.jpeg,27_double__1020020012121122_shape_set_20_T3_minimal_difference.jpeg,0,9.19
3712936,22,31,3,31_flower_double__0200010011120100020012110000000002001102_shape_set_4_T.jpeg,31_flower_double__0200010011120100020012110000000002001102_shape_set_4_T1_minimal_difference.jpeg,1,6.919
3712936,23,12,4,12_double__1212102211111221_shape_set_20_T.jpeg,12_double__1212102211111221_shape_set_20_T2_paired_difference.jpeg,0,10.06
3712936,24,16,4,16_grid_single__1012121112021101_shape_set_4_T.jpeg,16_grid_single__1012121112021101_shape_set_4_T1_paired_difference.jpeg,1,12.634
3712936,25,17,4,17_double__1222110111201012_shape_set_17_T.jpeg,17_double__1222110111201012_shape_set_17_T1_paired_difference.jpeg,1,10.737
3712936,26,23,4,23_grid_single__1110120212111121_shape_set_17_T.jpeg,23_grid_single__1110120212111121_shape_set_17_T1_minimal_difference.jpeg,1,11.321
3712936,27,40,4,40_grid_double__02000000010011100200020010211111_shape_set_4_T.jpeg,40_grid_double__02000000010011100200020010211111_shape_set_4_T3_paired_difference.jpeg,0,9.519
3712936,28,42,4,42_double__1111101211021120_shape_set_20_T.jpeg,42_double__1111101211021120_shape_set_20_T1_minimal_difference.jpeg,1,15.123
3727234,1,2,1,2_double__0000020001001020_shape_set_17_T.jpeg,2_double__0000020001001020_shape_set_17_T1_minimal_difference.jpeg,1,1.938
3727234,2,3,1,3_clockwork3_single__000011010200_shape_set_20_T.jpeg,3_clockwork3_single__000011010200_shape_set_20_T1_paired_difference.jpeg,1,1.246
3727234,3,4,1,4_flower_single__02001220000001000200_shape_set_4_T.jpeg,4_flower_single__02001220000001000200_shape_set_4_T1_minimal_difference.jpeg,1,2.34
3727234,4,5,1,5_grid_single__0000000010200000_shape_set_17_T.jpeg,5_grid_single__0000000010200000_shape_set_17_T1_minimal_difference.jpeg,1,1.227
3727234,5,7,1,7_flower_single__01000200020012200200_shape_set_4_T.jpeg,7_flower_single__01000200020012200200_shape_set_4_T1_paired_difference.jpeg,1,2.517
3727234,6,8,1,8_grid_single__0100000000001111_shape_set_17_T.jpeg,8_grid_single__0100000000001111_shape_set_17_T1_minimal_difference.jpeg,1,5.411
3727234,7,9,1,9_flower_single__10020000020001000200_shape_set_20_T.jpeg,9_flower_single__10020000020001000200_shape_set_20_T1_minimal_difference.jpeg,1,6.177
3727234,8,1,2,1_single__101010001010_shape_set_4_T.jpeg,1_single__101010001010_shape_set_4_T1_minimal_difference.jpeg,1,1.165
3727234,9,6,2,6_single__121210101222_shape_set_20_T.jpeg,6_single__121210101222_shape_set_20_T1_paired_difference.jpeg,1,10.237
3727234,10,19,2,19_single__101112201212_shape_set_4_T.jpeg,19_single__101112201212_shape_set_4_T2_minimal_difference.jpeg,0,11.102
3727234,11,20,2,20_double__1221010010220000_shape_set_17_T.jpeg,20_double__1221010010220000_shape_set_17_T4_paired_difference.jpeg,0,8.034
3727234,12,22,2,22_single__112212211220_shape_set_4_T.jpeg,22_single__112212211220_shape_set_4_T1_paired_difference.jpeg,1,6.494
3727234,13,25,2,25_clockwork3_single__112110110000_shape_set_4_T.jpeg,25_clockwork3_single__112110110000_shape_set_4_T1_minimal_difference.jpeg,1,9.585
3727234,14,28,2,28_flower_double__0000122201000100000011220000020001000100_shape_set_4_T.jpeg,28_flower_double__0000122201000100000011220000020001000100_shape_set_4_T1_minimal_difference.jpeg,1,15.0
3727234,15,39,2,39_flower_double__0100010001000000122001000000010012120200_shape_set_20_T.jpeg,39_flower_double__0100010001000000122001000000010012120200_shape_set_20_T2_minimal_difference.jpeg,0,15.99
3727234,16,10,3,10_triple__000012221120010002000000_shape_set_4_T.jpeg,10_triple__000012221120010002000000_shape_set_4_T1_paired_difference.jpeg,1,15.896
3727234,17,11,3,11_grid_single__1220111101001121_shape_set_17_T.jpeg,11_grid_single__1220111101001121_shape_set_17_T1_paired_difference.jpeg,1,9.052
3727234,18,13,3,13_flower_single__01001221122102001122_shape_set_4_T.jpeg,13_flower_single__01001221122102001122_shape_set_4_T2_minimal_difference.jpeg,0,6.641
3727234,19,15,3,15_double__0000110211121011_shape_set_20_T.jpeg,15_double__0000110211121011_shape_set_20_T1_paired_difference.jpeg,1,17.194
3727234,20,18,3,18_flower_double__1022102200000100010000000200122101000000_shape_set_20_T.jpeg,18_flower_double__1022102200000100010000000200122101000000_shape_set_20_T3_paired_difference.jpeg,0,8.561
3727234,21,27,3,27_double__1020020012121122_shape_set_20_T.jpeg,27_double__1020020012121122_shape_set_20_T4_paired_difference.jpeg,0,4.984
3727234,22,31,3,31_flower_double__0200010011120100020012110000000002001102_shape_set_4_T.jpeg,31_flower_double__0200010011120100020012110000000002001102_shape_set_4_T2_paired_difference.jpeg,0,19.716
3727234,23,12,4,12_double__1212102211111221_shape_set_20_T.jpeg,12_double__1212102211111221_shape_set_20_T2_minimal_difference.jpeg,0,6.498
3727234,24,16,4,16_grid_single__1012121112021101_shape_set_4_T.jpeg,16_grid_single__1012121112021101_shape_set_4_T1_paired_difference.jpeg,1,6.941
3727234,25,17,4,17_double__1222110111201012_shape_set_17_T.jpeg,17_double__1222110111201012_shape_set_17_T1_paired_difference.jpeg,1,23.912
3734686,1,2,1,2_double__0000020001001020_shape_set_17_T.jpeg,2_double__0000020001001020_shape_set_17_T1_minimal_difference.jpeg,1,2.982
3734686,2,3,1,3_clockwork3_single__000011010200_shape_set_20_T.jpeg,3_clockwork3_single__000011010200_shape_set_20_T1_paired_difference.jpeg,1,2.337
3734686,3,4,1,4_flower_single__02001220000001000200_shape_set_4_T.jpeg,4_flower_single__02001220000001000200_shape_set_4_T1_paired_difference.jpeg,1,4.04
3734686,4,5,1,5_grid_single__0000000010200000_shape_set_17_T.jpeg,5_grid_single__0000000010200000_shape_set_17_T1_minimal_difference.jpeg,1,1.76
3734686,5,7,1,7_flower_single__01000200020012200200_shape_set_4_T.jpeg,7_flower_single__01000200020012200200_shape_set_4_T1_minimal_difference.jpeg,1,4.554
3734686,6,8,1,8_grid_single__0100000000001111_shape_set_17_T.jpeg,8_grid_single__0100000000001111_shape_set_17_T1_paired_difference.jpeg,1,8.559
3734686,7,9,1,9_flower_single__10020000020001000200_shape_set_20_T.jpeg,9_flower_single__10020000020001000200_shape_set_20_T1_paired_difference.jpeg,1,4.934
3734686,8,1,2,1_single__101010001010_shape_set_4_T.jpeg,1_single__101010001010_shape_set_4_T1_paired_difference.jpeg,1,1.19
3734686,9,6,2,6_single__121210101222_shape_set_20_T.jpeg,6_single__121210101222_shape_set_20_T3_minimal_difference.jpeg,0,8.068
3734686,10,19,2,19_single__101112201212_shape_set_4_T.jpeg,19_single__101112201212_shape_set_4_T4_minimal_difference.jpeg,0,3.823
3734686,11,20,2,20_double__1221010010220000_shape_set_17_T.jpeg,20_double__1221010010220000_shape_set_17_T1_minimal_difference.jpeg,1,12.804
3734686,12,22,2,22_single__112212211220_shape_set_4_T.jpeg,22_single__112212211220_shape_set_4_T1_minimal_difference.jpeg,1,6.487
3734686,13,25,2,25_clockwork3_single__112110110000_shape_set_4_T.jpeg,25_clockwork3_single__112110110000_shape_set_4_T1_minimal_difference.jpeg,1,9.847
3734686,14,28,2,28_flower_double__0000122201000100000011220000020001000100_shape_set_4_T.jpeg,28_flower_double__0000122201000100000011220000020001000100_shape_set_4_T3_paired_difference.jpeg,0,26.236
3734686,15,39,2,39_flower_double__0100010001000000122001000000010012120200_shape_set_20_T.jpeg,39_flower_double__0100010001000000122001000000010012120200_shape_set_20_T1_minimal_difference.jpeg,1,8.699
3734686,16,10,3,10_triple__000012221120010002000000_shape_set_4_T.jpeg,10_triple__000012221120010002000000_shape_set_4_T1_minimal_difference.jpeg,1,12.177
3734686,17,11,3,11_grid_single__1220111101001121_shape_set_17_T.jpeg,11_grid_single__1220111101001121_shape_set_17_T2_minimal_difference.jpeg,0,6.934
3734686,18,13,3,13_flower_single__01001221122102001122_shape_set_4_T.jpeg,13_flower_single__01001221122102001122_shape_set_4_T2_paired_difference.jpeg,0,17.514
3734686,19,15,3,15_double__0000110211121011_shape_set_20_T.jpeg,15_double__0000110211121011_shape_set_20_T4_paired_difference.jpeg,0,13.957
3734686,20,18,3,18_flower_double__1022102200000100010000000200122101000000_shape_set_20_T.jpeg,18_flower_double__1022102200000100010000000200122101000000_shape_set_20_T1_paired_difference.jpeg,1,18.708
3734686,21,27,3,27_double__1020020012121122_shape_set_20_T.jpeg,27_double__1020020012121122_shape_set_20_T1_paired_difference.jpeg,1,12.222
3734686,22,31,3,31_flower_double__0200010011120100020012110000000002001102_shape_set_4_T.jpeg,31_flower_double__0200010011120100020012110000000002001102_shape_set_4_T1_minimal_difference.jpeg,1,15.625
3734686,23,12,4,12_double__1212102211111221_shape_set_20_T.jpeg,12_double__1212102211111221_shape_set_20_T4_paired_difference.jpeg,0,6.805
3734686,24,16,4,16_grid_single__1012121112021101_shape_set_4_T.jpeg,16_grid_single__1012121112021101_shape_set_4_T3_paired_difference.jpeg,0,3.779
3736610,1,2,1,2_double__0000020001001020_shape_set_17_T.jpeg,2_double__0000020001001020_shape_set_17_T1_minimal_difference.jpeg,1,5.99
3736610,2,3,1,3_clockwork3_single__000011010200_shape_set_20_T.jpeg,3_clockwork3_single__000011010200_shape_set_20_T1_minimal_difference.jpeg,1,2.672
3736610,3,4,1,4_flower_single__02001220000001000200_shape_set_4_T.jpeg,4_flower_single__02001220000001000200_shape_set_4_T1_minimal_difference.jpeg,1,4.285
3736610,4,5,1,5_grid_single__0000000010200000_shape_set_17_T.jpeg,5_grid_single__0000000010200000_shape_set_17_T1_minimal_difference.jpeg,1,2.513
3736610,5,7,1,7_flower_single__01000200020012200200_shape_set_4_T.jpeg,7_flower_single__01000200020012200200_shape_set_4_T1_paired_difference.jpeg,1,2.993
3736610,6,8,1,8_grid_single__0100000000001111_shape_set_17_T.jpeg,8_grid_single__0100000000001111_shape_set_17_T1_minimal_difference.jpeg,1,4.061
3736610,7,9,1,9_flower_single__10020000020001000200_shape_set_20_T.jpeg,9_flower_single__10020000020001000200_shape_set_20_T3_minimal_difference.jpeg,0,3.504
3736610,8,1,2,1_single__101010001010_shape_set_4_T.jpeg,1_single__101010001010_shape_set_4_T1_paired_difference.jpeg,1,3.276
3736610,9,6,2,6_single__121210101222_shape_set_20_T.jpeg,6_single__121210101222_shape_set_20_T3_minimal_difference.jpeg,0,4.657
3736610,10,19,2,19_single__101112201212_shape_set_4_T.jpeg,19_single__101112201212_shape_set_4_T1_minimal_difference.jpeg,1,7.828
3736610,11,20,2,20_double__1221010010220000_shape_set_17_T.jpeg,20_double__1221010010220000_shape_set_17_T4_paired_difference.jpeg,0,12.815
3736610,12,22,2,22_single__112212211220_shape_set_4_T.jpeg,22_single__112212211220_shape_set_4_T2_minimal_difference.jpeg,0,4.241
3736610,13,25,2,25_clockwork3_single__112110110000_shape_set_4_T.jpeg,25_clockwork3_single__112110110000_shape_set_4_T1_minimal_difference.jpeg,1,7.907
3736610,14,28,2,28_flower_double__0000122201000100000011220000020001000100_shape_set_4_T.jpeg,28_flower_double__0000122201000100000011220000020001000100_shape_set_4_T3_minimal_difference.jpeg,0,6.761
3736610,15,39,2,39_flower_double__0100010001000000122001000000010012120200_shape_set_20_T.jpeg,39_flower_double__0100010001000000122001000000010012120200_shape_set_20_T1_minimal_difference.jpeg,1,14.556
3736610,16,10,3,10_triple__000012221120010002000000_shape_set_4_T.jpeg,10_triple__000012221120010002000000_shape_set_4_T2_minimal_difference.jpeg,0,8.329
3736610,17,11,3,11_grid_single__1220111101001121_shape_set_17_T.jpeg,11_grid_single__1220111101001121_shape_set_17_T4_paired_difference.jpeg,0,11.6
3736610,18,13,3,13_flower_single__01001221122102001122_shape_set_4_T.jpeg,13_flower_single__01001221122102001122_shape_set_4_T1_paired_difference.jpeg,1,6.859
3736610,19,15,3,15_double__0000110211121011_shape_set_20_T.jpeg,15_double__0000110211121011_shape_set_20_T2_paired_difference.jpeg,0,9.557
3736610,20,18,3,18_flower_double__1022102200000100010000000200122101000000_shape_set_20_T.jpeg,18_flower_double__1022102200000100010000000200122101000000_shape_set_20_T3_minimal_difference.jpeg,0,9.837
3736610,21,27,3,27_double__1020020012121122_shape_set_20_T.jpeg,27_double__1020020012121122_shape_set_20_T3_paired_difference.jpeg,0,4.902
3736610,22,31,3,31_flower_double__0200010011120100020012110000000002001102_shape_set_4_T.jpeg,31_flower_double__0200010011120100020012110000000002001102_shape_set_4_T3_paired_difference.jpeg,0,15.329
3736610,23,12,4,12_double__1212102211111221_shape_set_20_T.jpeg,12_double__1212102211111221_shape_set_20_T2_paired_difference.jpeg,0,10.642
3736610,24,16,4,16_grid_single__1012121112021101_shape_set_4_T.jpeg,16_grid_single__1012121112021101_shape_set_4_T1_paired_difference.jpeg,1,11.902
3736610,25,17,4,17_double__1222110111201012_shape_set_17_T.jpeg,17_double__1222110111201012_shape_set_17_T2_paired_difference.jpeg,0,18.077
3776779,1,2,1,2_double__0000020001001020_shape_set_17_T.jpeg,2_double__0000020001001020_shape_set_17_T1_paired_difference.jpeg,1,2.777
3776779,2,3,1,3_clockwork3_single__000011010200_shape_set_20_T.jpeg,3_clockwork3_single__000011010200_shape_set_20_T1_minimal_difference.jpeg,1,1.996
3776779,3,4,1,4_flower_single__02001220000001000200_shape_set_4_T.jpeg,4_flower_single__02001220000001000200_shape_set_4_T1_paired_difference.jpeg,1,3.323
3776779,4,5,1,5_grid_single__0000000010200000_shape_set_17_T.jpeg,5_grid_single__0000000010200000_shape_set_17_T1_paired_difference.jpeg,1,2.664
3776779,5,7,1,7_flower_single__01000200020012200200_shape_set_4_T.jpeg,7_flower_single__01000200020012200200_shape_set_4_T1_paired_difference.jpeg,1,3.376
3776779,6,8,1,8_grid_single__0100000000001111_shape_set_17_T.jpeg,8_grid_single__0100000000001111_shape_set_17_T1_paired_difference.jpeg,1,4.132
3776779,7,9,1,9_flower_single__10020000020001000200_shape_set_20_T.jpeg,9_flower_single__10020000020001000200_shape_set_20_T1_paired_difference.jpeg,1,5.509
3776779,8,1,2,1_single__101010001010_shape_set_4_T.jpeg,1_single__101010001010_shape_set_4_T1_minimal_difference.jpeg,1,2.119
3776779,9,6,2,6_single__121210101222_shape_set_20_T.jpeg,6_single__121210101222_shape_set_20_T3_minimal_difference.jpeg,0,4.62
3776779,10,19,2,19_single__101112201212_shape_set_4_T.jpeg,19_single__101112201212_shape_set_4_T2_paired_difference.jpeg,0,4.021
3776779,11,20,2,20_double__1221010010220000_shape_set_17_T.jpeg,20_double__1221010010220000_shape_set_17_T4_paired_difference.jpeg,0,3.683
3776779,12,22,2,22_single__112212211220_shape_set_4_T.jpeg,22_single__112212211220_shape_set_4_T2_paired_difference.jpeg,0,6.847
3776779,13,25,2,25_clockwork3_single__112110110000_shape_set_4_T.jpeg,25_clockwork3_single__112110110000_shape_set_4_T1_paired_difference.jpeg,1,9.077
3776779,14,28,2,28_flower_double__0000122201000100000011220000020001000100_shape_set_4_T.jpeg,28_flower_double__0000122201000100000011220000020001000100_shape_set_4_T2_minimal_difference.jpeg,0,8.16
3776779,15,39,2,39_flower_double__0100010001000000122001000000010012120200_shape_set_20_T.jpeg,39_flower_double__0100010001000000122001000000010012120200_shape_set_20_T4_minimal_difference.jpeg,0,11.671
3776779,16,10,3,10_triple__000012221120010002000000_shape_set_4_T.jpeg,10_triple__000012221120010002000000_shape_set_4_T3_paired_difference.jpeg,0,6.146
3776779,17,11,3,11_grid_single__1220111101001121_shape_set_17_T.jpeg,11_grid_single__1220111101001121_shape_set_17_T1_paired_difference.jpeg,1,9.825
3776779,18,13,3,13_flower_single__01001221122102001122_shape_set_4_T.jpeg,13_flower_single__01001221122102001122_shape_set_4_T4_minimal_difference.jpeg,0,4.867
3776779,19,15,3,15_double__0000110211121011_shape_set_20_T.jpeg,15_double__0000110211121011_shape_set_20_T3_paired_difference.jpeg,0,7.691
3776779,20,18,3,18_flower_double__1022102200000100010000000200122101000000_shape_set_20_T.jpeg,18_flower_double__1022102200000100010000000200122101000000_shape_set_20_T4_minimal_difference.jpeg,0,9.366
3776779,21,27,3,27_double__1020020012121122_shape_set_20_T.jpeg,27_double__1020020012121122_shape_set_20_T2_paired_difference.jpeg,0,6.552
3776779,22,31,3,31_flower_double__0200010011120100020012110000000002001102_shape_set_4_T.jpeg,31_flower_double__0200010011120100020012110000000002001102_shape_set_4_T1_paired_difference.jpeg,1,7.124
3776779,23,12,4,12_double__1212102211111221_shape_set_20_T.jpeg,12_double__1212102211111221_shape_set_20_T2_minimal_difference.jpeg,0,8.638
3776779,24,16,4,16_grid_single__1012121112021101_shape_set_4_T.jpeg,16_grid_single__1012121112021101_shape_set_4_T1_minimal_difference.jpeg,1,8.574
3776779,25,17,4,17_double__1222110111201012_shape_set_17_T.jpeg,17_double__1222110111201012_shape_set_17_T3_minimal_difference.jpeg,0,9.366
3776779,26,23,4,23_grid_single__1110120212111121_shape_set_17_T.jpeg,23_grid_single__1110120212111121_shape_set_17_T1_minimal_difference.jpeg,1,15.288
3776779,27,40,4,40_grid_double__02000000010011100200020010211111_shape_set_4_T.jpeg,40_grid_double__02000000010011100200020010211111_shape_set_4_T1_minimal_difference.jpeg,1,5.605
3776779,28,42,4,42_double__1111101211021120_shape_set_20_T.jpeg,42_double__1111101211021120_shape_set_20_T2_minimal_difference.jpeg,0,8.496
3776779,29,14,5,14_triple__112110100000000010021222_shape_set_17_T.jpeg,14_triple__112110100000000010021222_shape_set_17_T3_minimal_difference.jpeg,0,11.716
3776779,30,26,5,26_grid_triple__000000000000112102000100020000000200000011221121_shape_set_17_T.jpeg,26_grid_triple__000000000000112102000100020000000200000011221121_shape_set_17_T3_paired_difference.jpeg,0,5.719
3776779,31,52,5,52_flower_single__12121202111010011122_shape_set_4_T.jpeg,52_flower_single__12121202111010011122_shape_set_4_T1_paired_difference.jpeg,1,7.677
3796587,1,2,1,2_double__0000020001001020_shape_set_17_T.jpeg,2_double__0000020001001020_shape_set_17_T1_minimal_difference.jpeg,1,4.511
3796587,2,3,1,3_clockwork3_single__000011010200_shape_set_20_T.jpeg,3_clockwork3_single__000011010200_shape_set_20_T1_paired_difference.jpeg,1,1.463
3796587,3,4,1,4_flower_single__02001220000001000200_shape_set_4_T.jpeg,4_flower_single__02001220000001000200_shape_set_4_T1_minimal_difference.jpeg,1,2.986
3796587,4,5,1,5_grid_single__0000000010200000_shape_set_17_T.jpeg,5_grid_single__0000000010200000_shape_set_17_T1_paired_difference.jpeg,1,3.267
3796587,5,7,1,7_flower_single__01000200020012200200_shape_set_4_T.jpeg,7_flower_single__01000200020012200200_shape_set_4_T1_minimal_difference.jpeg,1,2.942
3796587,6,8,1,8_grid_single__0100000000001111_shape_set_17_T.jpeg,8_grid_single__0100000000001111_shape_set_17_T1_minimal_difference.jpeg,1,2.735
3796587,7,9,1,9_flower_single__10020000020001000200_shape_set_20_T.jpeg,9_flower_single__10020000020001000200_shape_set_20_T1_paired_difference.jpeg,1,3.882
3796587,8,1,2,1_single__101010001010_shape_set_4_T.jpeg,1_single__101010001010_shape_set_4_T1_minimal_difference.jpeg,1,1.615
3796587,9,6,2,6_single__121210101222_shape_set_20_T.jpeg,6_single__121210101222_shape_set_20_T1_minimal_difference.jpeg,1,6.492
3796587,10,19,2,19_single__101112201212_shape_set_4_T.jpeg,19_single__101112201212_shape_set_4_T1_paired_difference.jpeg,1,5.147
3796587,11,20,2,20_double__1221010010220000_shape_set_17_T.jpeg,20_double__1221010010220000_shape_set_17_T1_paired_difference.jpeg,1,7.965
3796587,12,22,2,22_single__112212211220_shape_set_4_T.jpeg,22_single__112212211220_shape_set_4_T1_minimal_difference.jpeg,1,6.547
3796587,13,25,2,25_clockwork3_single__112110110000_shape_set_4_T.jpeg,25_clockwork3_single__112110110000_shape_set_4_T1_minimal_difference.jpeg,1,16.728
3796587,14,28,2,28_flower_double__0000122201000100000011220000020001000100_shape_set_4_T.jpeg,28_flower_double__0000122201000100000011220000020001000100_shape_set_4_T1_minimal_difference.jpeg,1,10.903
3796587,15,39,2,39_flower_double__0100010001000000122001000000010012120200_shape_set_20_T.jpeg,39_flower_double__0100010001000000122001000000010012120200_shape_set_20_T2_paired_difference.jpeg,0,10.653
3796587,16,10,3,10_triple__000012221120010002000000_shape_set_4_T.jpeg,10_triple__000012221120010002000000_shape_set_4_T1_minimal_difference.jpeg,1,7.615
3796587,17,11,3,11_grid_single__1220111101001121_shape_set_17_T.jpeg,11_grid_single__1220111101001121_shape_set_17_T2_minimal_difference.jpeg,0,22.593
3796587,18,13,3,13_flower_single__01001221122102001122_shape_set_4_T.jpeg,13_flower_single__01001221122102001122_shape_set_4_T1_paired_difference.jpeg,1,11.865
3796587,19,15,3,15_double__0000110211121011_shape_set_20_T.jpeg,15_double__0000110211121011_shape_set_20_T1_minimal_difference.jpeg,1,16.22
3796587,20,18,3,18_flower_double__1022102200000100010000000200122101000000_shape_set_20_T.jpeg,18_flower_double__1022102200000100010000000200122101000000_shape_set_20_T2_minimal_difference.jpeg,0,20.876
3796587,21,27,3,27_double__1020020012121122_shape_set_20_T.jpeg,27_double__1020020012121122_shape_set_20_T3_paired_difference.jpeg,0,17.246
3796587,22,31,3,31_flower_double__0200010011120100020012110000000002001102_shape_set_4_T.jpeg,31_flower_double__0200010011120100020012110000000002001102_shape_set_4_T1_minimal_difference.jpeg,1,24.823
3796587,23,12,4,12_double__1212102211111221_shape_set_20_T.jpeg,12_double__1212102211111221_shape_set_20_T1_paired_difference.jpeg,1,17.879
3826972,1,2,1,2_double__0000020001001020_shape_set_17_T.jpeg,2_double__0000020001001020_shape_set_17_T1_minimal_difference.jpeg,1,7.025
3826972,2,3,1,3_clockwork3_single__000011010200_shape_set_20_T.jpeg,3_clockwork3_single__000011010200_shape_set_20_T1_paired_difference.jpeg,1,3.345
3826972,3,4,1,4_flower_single__02001220000001000200_shape_set_4_T.jpeg,4_flower_single__02001220000001000200_shape_set_4_T1_minimal_difference.jpeg,1,7.033
3826972,4,5,1,5_grid_single__0000000010200000_shape_set_17_T.jpeg,5_grid_single__0000000010200000_shape_set_17_T1_minimal_difference.jpeg,1,3.061
3826972,5,7,1,7_flower_single__01000200020012200200_shape_set_4_T.jpeg,7_flower_single__01000200020012200200_shape_set_4_T1_paired_difference.jpeg,1,5.468
3826972,6,8,1,8_grid_single__0100000000001111_shape_set_17_T.jpeg,8_grid_single__0100000000001111_shape_set_17_T1_minimal_difference.jpeg,1,6.737
3826972,7,9,1,9_flower_single__10020000020001000200_shape_set_20_T.jpeg,9_flower_single__10020000020001000200_shape_set_20_T1_paired_difference.jpeg,1,6.638
3826972,8,1,2,1_single__101010001010_shape_set_4_T.jpeg,1_single__101010001010_shape_set_4_T1_paired_difference.jpeg,1,1.796
3826972,9,6,2,6_single__121210101222_shape_set_20_T.jpeg,6_single__121210101222_shape_set_20_T1_minimal_difference.jpeg,1,8.872
3826972,10,19,2,19_single__101112201212_shape_set_4_T.jpeg,19_single__101112201212_shape_set_4_T2_paired_difference.jpeg,0,8.095
3826972,11,20,2,20_double__1221010010220000_shape_set_17_T.jpeg,20_double__1221010010220000_shape_set_17_T1_minimal_difference.jpeg,1,15.648
3826972,12,22,2,22_single__112212211220_shape_set_4_T.jpeg,22_single__112212211220_shape_set_4_T1_minimal_difference.jpeg,1,6.694
3826972,13,25,2,25_clockwork3_single__112110110000_shape_set_4_T.jpeg,25_clockwork3_single__112110110000_shape_set_4_T1_paired_difference.jpeg,1,10.598
3826972,14,28,2,28_flower_double__0000122201000100000011220000020001000100_shape_set_4_T.jpeg,28_flower_double__0000122201000100000011220000020001000100_shape_set_4_T3_paired_difference.jpeg,0,8.236
3826972,15,39,2,39_flower_double__0100010001000000122001000000010012120200_shape_set_20_T.jpeg,39_flower_double__0100010001000000122001000000010012120200_shape_set_20_T2_minimal_difference.jpeg,0,19.657
3826972,16,10,3,10_triple__000012221120010002000000_shape_set_4_T.jpeg,10_triple__000012221120010002000000_shape_set_4_T3_paired_difference.jpeg,0,19.178
3826972,17,11,3,11_grid_single__1220111101001121_shape_set_17_T.jpeg,11_grid_single__1220111101001121_shape_set_17_T1_paired_difference.jpeg,1,20.871
3826972,18,13,3,13_flower_single__01001221122102001122_shape_set_4_T.jpeg,13_flower_single__01001221122102001122_shape_set_4_T3_paired_difference.jpeg,0,14.027
3826972,19,15,3,15_double__0000110211121011_shape_set_20_T.jpeg,15_double__0000110211121011_shape_set_20_T1_paired_difference.jpeg,1,16.573
3826972,20,18,3,18_flower_double__1022102200000100010000000200122101000000_shape_set_20_T.jpeg,18_flower_double__1022102200000100010000000200122101000000_shape_set_20_T1_paired_difference.jpeg,1,16.82
3826972,21,27,3,27_double__1020020012121122_shape_set_20_T.jpeg,27_double__1020020012121122_shape_set_20_T3_paired_difference.jpeg,0,19.876
3834933,1,2,1,2_double__0000020001001020_shape_set_17_T.jpeg,2_double__0000020001001020_shape_set_17_T1_paired_difference.jpeg,1,2.338
3834933,2,3,1,3_clockwork3_single__000011010200_shape_set_20_T.jpeg,3_clockwork3_single__000011010200_shape_set_20_T1_paired_difference.jpeg,1,1.776
3834933,3,4,1,4_flower_single__02001220000001000200_shape_set_4_T.jpeg,4_flower_single__02001220000001000200_shape_set_4_T1_minimal_difference.jpeg,1,3.231
3834933,4,5,1,5_grid_single__0000000010200000_shape_set_17_T.jpeg,5_grid_single__0000000010200000_shape_set_17_T1_paired_difference.jpeg,1,1.787
3834933,5,7,1,7_flower_single__01000200020012200200_shape_set_4_T.jpeg,7_flower_single__01000200020012200200_shape_set_4_T1_paired_difference.jpeg,1,2.86
3834933,6,8,1,8_grid_single__0100000000001111_shape_set_17_T.jpeg,8_grid_single__0100000000001111_shape_set_17_T1_minimal_difference.jpeg,1,3.78
3834933,7,9,1,9_flower_single__10020000020001000200_shape_set_20_T.jpeg,9_flower_single__10020000020001000200_shape_set_20_T1_minimal_difference.jpeg,1,5.782
3834933,8,1,2,1_single__101010001010_shape_set_4_T.jpeg,1_single__101010001010_shape_set_4_T1_minimal_difference.jpeg,1,2.242
3834933,9,6,2,6_single__121210101222_shape_set_20_T.jpeg,6_single__121210101222_shape_set_20_T1_paired_difference.jpeg,1,5.584
3834933,10,19,2,19_single__101112201212_shape_set_4_T.jpeg,19_single__101112201212_shape_set_4_T1_paired_difference.jpeg,1,3.313
3834933,11,20,2,20_double__1221010010220000_shape_set_17_T.jpeg,20_double__1221010010220000_shape_set_17_T1_minimal_difference.jpeg,1,9.997
3834933,12,22,2,22_single__112212211220_shape_set_4_T.jpeg,22_single__112212211220_shape_set_4_T1_minimal_difference.jpeg,1,6.194
3834933,13,25,2,25_clockwork3_single__112110110000_shape_set_4_T.jpeg,25_clockwork3_single__112110110000_shape_set_4_T1_minimal_difference.jpeg,1,7.439
3834933,14,28,2,28_flower_double__0000122201000100000011220000020001000100_shape_set_4_T.jpeg,28_flower_double__0000122201000100000011220000020001000100_shape_set_4_T1_paired_difference.jpeg,1,9.356
3834933,15,39,2,39_flower_double__0100010001000000122001000000010012120200_shape_set_20_T.jpeg,39_flower_double__0100010001000000122001000000010012120200_shape_set_20_T1_minimal_difference.jpeg,1,10.694
3834933,16,10,3,10_triple__000012221120010002000000_shape_set_4_T.jpeg,10_triple__000012221120010002000000_shape_set_4_T3_paired_difference.jpeg,0,7.951
3834933,17,11,3,11_grid_single__1220111101001121_shape_set_17_T.jpeg,11_grid_single__1220111101001121_shape_set_17_T1_minimal_difference.jpeg,1,9.727
3834933,18,13,3,13_flower_single__01001221122102001122_shape_set_4_T.jpeg,13_flower_single__01001221122102001122_shape_set_4_T1_paired_difference.jpeg,1,18.106
3834933,19,15,3,15_double__0000110211121011_shape_set_20_T.jpeg,15_double__0000110211121011_shape_set_20_T2_minimal_difference.jpeg,0,18.137
3834933,20,18,3,18_flower_double__1022102200000100010000000200122101000000_shape_set_20_T.jpeg,18_flower_double__1022102200000100010000000200122101000000_shape_set_20_T1_paired_difference.jpeg,1,14.446
3834933,21,27,3,27_double__1020020012121122_shape_set_20_T.jpeg,27_double__1020020012121122_shape_set_20_T1_minimal_difference.jpeg,1,13.074
3834933,22,31,3,31_flower_double__0200010011120100020012110000000002001102_shape_set_4_T.jpeg,31_flower_double__0200010011120100020012110000000002001102_shape_set_4_T1_minimal_difference.jpeg,1,13.399
3834933,23,12,4,12_double__1212102211111221_shape_set_20_T.jpeg,12_double__1212102211111221_shape_set_20_T1_minimal_difference.jpeg,1,12.847
3834933,24,16,4,16_grid_single__1012121112021101_shape_set_4_T.jpeg,16_grid_single__1012121112021101_shape_set_4_T1_paired_difference.jpeg,1,7.636
3834933,25,17,4,17_double__1222110111201012_shape_set_17_T.jpeg,17_double__1222110111201012_shape_set_17_T1_paired_difference.jpeg,1,8.665
3834933,26,23,4,23_grid_single__1110120212111121_shape_set_17_T.jpeg,23_grid_single__1110120212111121_shape_set_17_T1_paired_difference.jpeg,1,7.985
3834933,27,40,4,40_grid_double__02000000010011100200020010211111_shape_set_4_T.jpeg,40_grid_double__02000000010011100200020010211111_shape_set_4_T1_minimal_difference.jpeg,1,13.324
3839463,1,2,1,2_double__0000020001001020_shape_set_17_T.jpeg,2_double__0000020001001020_shape_set_17_T2_paired_difference.jpeg,0,1.762
3839463,2,3,1,3_clockwork3_single__000011010200_shape_set_20_T.jpeg,3_clockwork3_single__000011010200_shape_set_20_T2_minimal_difference.jpeg,0,0.658
3839463,3,4,1,4_flower_single__02001220000001000200_shape_set_4_T.jpeg,4_flower_single__02001220000001000200_shape_set_4_T2_minimal_difference.jpeg,0,1.31
3839463,4,5,1,5_grid_single__0000000010200000_shape_set_17_T.jpeg,5_grid_single__0000000010200000_shape_set_17_T3_minimal_difference.jpeg,0,0.603
3839463,5,7,1,7_flower_single__01000200020012200200_shape_set_4_T.jpeg,7_flower_single__01000200020012200200_shape_set_4_T4_paired_difference.jpeg,0,0.614
3839463,6,8,1,8_grid_single__0100000000001111_shape_set_17_T.jpeg,8_grid_single__0100000000001111_shape_set_17_T4_paired_difference.jpeg,0,0.492
3839463,7,9,1,9_flower_single__10020000020001000200_shape_set_20_T.jpeg,9_flower_single__10020000020001000200_shape_set_20_T3_minimal_difference.jpeg,0,0.636
3839463,8,1,2,1_single__101010001010_shape_set_4_T.jpeg,1_single__101010001010_shape_set_4_T4_paired_difference.jpeg,0,0.727
3839463,9,6,2,6_single__121210101222_shape_set_20_T.jpeg,6_single__121210101222_shape_set_20_T1_minimal_difference.jpeg,1,1.508
3839463,10,19,2,19_single__101112201212_shape_set_4_T.jpeg,19_single__101112201212_shape_set_4_T4_minimal_difference.jpeg,0,2.727
3839463,11,20,2,20_double__1221010010220000_shape_set_17_T.jpeg,20_double__1221010010220000_shape_set_17_T4_minimal_difference.jpeg,0,2.748
3839463,12,22,2,22_single__112212211220_shape_set_4_T.jpeg,22_single__112212211220_shape_set_4_T1_minimal_difference.jpeg,1,0.818
3839463,13,25,2,25_clockwork3_single__112110110000_shape_set_4_T.jpeg,25_clockwork3_single__112110110000_shape_set_4_T1_paired_difference.jpeg,1,3.317
3839463,14,28,2,28_flower_double__0000122201000100000011220000020001000100_shape_set_4_T.jpeg,28_flower_double__0000122201000100000011220000020001000100_shape_set_4_T4_paired_difference.jpeg,0,2.591
3839463,15,39,2,39_flower_double__0100010001000000122001000000010012120200_shape_set_20_T.jpeg,39_flower_double__0100010001000000122001000000010012120200_shape_set_20_T4_minimal_difference.jpeg,0,0.525
3839463,16,10,3,10_triple__000012221120010002000000_shape_set_4_T.jpeg,10_triple__000012221120010002000000_shape_set_4_T2_minimal_difference.jpeg,0,0.344
3839463,17,11,3,11_grid_single__1220111101001121_shape_set_17_T.jpeg,11_grid_single__1220111101001121_shape_set_17_T4_minimal_difference.jpeg,0,0.522
3839463,18,13,3,13_flower_single__01001221122102001122_shape_set_4_T.jpeg,13_flower_single__01001221122102001122_shape_set_4_T1_paired_difference.jpeg,1,0.444
3839463,19,15,3,15_double__0000110211121011_shape_set_20_T.jpeg,15_double__0000110211121011_shape_set_20_T2_paired_difference.jpeg,0,0.778
3839463,20,18,3,18_flower_double__1022102200000100010000000200122101000000_shape_set_20_T.jpeg,18_flower_double__1022102200000100010000000200122101000000_shape_set_20_T4_paired_difference.jpeg,0,0.416
3839463,21,27,3,27_double__1020020012121122_shape_set_20_T.jpeg,27_double__1020020012121122_shape_set_20_T3_paired_difference.jpeg,0,0.356
3839463,22,31,3,31_flower_double__0200010011120100020012110000000002001102_shape_set_4_T.jpeg,31_flower_double__0200010011120100020012110000000002001102_shape_set_4_T1_paired_difference.jpeg,1,0.657
3839463,23,12,4,12_double__1212102211111221_shape_set_20_T.jpeg,12_double__1212102211111221_shape_set_20_T2_paired_difference.jpeg,0,1.135
3839463,24,16,4,16_grid_single__1012121112021101_shape_set_4_T.jpeg,16_grid_single__1012121112021101_shape_set_4_T4_minimal_difference.jpeg,0,0.626
3839463,25,17,4,17_double__1222110111201012_shape_set_17_T.jpeg,17_double__1222110111201012_shape_set_17_T1_paired_difference.jpeg,1,0.697
3839463,26,23,4,23_grid_single__1110120212111121_shape_set_17_T.jpeg,23_grid_single__1110120212111121_shape_set_17_T2_paired_difference.jpeg,0,1.151
3839463,27,40,4,40_grid_double__02000000010011100200020010211111_shape_set_4_T.jpeg,40_grid_double__02000000010011100200020010211111_shape_set_4_T1_paired_difference.jpeg,1,0.923
3839463,28,42,4,42_double__1111101211021120_shape_set_20_T.jpeg,42_double__1111101211021120_shape_set_20_T3_paired_difference.jpeg,0,1.56
3839463,29,14,5,14_triple__112110100000000010021222_shape_set_17_T.jpeg,14_triple__112110100000000010021222_shape_set_17_T3_paired_difference.jpeg,0,0.73
3839463,30,26,5,26_grid_triple__000000000000112102000100020000000200000011221121_shape_set_17_T.jpeg,26_grid_triple__000000000000112102000100020000000200000011221121_shape_set_17_T3_minimal_difference.jpeg,0,0.754
3839463,31,52,5,52_flower_single__12121202111010011122_shape_set_4_T.jpeg,52_flower_single__12121202111010011122_shape_set_4_T3_paired_difference.jpeg,0,1.127
3839463,32,59,5,59_flower_single__11211110102010011122_shape_set_17_T.jpeg,59_flower_single__11211110102010011122_shape_set_17_T4_paired_difference.jpeg,0,0.622
3839463,33,36,6,36_triple__111212011010112010220100_shape_set_20_T.jpeg,36_triple__111212011010112010220100_shape_set_20_T4_paired_difference.jpeg,0,1.136
3839463,34,44,6,44_triple__120211201211000011101212_shape_set_17_T.jpeg,44_triple__120211201211000011101212_shape_set_17_T4_minimal_difference.jpeg,0,0.478
3839463,35,46,6,46_triple__101112200200110212211001_shape_set_4_T.jpeg,46_triple__101112200200110212211001_shape_set_4_T2_minimal_difference.jpeg,0,0.449
3839463,36,54,6,54_grid_double__01001121120112110100100212100100_shape_set_20_T.jpeg,54_grid_double__01001121120112110100100212100100_shape_set_20_T4_paired_difference.jpeg,0,1.859
3839463,37,21,7,21_triple__100111201112121010221202_shape_set_20_T.jpeg,21_triple__100111201112121010221202_shape_set_20_T2_minimal_difference.jpeg,0,1.3
3839463,38,24,7,24_grid_triple__010011220200122002000200100110021212000001000200_shape_set_20_T.jpeg,24_grid_triple__010011220200122002000200100110021212000001000200_shape_set_20_T1_minimal_difference.jpeg,1,0.496
3839463,39,29,7,29_grid_double__10121011111012010000102012020000_shape_set_17_T.jpeg,29_grid_double__10121011111012010000102012020000_shape_set_17_T3_minimal_difference.jpeg,0,0.527
3839463,40,35,8,35_grid_triple__122112021120000000001010010001001022110101000100_shape_set_17_T.jpeg,35_grid_triple__122112021120000000001010010001001022110101000100_shape_set_17_T2_minimal_difference.jpeg,0,0.665
3847333,1,2,1,2_double__0000020001001020_shape_set_17_T.jpeg,2_double__0000020001001020_shape_set_17_T1_paired_difference.jpeg,1,2.255
3847333,2,3,1,3_clockwork3_single__000011010200_shape_set_20_T.jpeg,3_clockwork3_single__000011010200_shape_set_20_T1_minimal_difference.jpeg,1,2.756
3847333,3,4,1,4_flower_single__02001220000001000200_shape_set_4_T.jpeg,4_flower_single__02001220000001000200_shape_set_4_T1_minimal_difference.jpeg,1,2.89
3847333,4,5,1,5_grid_single__0000000010200000_shape_set_17_T.jpeg,5_grid_single__0000000010200000_shape_set_17_T1_paired_difference.jpeg,1,1.306
3847333,5,7,1,7_flower_single__01000200020012200200_shape_set_4_T.jpeg,7_flower_single__01000200020012200200_shape_set_4_T1_paired_difference.jpeg,1,2.344
3847333,6,8,1,8_grid_single__0100000000001111_shape_set_17_T.jpeg,8_grid_single__0100000000001111_shape_set_17_T2_minimal_difference.jpeg,0,2.878
3847333,7,9,1,9_flower_single__10020000020001000200_shape_set_20_T.jpeg,9_flower_single__10020000020001000200_shape_set_20_T1_minimal_difference.jpeg,1,1.873
3847333,8,1,2,1_single__101010001010_shape_set_4_T.jpeg,1_single__101010001010_shape_set_4_T2_paired_difference.jpeg,0,2.091
3847333,9,6,2,6_single__121210101222_shape_set_20_T.jpeg,6_single__121210101222_shape_set_20_T4_paired_difference.jpeg,0,2.5
3847333,10,19,2,19_single__101112201212_shape_set_4_T.jpeg,19_single__101112201212_shape_set_4_T3_paired_difference.jpeg,0,2.363
3847333,11,20,2,20_double__1221010010220000_shape_set_17_T.jpeg,20_double__1221010010220000_shape_set_17_T4_minimal_difference.jpeg,0,1.24
3847333,12,22,2,22_single__112212211220_shape_set_4_T.jpeg,22_single__112212211220_shape_set_4_T1_paired_difference.jpeg,1,2.466
3847333,13,25,2,25_clockwork3_single__112110110000_shape_set_4_T.jpeg,25_clockwork3_single__112110110000_shape_set_4_T1_paired_difference.jpeg,1,2.649
3847333,14,28,2,28_flower_double__0000122201000100000011220000020001000100_shape_set_4_T.jpeg,28_flower_double__0000122201000100000011220000020001000100_shape_set_4_T2_paired_difference.jpeg,0,1.354
3847333,15,39,2,39_flower_double__0100010001000000122001000000010012120200_shape_set_20_T.jpeg,39_flower_double__0100010001000000122001000000010012120200_shape_set_20_T2_paired_difference.jpeg,0,2.157
3847333,16,10,3,10_triple__000012221120010002000000_shape_set_4_T.jpeg,10_triple__000012221120010002000000_shape_set_4_T3_paired_difference.jpeg,0,1.949
3847333,17,11,3,11_grid_single__1220111101001121_shape_set_17_T.jpeg,11_grid_single__1220111101001121_shape_set_17_T3_minimal_difference.jpeg,0,1.414
3847333,18,13,3,13_flower_single__01001221122102001122_shape_set_4_T.jpeg,13_flower_single__01001221122102001122_shape_set_4_T3_paired_difference.jpeg,0,1.744
3847333,19,15,3,15_double__0000110211121011_shape_set_20_T.jpeg,15_double__0000110211121011_shape_set_20_T1_minimal_difference.jpeg,1,3.541
3847333,20,18,3,18_flower_double__1022102200000100010000000200122101000000_shape_set_20_T.jpeg,18_flower_double__1022102200000100010000000200122101000000_shape_set_20_T2_paired_difference.jpeg,0,1.585
3847333,21,27,3,27_double__1020020012121122_shape_set_20_T.jpeg,27_double__1020020012121122_shape_set_20_T4_minimal_difference.jpeg,0,1.202
3847333,22,31,3,31_flower_double__0200010011120100020012110000000002001102_shape_set_4_T.jpeg,31_flower_double__0200010011120100020012110000000002001102_shape_set_4_T2_paired_difference.jpeg,0,1.251
3847333,23,12,4,12_double__1212102211111221_shape_set_20_T.jpeg,12_double__1212102211111221_shape_set_20_T3_minimal_difference.jpeg,0,1.149
3847333,24,16,4,16_grid_single__1012121112021101_shape_set_4_T.jpeg,16_grid_single__1012121112021101_shape_set_4_T1_minimal_difference.jpeg,1,0.957
3847333,25,17,4,17_double__1222110111201012_shape_set_17_T.jpeg,17_double__1222110111201012_shape_set_17_T2_minimal_difference.jpeg,0,1.155
3847333,26,23,4,23_grid_single__1110120212111121_shape_set_17_T.jpeg,23_grid_single__1110120212111121_shape_set_17_T3_minimal_difference.jpeg,0,1.042
3847333,27,40,4,40_grid_double__02000000010011100200020010211111_shape_set_4_T.jpeg,40_grid_double__02000000010011100200020010211111_shape_set_4_T4_minimal_difference.jpeg,0,1.436
3847333,28,42,4,42_double__1111101211021120_shape_set_20_T.jpeg,42_double__1111101211021120_shape_set_20_T4_minimal_difference.jpeg,0,0.786
3847333,29,14,5,14_triple__112110100000000010021222_shape_set_17_T.jpeg,14_triple__112110100000000010021222_shape_set_17_T1_minimal_difference.jpeg,1,1.321
3847333,30,26,5,26_grid_triple__000000000000112102000100020000000200000011221121_shape_set_17_T.jpeg,26_grid_triple__000000000000112102000100020000000200000011221121_shape_set_17_T4_paired_difference.jpeg,0,1.168
3847333,31,52,5,52_flower_single__12121202111010011122_shape_set_4_T.jpeg,52_flower_single__12121202111010011122_shape_set_4_T1_paired_difference.jpeg,1,0.96
3847333,32,59,5,59_flower_single__11211110102010011122_shape_set_17_T.jpeg,59_flower_single__11211110102010011122_shape_set_17_T4_paired_difference.jpeg,0,1.183
3847333,33,36,6,36_triple__111212011010112010220100_shape_set_20_T.jpeg,36_triple__111212011010112010220100_shape_set_20_T3_paired_difference.jpeg,0,0.869
3847333,34,44,6,44_triple__120211201211000011101212_shape_set_17_T.jpeg,44_triple__120211201211000011101212_shape_set_17_T3_paired_difference.jpeg,0,0.802
3847333,35,46,6,46_triple__101112200200110212211001_shape_set_4_T.jpeg,46_triple__101112200200110212211001_shape_set_4_T1_paired_difference.jpeg,1,0.887
3847333,36,54,6,54_grid_double__01001121120112110100100212100100_shape_set_20_T.jpeg,54_grid_double__01001121120112110100100212100100_shape_set_20_T3_minimal_difference.jpeg,0,0.957
3847333,37,21,7,21_triple__100111201112121010221202_shape_set_20_T.jpeg,21_triple__100111201112121010221202_shape_set_20_T1_minimal_difference.jpeg,1,0.926
3847333,38,24,7,24_grid_triple__010011220200122002000200100110021212000001000200_shape_set_20_T.jpeg,24_grid_triple__010011220200122002000200100110021212000001000200_shape_set_20_T3_minimal_difference.jpeg,0,0.845
3847333,39,29,7,29_grid_double__10121011111012010000102012020000_shape_set_17_T.jpeg,29_grid_double__10121011111012010000102012020000_shape_set_17_T4_minimal_difference.jpeg,0,0.798
3847333,40,35,8,35_grid_triple__122112021120000000001010010001001022110101000100_shape_set_17_T.jpeg,35_grid_triple__122112021120000000001010010001001022110101000100_shape_set_17_T3_paired_difference.jpeg,0,0.82
3870766,1,2,1,2_double__0000020001001020_shape_set_17_T.jpeg,2_double__0000020001001020_shape_set_17_T1_paired_difference.jpeg,1,3.526
3870766,2,3,1,3_clockwork3_single__000011010200_shape_set_20_T.jpeg,3_clockwork3_single__000011010200_shape_set_20_T1_paired_difference.jpeg,1,1.822
3870766,3,4,1,4_flower_single__02001220000001000200_shape_set_4_T.jpeg,4_flower_single__02001220000001000200_shape_set_4_T1_paired_difference.jpeg,1,3.97
3870766,4,5,1,5_grid_single__0000000010200000_shape_set_17_T.jpeg,5_grid_single__0000000010200000_shape_set_17_T1_paired_difference.jpeg,1,1.837
3870766,5,7,1,7_flower_single__01000200020012200200_shape_set_4_T.jpeg,7_flower_single__01000200020012200200_shape_set_4_T1_minimal_difference.jpeg,1,2.642
3870766,6,8,1,8_grid_single__0100000000001111_shape_set_17_T.jpeg,8_grid_single__0100000000001111_shape_set_17_T1_paired_difference.jpeg,1,15.76
3870766,7,9,1,9_flower_single__10020000020001000200_shape_set_20_T.jpeg,9_flower_single__10020000020001000200_shape_set_20_T1_paired_difference.jpeg,1,9.49
3870766,8,1,2,1_single__101010001010_shape_set_4_T.jpeg,1_single__101010001010_shape_set_4_T1_paired_difference.jpeg,1,1.494
3870766,9,6,2,6_single__121210101222_shape_set_20_T.jpeg,6_single__121210101222_shape_set_20_T2_minimal_difference.jpeg,0,18.509
3870766,10,19,2,19_single__101112201212_shape_set_4_T.jpeg,19_single__101112201212_shape_set_4_T3_minimal_difference.jpeg,0,11.287
3870766,11,20,2,20_double__1221010010220000_shape_set_17_T.jpeg,20_double__1221010010220000_shape_set_17_T1_paired_difference.jpeg,1,12.443
3870766,12,22,2,22_single__112212211220_shape_set_4_T.jpeg,22_single__112212211220_shape_set_4_T1_paired_difference.jpeg,1,7.424
3870766,13,25,2,25_clockwork3_single__112110110000_shape_set_4_T.jpeg,25_clockwork3_single__112110110000_shape_set_4_T1_minimal_difference.jpeg,1,21.637
3870766,14,28,2,28_flower_double__0000122201000100000011220000020001000100_shape_set_4_T.jpeg,28_flower_double__0000122201000100000011220000020001000100_shape_set_4_T1_paired_difference.jpeg,1,14.814
3870766,15,39,2,39_flower_double__0100010001000000122001000000010012120200_shape_set_20_T.jpeg,39_flower_double__0100010001000000122001000000010012120200_shape_set_20_T3_paired_difference.jpeg,0,21.713
3870766,16,10,3,10_triple__000012221120010002000000_shape_set_4_T.jpeg,10_triple__000012221120010002000000_shape_set_4_T1_paired_difference.jpeg,1,11.595
3870766,17,11,3,11_grid_single__1220111101001121_shape_set_17_T.jpeg,11_grid_single__1220111101001121_shape_set_17_T1_minimal_difference.jpeg,1,23.241
3870766,18,13,3,13_flower_single__01001221122102001122_shape_set_4_T.jpeg,13_flower_single__01001221122102001122_shape_set_4_T2_paired_difference.jpeg,0,29.48
3870766,19,15,3,15_double__0000110211121011_shape_set_20_T.jpeg,15_double__0000110211121011_shape_set_20_T1_minimal_difference.jpeg,1,29.26
3882919,1,2,1,2_double__0000020001001020_shape_set_17_T.jpeg,2_double__0000020001001020_shape_set_17_T1_paired_difference.jpeg,1,3.577
3882919,2,3,1,3_clockwork3_single__000011010200_shape_set_20_T.jpeg,3_clockwork3_single__000011010200_shape_set_20_T1_paired_difference.jpeg,1,2.908
3882919,3,4,1,4_flower_single__02001220000001000200_shape_set_4_T.jpeg,4_flower_single__02001220000001000200_shape_set_4_T1_paired_difference.jpeg,1,5.328
3882919,4,5,1,5_grid_single__0000000010200000_shape_set_17_T.jpeg,5_grid_single__0000000010200000_shape_set_17_T1_minimal_difference.jpeg,1,3.262
3882919,5,7,1,7_flower_single__01000200020012200200_shape_set_4_T.jpeg,7_flower_single__01000200020012200200_shape_set_4_T1_paired_difference.jpeg,1,3.799
3882919,6,8,1,8_grid_single__0100000000001111_shape_set_17_T.jpeg,8_grid_single__0100000000001111_shape_set_17_T1_paired_difference.jpeg,1,7.222
3882919,7,9,1,9_flower_single__10020000020001000200_shape_set_20_T.jpeg,9_flower_single__10020000020001000200_shape_set_20_T1_minimal_difference.jpeg,1,7.903
3882919,8,1,2,1_single__101010001010_shape_set_4_T.jpeg,1_single__101010001010_shape_set_4_T1_paired_difference.jpeg,1,3.356
3882919,9,6,2,6_single__121210101222_shape_set_20_T.jpeg,6_single__121210101222_shape_set_20_T1_paired_difference.jpeg,1,26.118
3882919,10,19,2,19_single__101112201212_shape_set_4_T.jpeg,19_single__101112201212_shape_set_4_T1_minimal_difference.jpeg,1,24.123
3882919,11,20,2,20_double__1221010010220000_shape_set_17_T.jpeg,20_double__1221010010220000_shape_set_17_T1_paired_difference.jpeg,1,20.205
3882919,12,22,2,22_single__112212211220_shape_set_4_T.jpeg,22_single__112212211220_shape_set_4_T1_paired_difference.jpeg,1,20.399
3882919,13,25,2,25_clockwork3_single__112110110000_shape_set_4_T.jpeg,25_clockwork3_single__112110110000_shape_set_4_T2_minimal_difference.jpeg,0,25.937
3882919,14,28,2,28_flower_double__0000122201000100000011220000020001000100_shape_set_4_T.jpeg,28_flower_double__0000122201000100000011220000020001000100_shape_set_4_T1_paired_difference.jpeg,1,25.902
3882919,15,39,2,39_flower_double__0100010001000000122001000000010012120200_shape_set_20_T.jpeg,39_flower_double__0100010001000000122001000000010012120200_shape_set_20_T1_paired_difference.jpeg,1,13.246
3882919,16,10,3,10_triple__000012221120010002000000_shape_set_4_T.jpeg,10_triple__000012221120010002000000_shape_set_4_T2_minimal_difference.jpeg,0,26.034
3882919,17,11,3,11_grid_single__1220111101001121_shape_set_17_T.jpeg,11_grid_single__1220111101001121_shape_set_17_T1_minimal_difference.jpeg,1,25.933
3888037,1,2,1,2_double__0000020001001020_shape_set_17_T.jpeg,2_double__0000020001001020_shape_set_17_T1_paired_difference.jpeg,1,2.658
3888037,2,3,1,3_clockwork3_single__000011010200_shape_set_20_T.jpeg,3_clockwork3_single__000011010200_shape_set_20_T1_minimal_difference.jpeg,1,1.724
3888037,3,4,1,4_flower_single__02001220000001000200_shape_set_4_T.jpeg,4_flower_single__02001220000001000200_shape_set_4_T1_paired_difference.jpeg,1,3.853
3888037,4,5,1,5_grid_single__0000000010200000_shape_set_17_T.jpeg,5_grid_single__0000000010200000_shape_set_17_T1_minimal_difference.jpeg,1,1.843
3888037,5,7,1,7_flower_single__01000200020012200200_shape_set_4_T.jpeg,7_flower_single__01000200020012200200_shape_set_4_T1_paired_difference.jpeg,1,3.996
3888037,6,8,1,8_grid_single__0100000000001111_shape_set_17_T.jpeg,8_grid_single__0100000000001111_shape_set_17_T1_minimal_difference.jpeg,1,7.794
3888037,7,9,1,9_flower_single__10020000020001000200_shape_set_20_T.jpeg,9_flower_single__10020000020001000200_shape_set_20_T1_minimal_difference.jpeg,1,4.221
3888037,8,1,2,1_single__101010001010_shape_set_4_T.jpeg,1_single__101010001010_shape_set_4_T1_paired_difference.jpeg,1,1.611
3888037,9,6,2,6_single__121210101222_shape_set_20_T.jpeg,6_single__121210101222_shape_set_20_T1_paired_difference.jpeg,1,7.474
3888037,10,19,2,19_single__101112201212_shape_set_4_T.jpeg,19_single__101112201212_shape_set_4_T1_paired_difference.jpeg,1,11.699
3888037,11,20,2,20_double__1221010010220000_shape_set_17_T.jpeg,20_double__1221010010220000_shape_set_17_T1_paired_difference.jpeg,1,10.149
3888037,12,22,2,22_single__112212211220_shape_set_4_T.jpeg,22_single__112212211220_shape_set_4_T1_minimal_difference.jpeg,1,6.428
3888037,13,25,2,25_clockwork3_single__112110110000_shape_set_4_T.jpeg,25_clockwork3_single__112110110000_shape_set_4_T1_paired_difference.jpeg,1,14.424
3888037,14,28,2,28_flower_double__0000122201000100000011220000020001000100_shape_set_4_T.jpeg,28_flower_double__0000122201000100000011220000020001000100_shape_set_4_T1_minimal_difference.jpeg,1,12.806
3888037,15,39,2,39_flower_double__0100010001000000122001000000010012120200_shape_set_20_T.jpeg,39_flower_double__0100010001000000122001000000010012120200_shape_set_20_T2_paired_difference.jpeg,0,15.103
3888037,16,10,3,10_triple__000012221120010002000000_shape_set_4_T.jpeg,10_triple__000012221120010002000000_shape_set_4_T1_paired_difference.jpeg,1,17.195
3888037,17,11,3,11_grid_single__1220111101001121_shape_set_17_T.jpeg,11_grid_single__1220111101001121_shape_set_17_T1_paired_difference.jpeg,1,10.617
3888037,18,13,3,13_flower_single__01001221122102001122_shape_set_4_T.jpeg,13_flower_single__01001221122102001122_shape_set_4_T1_minimal_difference.jpeg,1,14.965
3888037,19,15,3,15_double__0000110211121011_shape_set_20_T.jpeg,15_double__0000110211121011_shape_set_20_T1_minimal_difference.jpeg,1,15.893
3888037,20,18,3,18_flower_double__1022102200000100010000000200122101000000_shape_set_20_T.jpeg,18_flower_double__1022102200000100010000000200122101000000_shape_set_20_T1_paired_difference.jpeg,1,15.076
3888037,21,27,3,27_double__1020020012121122_shape_set_20_T.jpeg,27_double__1020020012121122_shape_set_20_T3_paired_difference.jpeg,0,12.161
3888037,22,31,3,31_flower_double__0200010011120100020012110000000002001102_shape_set_4_T.jpeg,31_flower_double__0200010011120100020012110000000002001102_shape_set_4_T1_paired_difference.jpeg,1,14.732
3888037,23,12,4,12_double__1212102211111221_shape_set_20_T.jpeg,12_double__1212102211111221_shape_set_20_T1_paired_difference.jpeg,1,8.074
3897094,1,2,1,2_double__0000020001001020_shape_set_17_T.jpeg,2_double__0000020001001020_shape_set_17_T1_paired_difference.jpeg,1,2.731
3897094,2,3,1,3_clockwork3_single__000011010200_shape_set_20_T.jpeg,3_clockwork3_single__000011010200_shape_set_20_T1_paired_difference.jpeg,1,1.181
3897094,3,4,1,4_flower_single__02001220000001000200_shape_set_4_T.jpeg,4_flower_single__02001220000001000200_shape_set_4_T1_paired_difference.jpeg,1,1.943
3897094,4,5,1,5_grid_single__0000000010200000_shape_set_17_T.jpeg,5_grid_single__0000000010200000_shape_set_17_T1_paired_difference.jpeg,1,1.563
3897094,5,7,1,7_flower_single__01000200020012200200_shape_set_4_T.jpeg,7_flower_single__01000200020012200200_shape_set_4_T1_paired_difference.jpeg,1,1.705
3897094,6,8,1,8_grid_single__0100000000001111_shape_set_17_T.jpeg,8_grid_single__0100000000001111_shape_set_17_T4_paired_difference.jpeg,0,3.542
3897094,7,9,1,9_flower_single__10020000020001000200_shape_set_20_T.jpeg,9_flower_single__10020000020001000200_shape_set_20_T1_paired_difference.jpeg,1,2.894
3897094,8,1,2,1_single__101010001010_shape_set_4_T.jpeg,1_single__101010001010_shape_set_4_T1_minimal_difference.jpeg,1,0.99
3897094,9,6,2,6_single__121210101222_shape_set_20_T.jpeg,6_single__121210101222_shape_set_20_T1_paired_difference.jpeg,1,2.977
3897094,10,19,2,19_single__101112201212_shape_set_4_T.jpeg,19_single__101112201212_shape_set_4_T2_paired_difference.jpeg,0,2.106
3897094,11,20,2,20_double__1221010010220000_shape_set_17_T.jpeg,20_double__1221010010220000_shape_set_17_T4_paired_difference.jpeg,0,1.806
3897094,12,22,2,22_single__112212211220_shape_set_4_T.jpeg,22_single__112212211220_shape_set_4_T1_minimal_difference.jpeg,1,2.245
3897094,13,25,2,25_clockwork3_single__112110110000_shape_set_4_T.jpeg,25_clockwork3_single__112110110000_shape_set_4_T1_paired_difference.jpeg,1,2.141
3897094,14,28,2,28_flower_double__0000122201000100000011220000020001000100_shape_set_4_T.jpeg,28_flower_double__0000122201000100000011220000020001000100_shape_set_4_T1_minimal_difference.jpeg,1,2.082
3897094,15,39,2,39_flower_double__0100010001000000122001000000010012120200_shape_set_20_T.jpeg,39_flower_double__0100010001000000122001000000010012120200_shape_set_20_T1_minimal_difference.jpeg,1,2.47
3897094,16,10,3,10_triple__000012221120010002000000_shape_set_4_T.jpeg,10_triple__000012221120010002000000_shape_set_4_T2_minimal_difference.jpeg,0,1.695
3897094,17,11,3,11_grid_single__1220111101001121_shape_set_17_T.jpeg,11_grid_single__1220111101001121_shape_set_17_T4_paired_difference.jpeg,0,1.997
3897094,18,13,3,13_flower_single__01001221122102001122_shape_set_4_T.jpeg,13_flower_single__01001221122102001122_shape_set_4_T2_paired_difference.jpeg,0,3.098
3897094,19,15,3,15_double__0000110211121011_shape_set_20_T.jpeg,15_double__0000110211121011_shape_set_20_T4_paired_difference.jpeg,0,2.386
3897094,20,18,3,18_flower_double__1022102200000100010000000200122101000000_shape_set_20_T.jpeg,18_flower_double__1022102200000100010000000200122101000000_shape_set_20_T4_minimal_difference.jpeg,0,2.018
3897094,21,27,3,27_double__1020020012121122_shape_set_20_T.jpeg,27_double__1020020012121122_shape_set_20_T3_paired_difference.jpeg,0,2.984
3897094,22,31,3,31_flower_double__0200010011120100020012110000000002001102_shape_set_4_T.jpeg,31_flower_double__0200010011120100020012110000000002001102_shape_set_4_T2_minimal_difference.jpeg,0,2.206
3897094,23,12,4,12_double__1212102211111221_shape_set_20_T.jpeg,12_double__1212102211111221_shape_set_20_T2_minimal_difference.jpeg,0,3.402
3897094,24,16,4,16_grid_single__1012121112021101_shape_set_4_T.jpeg,16_grid_single__1012121112021101_shape_set_4_T1_paired_difference.jpeg,1,2.224
3897094,25,17,4,17_double__1222110111201012_shape_set_17_T.jpeg,17_double__1222110111201012_shape_set_17_T1_minimal_difference.jpeg,1,3.127
3897094,26,23,4,23_grid_single__1110120212111121_shape_set_17_T.jpeg,23_grid_single__1110120212111121_shape_set_17_T4_minimal_difference.jpeg,0,3.113
3897094,27,40,4,40_grid_double__02000000010011100200020010211111_shape_set_4_T.jpeg,40_grid_double__02000000010011100200020010211111_shape_set_4_T2_minimal_difference.jpeg,0,2.972
3897094,28,42,4,42_double__1111101211021120_shape_set_20_T.jpeg,42_double__1111101211021120_shape_set_20_T2_minimal_difference.jpeg,0,2.786
3897094,29,14,5,14_triple__112110100000000010021222_shape_set_17_T.jpeg,14_triple__112110100000000010021222_shape_set_17_T2_paired_difference.jpeg,0,2.928
3897094,30,26,5,26_grid_triple__000000000000112102000100020000000200000011221121_shape_set_17_T.jpeg,26_grid_triple__000000000000112102000100020000000200000011221121_shape_set_17_T2_paired_difference.jpeg,0,3.111
3897094,31,52,5,52_flower_single__12121202111010011122_shape_set_4_T.jpeg,52_flower_single__12121202111010011122_shape_set_4_T4_paired_difference.jpeg,0,2.256
3897094,32,59,5,59_flower_single__11211110102010011122_shape_set_17_T.jpeg,59_flower_single__11211110102010011122_shape_set_17_T4_paired_difference.jpeg,0,3.123
3897094,33,36,6,36_triple__111212011010112010220100_shape_set_20_T.jpeg,36_triple__111212011010112010220100_shape_set_20_T2_paired_difference.jpeg,0,2.447
3897094,34,44,6,44_triple__120211201211000011101212_shape_set_17_T.jpeg,44_triple__120211201211000011101212_shape_set_17_T2_minimal_difference.jpeg,0,3.354
3897094,35,46,6,46_triple__101112200200110212211001_shape_set_4_T.jpeg,46_triple__101112200200110212211001_shape_set_4_T3_minimal_difference.jpeg,0,2.142
3897094,36,54,6,54_grid_double__01001121120112110100100212100100_shape_set_20_T.jpeg,54_grid_double__01001121120112110100100212100100_shape_set_20_T4_minimal_difference.jpeg,0,3.475
3897094,37,21,7,21_triple__100111201112121010221202_shape_set_20_T.jpeg,21_triple__100111201112121010221202_shape_set_20_T4_paired_difference.jpeg,0,3.625
3897094,38,24,7,24_grid_triple__010011220200122002000200100110021212000001000200_shape_set_20_T.jpeg,24_grid_triple__010011220200122002000200100110021212000001000200_shape_set_20_T4_minimal_difference.jpeg,0,5.008
3897094,39,29,7,29_grid_double__10121011111012010000102012020000_shape_set_17_T.jpeg,29_grid_double__10121011111012010000102012020000_shape_set_17_T1_paired_difference.jpeg,1,4.493
3897094,40,35,8,35_grid_triple__122112021120000000001010010001001022110101000100_shape_set_17_T.jpeg,35_grid_triple__122112021120000000001010010001001022110101000100_shape_set_17_T4_minimal_difference.jpeg,0,4.073
3899928,1,2,1,2_double__0000020001001020_shape_set_17_T.jpeg,2_double__0000020001001020_shape_set_17_T1_minimal_difference.jpeg,1,4.144
3899928,2,3,1,3_clockwork3_single__000011010200_shape_set_20_T.jpeg,3_clockwork3_single__000011010200_shape_set_20_T1_minimal_difference.jpeg,1,1.496
3899928,3,4,1,4_flower_single__02001220000001000200_shape_set_4_T.jpeg,4_flower_single__02001220000001000200_shape_set_4_T3_minimal_difference.jpeg,0,3.266
3899928,4,5,1,5_grid_single__0000000010200000_shape_set_17_T.jpeg,5_grid_single__0000000010200000_shape_set_17_T1_paired_difference.jpeg,1,5.093
3899928,5,7,1,7_flower_single__01000200020012200200_shape_set_4_T.jpeg,7_flower_single__01000200020012200200_shape_set_4_T1_minimal_difference.jpeg,1,4.717
3899928,6,8,1,8_grid_single__0100000000001111_shape_set_17_T.jpeg,8_grid_single__0100000000001111_shape_set_17_T3_paired_difference.jpeg,0,4.592
3899928,7,9,1,9_flower_single__10020000020001000200_shape_set_20_T.jpeg,9_flower_single__10020000020001000200_shape_set_20_T1_paired_difference.jpeg,1,9.914
3899928,8,1,2,1_single__101010001010_shape_set_4_T.jpeg,1_single__101010001010_shape_set_4_T1_paired_difference.jpeg,1,1.772
3899928,9,6,2,6_single__121210101222_shape_set_20_T.jpeg,6_single__121210101222_shape_set_20_T1_minimal_difference.jpeg,1,6.82
3899928,10,19,2,19_single__101112201212_shape_set_4_T.jpeg,19_single__101112201212_shape_set_4_T1_paired_difference.jpeg,1,5.314
3899928,11,20,2,20_double__1221010010220000_shape_set_17_T.jpeg,20_double__1221010010220000_shape_set_17_T1_minimal_difference.jpeg,1,8.72
3899928,12,22,2,22_single__112212211220_shape_set_4_T.jpeg,22_single__112212211220_shape_set_4_T1_minimal_difference.jpeg,1,6.213
3899928,13,25,2,25_clockwork3_single__112110110000_shape_set_4_T.jpeg,25_clockwork3_single__112110110000_shape_set_4_T1_paired_difference.jpeg,1,6.191
3899928,14,28,2,28_flower_double__0000122201000100000011220000020001000100_shape_set_4_T.jpeg,28_flower_double__0000122201000100000011220000020001000100_shape_set_4_T3_paired_difference.jpeg,0,10.097
3899928,15,39,2,39_flower_double__0100010001000000122001000000010012120200_shape_set_20_T.jpeg,39_flower_double__0100010001000000122001000000010012120200_shape_set_20_T1_minimal_difference.jpeg,1,8.746
3899928,16,10,3,10_triple__000012221120010002000000_shape_set_4_T.jpeg,10_triple__000012221120010002000000_shape_set_4_T1_paired_difference.jpeg,1,5.954
