[{"rt":6167.904999980237,"responses":{"age":"30","gender-categorical":"Male","gender-free-response":"","ethnicity":"Not Hispanic or Latino","race":["White"],"education":"Some college"},"trial_type":"survey-demo","trial_index":0,"time_elapsed":6172,"internal_node_id":"0.0-0.0"},{"view_history":[{"page_index":0,"viewing_time":3227.6650000130758},{"page_index":1,"viewing_time":2191.7149999644607},{"page_index":2,"viewing_time":1415.9600000130013}],"rt":6836.119999992661,"trial_type":"instructions","trial_index":1,"time_elapsed":13010,"internal_node_id":"0.0-1.0"},{"stimulus":"../static/img/practice/pt1_M1.png","correct":0,"choice":0,"accuracy":1,"rt":4910.4899999802,"item_set":"practice","trial_type":"mars","trial_index":2,"time_elapsed":19923,"internal_node_id":"0.0-2.0-0.0"},{"stimulus":"../static/img/practice/pt2_M1.png","correct":0,"choice":0,"accuracy":1,"rt":2204.39000002807,"item_set":"practice","trial_type":"mars","trial_index":3,"time_elapsed":24140,"internal_node_id":"0.0-3.0-0.0"},{"stimulus":"../static/img/practice/pt3_M1.png","correct":0,"choice":0,"accuracy":1,"rt":1580.2499999990687,"item_set":"practice","trial_type":"mars","trial_index":4,"time_elapsed":27735,"internal_node_id":"0.0-4.0-0.0"},{"view_history":[{"page_index":0,"viewing_time":1401.2400000356138},{"page_index":1,"viewing_time":1136.1649999744259}],"rt":2537.6750000286847,"trial_type":"instructions","trial_index":5,"time_elapsed":30274,"internal_node_id":"0.0-5.0"},{"stimulus":"../static/img/is3/tf1/tf1_19_M_ss3.jpeg","correct":0,"choice":0,"accuracy":1,"rt":5943.014999968,"item_set":3,"test_form":1,"distractor":"pd","trial_type":"mars","trial_index":6,"time_elapsed":36969,"internal_node_id":"0.0-6.0"},{"stimulus":"../static/img/is3/tf1/tf1_20_M_ss1.jpeg","correct":0,"choice":1,"accuracy":0,"rt":5654.9700000323355,"item_set":3,"test_form":1,"distractor":"pd","trial_type":"mars","trial_index":7,"time_elapsed":43376,"internal_node_id":"0.0-7.0"},{"stimulus":"../static/img/is3/tf1/tf1_15_M_ss2.jpeg","correct":0,"choice":0,"accuracy":1,"rt":5655.449999962002,"item_set":3,"test_form":1,"distractor":"pd","trial_type":"mars","trial_index":8,"time_elapsed":49784,"internal_node_id":"0.0-8.0"},{"stimulus":"../static/img/is3/tf1/tf1_10_M_ss3.jpeg","correct":0,"choice":0,"accuracy":1,"rt":8646.889999974519,"item_set":3,"test_form":1,"distractor":"pd","trial_type":"mars","trial_index":9,"time_elapsed":59183,"internal_node_id":"0.0-9.0"},{"stimulus":"../static/img/is3/tf1/tf1_16_M_ss3.jpeg","correct":0,"choice":0,"accuracy":1,"rt":4544.019999972079,"item_set":3,"test_form":1,"distractor":"pd","trial_type":"mars","trial_index":10,"time_elapsed":64479,"internal_node_id":"0.0-10.0"},{"stimulus":"../static/img/is3/tf1/tf1_17_M_ss1.jpeg","correct":0,"choice":1,"accuracy":0,"rt":5783.715000026859,"item_set":3,"test_form":1,"distractor":"pd","trial_type":"mars","trial_index":11,"time_elapsed":71016,"internal_node_id":"0.0-11.0"},{"stimulus":"../static/img/is3/tf1/tf1_52_M_ss3.jpeg","correct":0,"choice":2,"accuracy":0,"rt":6536.024999979418,"item_set":3,"test_form":1,"distractor":"pd","trial_type":"mars","trial_index":12,"time_elapsed":78305,"internal_node_id":"0.0-12.0"},{"stimulus":"../static/img/is3/tf1/tf1_59_M_ss1.jpeg","correct":0,"choice":1,"accuracy":0,"rt":6653.764999995474,"item_set":3,"test_form":1,"distractor":"pd","trial_type":"mars","trial_index":13,"time_elapsed":85710,"internal_node_id":"0.0-13.0","interactions":"[{\"event\":\"blur\",\"trial\":4,\"time\":27468},{\"event\":\"focus\",\"trial\":5,\"time\":28271},{\"event\":\"blur\",\"trial\":6,\"time\":32838},{\"event\":\"focus\",\"trial\":6,\"time\":33262}]"}]