[{"rt":16186.22999987565,"responses":{"age":"66","gender-categorical":"Female","gender-free-response":"","ethnicity":"Not Hispanic or Latino","race":["White"],"education":"Some college"},"trial_type":"survey-demo","trial_index":0,"time_elapsed":16196,"internal_node_id":"0.0-0.0"},{"view_history":[{"page_index":0,"viewing_time":13796.289999969304},{"page_index":1,"viewing_time":8090.915000066161},{"page_index":2,"viewing_time":2621.0449999198318}],"rt":24509.35499998741,"trial_type":"instructions","trial_index":1,"time_elapsed":40707,"internal_node_id":"0.0-1.0"},{"stimulus":"../static/img/practice/pt1_M1.png","correct":0,"choice":2,"accuracy":0,"rt":8961.325000040233,"item_set":"practice","trial_type":"mars","trial_index":2,"time_elapsed":51674,"internal_node_id":"0.0-2.0-0.0"},{"stimulus":"../static/img/practice/pt1_M1.png","correct":0,"choice":0,"accuracy":1,"rt":6124.015000183135,"item_set":"practice","trial_type":"mars","trial_index":3,"time_elapsed":59805,"internal_node_id":"0.0-2.1-0.1"},{"stimulus":"../static/img/practice/pt2_M1.png","correct":0,"choice":0,"accuracy":1,"rt":4312.535000033677,"item_set":"practice","trial_type":"mars","trial_index":4,"time_elapsed":66123,"internal_node_id":"0.0-3.0-0.0"},{"stimulus":"../static/img/practice/pt3_M1.png","correct":0,"choice":0,"accuracy":1,"rt":2486.239999998361,"item_set":"practice","trial_type":"mars","trial_index":5,"time_elapsed":70651,"internal_node_id":"0.0-4.0-0.0"},{"view_history":[{"page_index":0,"viewing_time":4671.60000000149},{"page_index":1,"viewing_time":4309.949999907985}],"rt":8982.119999825954,"trial_type":"instructions","trial_index":6,"time_elapsed":79635,"internal_node_id":"0.0-5.0"},{"stimulus":"../static/img/is3/tf1/tf1_19_M_ss3.jpeg","correct":0,"choice":2,"accuracy":0,"rt":7002.755000023171,"item_set":3,"test_form":1,"distractor":"pd","trial_type":"mars","trial_index":7,"time_elapsed":87413,"internal_node_id":"0.0-6.0"},{"stimulus":"../static/img/is3/tf1/tf1_20_M_ss1.jpeg","correct":0,"choice":0,"accuracy":1,"rt":12218.250000150874,"item_set":3,"test_form":1,"distractor":"pd","trial_type":"mars","trial_index":8,"time_elapsed":100388,"internal_node_id":"0.0-7.0"},{"stimulus":"../static/img/is3/tf1/tf1_11_M_ss1.jpeg","correct":0,"choice":0,"accuracy":1,"rt":14370.624999981374,"item_set":3,"test_form":1,"distractor":"pd","trial_type":"mars","trial_index":9,"time_elapsed":115515,"internal_node_id":"0.0-8.0"},{"stimulus":"../static/img/is3/tf1/tf1_18_M_ss2.jpeg","correct":0,"choice":0,"accuracy":1,"rt":14307.230000151321,"item_set":3,"test_form":1,"distractor":"pd","trial_type":"mars","trial_index":10,"time_elapsed":130576,"internal_node_id":"0.0-9.0"},{"stimulus":"../static/img/is3/tf1/tf1_16_M_ss3.jpeg","correct":0,"choice":0,"accuracy":1,"rt":9171.585000120103,"item_set":3,"test_form":1,"distractor":"pd","trial_type":"mars","trial_index":11,"time_elapsed":140503,"internal_node_id":"0.0-10.0"},{"stimulus":"../static/img/is3/tf1/tf1_17_M_ss1.jpeg","correct":0,"choice":1,"accuracy":0,"rt":16028.355000074953,"item_set":3,"test_form":1,"distractor":"pd","trial_type":"mars","trial_index":12,"time_elapsed":157290,"internal_node_id":"0.0-11.0"},{"stimulus":"../static/img/is3/tf1/tf1_52_M_ss3.jpeg","correct":0,"choice":1,"accuracy":0,"rt":14983.004999812692,"item_set":3,"test_form":1,"distractor":"pd","trial_type":"mars","trial_index":13,"time_elapsed":173033,"internal_node_id":"0.0-12.0"},{"stimulus":"../static/img/is3/tf1/tf1_59_M_ss1.jpeg","correct":0,"choice":0,"accuracy":1,"rt":19450.004999991506,"item_set":3,"test_form":1,"distractor":"pd","trial_type":"mars","trial_index":14,"time_elapsed":193239,"internal_node_id":"0.0-13.0","interactions":"[]"}]