[{"rt":12187.945000012405,"responses":{"age":"32","gender-categorical":"Male","gender-free-response":"","ethnicity":"Not Hispanic or Latino","race":["White"],"education":"Bachelor degree"},"trial_type":"survey-demo","trial_index":0,"time_elapsed":12194,"internal_node_id":"0.0-0.0"},{"view_history":[{"page_index":0,"viewing_time":12030.15999996569},{"page_index":1,"viewing_time":7470.460000098683},{"page_index":2,"viewing_time":1293.9100000075996}],"rt":20795.35999998916,"trial_type":"instructions","trial_index":1,"time_elapsed":32993,"internal_node_id":"0.0-1.0"},{"stimulus":"../static/img/practice/pt1_M1.png","correct":0,"choice":0,"accuracy":1,"rt":4418.859999976121,"item_set":"practice","trial_type":"mars","trial_index":2,"time_elapsed":39419,"internal_node_id":"0.0-2.0-0.0"},{"stimulus":"../static/img/practice/pt2_M1.png","correct":0,"choice":0,"accuracy":1,"rt":2750.4650000482798,"item_set":"practice","trial_type":"mars","trial_index":3,"time_elapsed":44178,"internal_node_id":"0.0-3.0-0.0"},{"stimulus":"../static/img/practice/pt3_M1.png","correct":0,"choice":0,"accuracy":1,"rt":1983.959999983199,"item_set":"practice","trial_type":"mars","trial_index":4,"time_elapsed":48171,"internal_node_id":"0.0-4.0-0.0"},{"view_history":[{"page_index":0,"viewing_time":4144.570000004023},{"page_index":1,"viewing_time":1823.145000031218}],"rt":5968.029999989085,"trial_type":"instructions","trial_index":5,"time_elapsed":54143,"internal_node_id":"0.0-5.0"},{"stimulus":"../static/img/is3/tf1/tf1_19_M_ss3.jpeg","correct":0,"choice":0,"accuracy":1,"rt":7265.9600001061335,"item_set":3,"test_form":1,"distractor":"pd","trial_type":"mars","trial_index":6,"time_elapsed":62163,"internal_node_id":"0.0-6.0"},{"stimulus":"../static/img/is3/tf1/tf1_20_M_ss1.jpeg","correct":0,"choice":0,"accuracy":1,"rt":8704.004999948665,"item_set":3,"test_form":1,"distractor":"pd","trial_type":"mars","trial_index":7,"time_elapsed":71623,"internal_node_id":"0.0-7.0"},{"stimulus":"../static/img/is3/tf1/tf1_15_M_ss2.jpeg","correct":0,"choice":0,"accuracy":1,"rt":15432.715000002645,"item_set":3,"test_form":1,"distractor":"pd","trial_type":"mars","trial_index":8,"time_elapsed":87810,"internal_node_id":"0.0-8.0"},{"stimulus":"../static/img/is3/tf1/tf1_10_M_ss3.jpeg","correct":0,"choice":1,"accuracy":0,"rt":16098.33500010427,"item_set":3,"test_form":1,"distractor":"pd","trial_type":"mars","trial_index":9,"time_elapsed":104663,"internal_node_id":"0.0-9.0"},{"stimulus":"../static/img/is3/tf1/tf1_12_M_ss2.jpeg","correct":0,"choice":1,"accuracy":0,"rt":6243.309999932535,"item_set":3,"test_form":1,"distractor":"pd","trial_type":"mars","trial_index":10,"time_elapsed":111662,"internal_node_id":"0.0-10.0"},{"stimulus":"../static/img/is3/tf1/tf1_23_M_ss1.jpeg","correct":0,"choice":0,"accuracy":1,"rt":7266.120000043884,"item_set":3,"test_form":1,"distractor":"pd","trial_type":"mars","trial_index":11,"time_elapsed":119686,"internal_node_id":"0.0-11.0"},{"stimulus":"../static/img/is3/tf1/tf1_14_M_ss1.jpeg","correct":0,"choice":0,"accuracy":1,"rt":9840.049999998882,"item_set":3,"test_form":1,"distractor":"pd","trial_type":"mars","trial_index":12,"time_elapsed":130281,"internal_node_id":"0.0-12.0"},{"stimulus":"../static/img/is3/tf1/tf1_26_M_ss1.jpeg","correct":0,"choice":1,"accuracy":0,"rt":16964.69499997329,"item_set":3,"test_form":1,"distractor":"pd","trial_type":"mars","trial_index":13,"time_elapsed":148003,"internal_node_id":"0.0-13.0","interactions":"[{\"event\":\"blur\",\"trial\":1,\"time\":13195},{\"event\":\"focus\",\"trial\":1,\"time\":17990},{\"event\":\"blur\",\"trial\":5,\"time\":49936},{\"event\":\"focus\",\"trial\":5,\"time\":51369},{\"event\":\"blur\",\"trial\":8,\"time\":74473},{\"event\":\"focus\",\"trial\":8,\"time\":75501},{\"event\":\"blur\",\"trial\":13,\"time\":131545},{\"event\":\"focus\",\"trial\":13,\"time\":132796},{\"event\":\"blur\",\"trial\":13,\"time\":134555},{\"event\":\"focus\",\"trial\":13,\"time\":140014},{\"event\":\"blur\",\"trial\":13,\"time\":141264},{\"event\":\"focus\",\"trial\":13,\"time\":143631}]"}]