[{"rt":26855.999999999767,"responses":{"age":"33","gender-categorical":"Male","gender-free-response":"","ethnicity":"Hispanic or Latino","race":["Black or African American"],"education":"Master degree or higher"},"trial_type":"survey-demo","trial_index":0,"time_elapsed":26861,"internal_node_id":"0.0-0.0"},{"view_history":[{"page_index":0,"viewing_time":7772.999999986496},{"page_index":1,"viewing_time":10100.00000000582},{"page_index":2,"viewing_time":1946.9999999855645}],"rt":19823.999999993248,"trial_type":"instructions","trial_index":1,"time_elapsed":46687,"internal_node_id":"0.0-1.0"},{"stimulus":"../static/img/practice/pt1_M1.png","correct":0,"choice":2,"accuracy":0,"rt":8173.000000009779,"item_set":"practice","trial_type":"mars","trial_index":2,"time_elapsed":56865,"internal_node_id":"0.0-2.0-0.0"},{"stimulus":"../static/img/practice/pt1_M1.png","correct":0,"choice":2,"accuracy":0,"rt":10882.00000001234,"item_set":"practice","trial_type":"mars","trial_index":3,"time_elapsed":69759,"internal_node_id":"0.0-2.1-0.1"},{"stimulus":"../static/img/practice/pt1_M1.png","correct":0,"choice":0,"accuracy":1,"rt":18586.999999999534,"item_set":"practice","trial_type":"mars","trial_index":4,"time_elapsed":90348,"internal_node_id":"0.0-2.2-0.2"},{"stimulus":"../static/img/practice/pt2_M1.png","correct":0,"choice":0,"accuracy":1,"rt":21460.000000020955,"item_set":"practice","trial_type":"mars","trial_index":5,"time_elapsed":113809,"internal_node_id":"0.0-3.0-0.0"},{"stimulus":"../static/img/practice/pt3_M1.png","correct":0,"choice":0,"accuracy":1,"rt":6852.000000013504,"item_set":"practice","trial_type":"mars","trial_index":6,"time_elapsed":122663,"internal_node_id":"0.0-4.0-0.0"},{"view_history":[{"page_index":0,"viewing_time":18755.000000004657},{"page_index":1,"viewing_time":1861.0000000044238}],"rt":20616.00000000908,"trial_type":"instructions","trial_index":7,"time_elapsed":143280,"internal_node_id":"0.0-5.0"},{"stimulus":"../static/img/is3/tf1/tf1_1_M_ss3.jpeg","correct":0,"choice":0,"accuracy":1,"rt":9174.999999988358,"item_set":3,"test_form":1,"distractor":"pd","trial_type":"mars","trial_index":8,"time_elapsed":153211,"internal_node_id":"0.0-6.0"},{"stimulus":"../static/img/is3/tf1/tf1_6_M_ss2.jpeg","correct":0,"choice":1,"accuracy":0,"rt":18268.000000010943,"item_set":3,"test_form":1,"distractor":"pd","trial_type":"mars","trial_index":9,"time_elapsed":172231,"internal_node_id":"0.0-7.0"},{"stimulus":"../static/img/is3/tf1/tf1_15_M_ss2.jpeg","correct":0,"choice":null,"accuracy":null,"rt":null,"item_set":3,"test_form":1,"distractor":"pd","trial_type":"mars","trial_index":10,"time_elapsed":202233,"internal_node_id":"0.0-8.0"},{"stimulus":"../static/img/is3/tf1/tf1_10_M_ss3.jpeg","correct":0,"choice":null,"accuracy":null,"rt":null,"item_set":3,"test_form":1,"distractor":"pd","trial_type":"mars","trial_index":11,"time_elapsed":232233,"internal_node_id":"0.0-9.0"},{"stimulus":"../static/img/is3/tf1/tf1_12_M_ss2.jpeg","correct":0,"choice":3,"accuracy":0,"rt":27402.000000001863,"item_set":3,"test_form":1,"distractor":"pd","trial_type":"mars","trial_index":12,"time_elapsed":260387,"internal_node_id":"0.0-10.0"},{"stimulus":"../static/img/is3/tf1/tf1_23_M_ss1.jpeg","correct":0,"choice":1,"accuracy":0,"rt":3625,"item_set":3,"test_form":1,"distractor":"pd","trial_type":"mars","trial_index":13,"time_elapsed":264764,"internal_node_id":"0.0-11.0"},{"stimulus":"../static/img/is3/tf1/tf1_14_M_ss1.jpeg","correct":0,"choice":0,"accuracy":1,"rt":4247.000000003027,"item_set":3,"test_form":1,"distractor":"pd","trial_type":"mars","trial_index":14,"time_elapsed":269761,"internal_node_id":"0.0-12.0"},{"stimulus":"../static/img/is3/tf1/tf1_26_M_ss1.jpeg","correct":0,"choice":3,"accuracy":0,"rt":6871.000000013737,"item_set":3,"test_form":1,"distractor":"pd","trial_type":"mars","trial_index":15,"time_elapsed":277385,"internal_node_id":"0.0-13.0","interactions":"[]"}]