[{"rt":9384.174999999232,"responses":{"age":"39","gender-categorical":"Male","gender-free-response":"","ethnicity":"Not Hispanic or Latino","race":["White"],"education":"Associate degree"},"trial_type":"survey-demo","trial_index":0,"time_elapsed":9387,"internal_node_id":"0.0-0.0"},{"view_history":[{"page_index":0,"viewing_time":5447.155000001658},{"page_index":1,"viewing_time":11648.549999998068},{"page_index":2,"viewing_time":2487.0850000006612}],"rt":19583.64499999152,"trial_type":"instructions","trial_index":1,"time_elapsed":29389,"internal_node_id":"0.0-1.0"},{"stimulus":"../static/img/practice/pt1_M1.png","correct":0,"choice":1,"accuracy":0,"rt":5576.715000002878,"item_set":"practice","trial_type":"mars","trial_index":2,"time_elapsed":36967,"internal_node_id":"0.0-2.0-0.0"},{"stimulus":"../static/img/practice/pt1_M1.png","correct":0,"choice":2,"accuracy":0,"rt":7429.375000006985,"item_set":"practice","trial_type":"mars","trial_index":3,"time_elapsed":46399,"internal_node_id":"0.0-2.1-0.1"},{"stimulus":"../static/img/practice/pt1_M1.png","correct":0,"choice":0,"accuracy":1,"rt":2154.049999997369,"item_set":"practice","trial_type":"mars","trial_index":4,"time_elapsed":50555,"internal_node_id":"0.0-2.2-0.2"},{"stimulus":"../static/img/practice/pt2_M1.png","correct":0,"choice":0,"accuracy":1,"rt":3767.115000009653,"item_set":"practice","trial_type":"mars","trial_index":5,"time_elapsed":56324,"internal_node_id":"0.0-3.0-0.0"},{"stimulus":"../static/img/practice/pt3_M1.png","correct":0,"choice":0,"accuracy":1,"rt":1875.4950000002282,"item_set":"practice","trial_type":"mars","trial_index":6,"time_elapsed":60201,"internal_node_id":"0.0-4.0-0.0"},{"view_history":[{"page_index":0,"viewing_time":1622.4050000018906},{"page_index":1,"viewing_time":5053.549999996903}],"rt":6676.204999996116,"trial_type":"instructions","trial_index":7,"time_elapsed":66877,"internal_node_id":"0.0-5.0"},{"stimulus":"../static/img/is3/tf1/tf1_19_M_ss3.jpeg","correct":0,"choice":2,"accuracy":0,"rt":1953.8400000019465,"item_set":3,"test_form":1,"distractor":"pd","trial_type":"mars","trial_index":8,"time_elapsed":69582,"internal_node_id":"0.0-6.0"},{"stimulus":"../static/img/is3/tf1/tf1_20_M_ss1.jpeg","correct":0,"choice":3,"accuracy":0,"rt":6559.009999997215,"item_set":3,"test_form":1,"distractor":"pd","trial_type":"mars","trial_index":9,"time_elapsed":76893,"internal_node_id":"0.0-7.0"},{"stimulus":"../static/img/is3/tf1/tf1_15_M_ss2.jpeg","correct":0,"choice":0,"accuracy":1,"rt":5716.415000002598,"item_set":3,"test_form":1,"distractor":"pd","trial_type":"mars","trial_index":10,"time_elapsed":83361,"internal_node_id":"0.0-8.0"},{"stimulus":"../static/img/is3/tf1/tf1_10_M_ss3.jpeg","correct":0,"choice":1,"accuracy":0,"rt":8807.0149999985,"item_set":3,"test_form":1,"distractor":"pd","trial_type":"mars","trial_index":11,"time_elapsed":93331,"internal_node_id":"0.0-9.0"},{"stimulus":"../static/img/is3/tf1/tf1_12_M_ss2.jpeg","correct":0,"choice":1,"accuracy":0,"rt":6368.0549999990035,"item_set":3,"test_form":1,"distractor":"pd","trial_type":"mars","trial_index":12,"time_elapsed":100451,"internal_node_id":"0.0-10.0"},{"stimulus":"../static/img/is3/tf1/tf1_23_M_ss1.jpeg","correct":0,"choice":3,"accuracy":0,"rt":4770.489999995334,"item_set":3,"test_form":1,"distractor":"pd","trial_type":"mars","trial_index":13,"time_elapsed":105973,"internal_node_id":"0.0-11.0"},{"stimulus":"../static/img/is3/tf1/tf1_14_M_ss1.jpeg","correct":0,"choice":2,"accuracy":0,"rt":6686.154999988503,"item_set":3,"test_form":1,"distractor":"pd","trial_type":"mars","trial_index":14,"time_elapsed":113411,"internal_node_id":"0.0-12.0"},{"stimulus":"../static/img/is3/tf1/tf1_26_M_ss1.jpeg","correct":0,"choice":1,"accuracy":0,"rt":4683.319999996456,"item_set":3,"test_form":1,"distractor":"pd","trial_type":"mars","trial_index":15,"time_elapsed":118846,"internal_node_id":"0.0-13.0","interactions":"[]"}]