[{"rt":14104.460000060499,"responses":{"age":"36","gender-categorical":"Female","gender-free-response":"","ethnicity":"Not Hispanic or Latino","race":["Asian"],"education":"Bachelor degree"},"trial_type":"survey-demo","trial_index":0,"time_elapsed":14110,"internal_node_id":"0.0-0.0"},{"view_history":[{"page_index":0,"viewing_time":7872.179999947548},{"page_index":1,"viewing_time":18073.959999950603},{"page_index":2,"viewing_time":1839.7750000003725}],"rt":27787.04999992624,"trial_type":"instructions","trial_index":1,"time_elapsed":41901,"internal_node_id":"0.0-1.0"},{"stimulus":"../static/img/practice/pt1_M1.png","correct":0,"choice":0,"accuracy":1,"rt":2812.9700000863522,"item_set":"practice","trial_type":"mars","trial_index":2,"time_elapsed":46716,"internal_node_id":"0.0-2.0-0.0"},{"stimulus":"../static/img/practice/pt2_M1.png","correct":0,"choice":0,"accuracy":1,"rt":2979.1299998760223,"item_set":"practice","trial_type":"mars","trial_index":3,"time_elapsed":51701,"internal_node_id":"0.0-3.0-0.0"},{"stimulus":"../static/img/practice/pt3_M1.png","correct":0,"choice":0,"accuracy":1,"rt":2387.330000055954,"item_set":"practice","trial_type":"mars","trial_index":4,"time_elapsed":56093,"internal_node_id":"0.0-4.0-0.0"},{"view_history":[{"page_index":0,"viewing_time":3129.3649999424815},{"page_index":1,"viewing_time":1465.8150000032037}],"rt":4595.414999872446,"trial_type":"instructions","trial_index":5,"time_elapsed":60691,"internal_node_id":"0.0-5.0"},{"stimulus":"../static/img/is3/tf1/tf1_1_M_ss3.jpeg","correct":0,"choice":0,"accuracy":1,"rt":1793.3400000911206,"item_set":3,"test_form":1,"distractor":"pd","trial_type":"mars","trial_index":6,"time_elapsed":63236,"internal_node_id":"0.0-6.0"},{"stimulus":"../static/img/is3/tf1/tf1_6_M_ss2.jpeg","correct":0,"choice":1,"accuracy":0,"rt":3847.98499988392,"item_set":3,"test_form":1,"distractor":"pd","trial_type":"mars","trial_index":7,"time_elapsed":67837,"internal_node_id":"0.0-7.0"},{"stimulus":"../static/img/is3/tf1/tf1_15_M_ss2.jpeg","correct":0,"choice":0,"accuracy":1,"rt":7882.385000120848,"item_set":3,"test_form":1,"distractor":"pd","trial_type":"mars","trial_index":8,"time_elapsed":76474,"internal_node_id":"0.0-8.0"},{"stimulus":"../static/img/is3/tf1/tf1_10_M_ss3.jpeg","correct":0,"choice":0,"accuracy":1,"rt":5284.895000047982,"item_set":3,"test_form":1,"distractor":"pd","trial_type":"mars","trial_index":9,"time_elapsed":82512,"internal_node_id":"0.0-9.0"},{"stimulus":"../static/img/is3/tf1/tf1_12_M_ss2.jpeg","correct":0,"choice":3,"accuracy":0,"rt":4209.965000161901,"item_set":3,"test_form":1,"distractor":"pd","trial_type":"mars","trial_index":10,"time_elapsed":87482,"internal_node_id":"0.0-10.0"},{"stimulus":"../static/img/is3/tf1/tf1_23_M_ss1.jpeg","correct":0,"choice":0,"accuracy":1,"rt":6515.790000092238,"item_set":3,"test_form":1,"distractor":"pd","trial_type":"mars","trial_index":11,"time_elapsed":94752,"internal_node_id":"0.0-11.0"},{"stimulus":"../static/img/is3/tf1/tf1_52_M_ss3.jpeg","correct":0,"choice":0,"accuracy":1,"rt":6967.345000011846,"item_set":3,"test_form":1,"distractor":"pd","trial_type":"mars","trial_index":12,"time_elapsed":102482,"internal_node_id":"0.0-12.0"},{"stimulus":"../static/img/is3/tf1/tf1_59_M_ss1.jpeg","correct":0,"choice":0,"accuracy":1,"rt":5400.239999871701,"item_set":3,"test_form":1,"distractor":"pd","trial_type":"mars","trial_index":13,"time_elapsed":108638,"internal_node_id":"0.0-13.0","interactions":"[{\"event\":\"blur\",\"trial\":0,\"time\":334},{\"event\":\"focus\",\"trial\":0,\"time\":2940},{\"event\":\"blur\",\"trial\":0,\"time\":7022},{\"event\":\"focus\",\"trial\":0,\"time\":8534},{\"event\":\"blur\",\"trial\":0,\"time\":10445},{\"event\":\"focus\",\"trial\":0,\"time\":11943},{\"event\":\"blur\",\"trial\":1,\"time\":16566},{\"event\":\"focus\",\"trial\":1,\"time\":18061},{\"event\":\"blur\",\"trial\":1,\"time\":24572},{\"event\":\"focus\",\"trial\":1,\"time\":39353},{\"event\":\"blur\",\"trial\":5,\"time\":57145},{\"event\":\"focus\",\"trial\":5,\"time\":58492}]"}]