[{"rt":391342.2799999971,"responses":{"age":"29","gender-categorical":"Male","gender-free-response":"","ethnicity":"Not Hispanic or Latino","race":["White"],"education":"High school"},"trial_type":"survey-demo","trial_index":0,"time_elapsed":391344,"internal_node_id":"0.0-0.0"},{"view_history":[{"page_index":0,"viewing_time":4290.345000001253},{"page_index":1,"viewing_time":2901.835000004212},{"page_index":2,"viewing_time":1426.0449999928824}],"rt":8618.755000003148,"trial_type":"instructions","trial_index":1,"time_elapsed":399964,"internal_node_id":"0.0-1.0"},{"stimulus":"../static/img/practice/pt1_M1.png","correct":0,"choice":1,"accuracy":0,"rt":4522.140000000945,"item_set":"practice","trial_type":"mars","trial_index":2,"time_elapsed":406488,"internal_node_id":"0.0-2.0-0.0"},{"stimulus":"../static/img/practice/pt1_M1.png","correct":0,"choice":0,"accuracy":1,"rt":5132.570000001579,"item_set":"practice","trial_type":"mars","trial_index":3,"time_elapsed":413622,"internal_node_id":"0.0-2.1-0.1"},{"stimulus":"../static/img/practice/pt2_M1.png","correct":0,"choice":0,"accuracy":1,"rt":2316.3100000019767,"item_set":"practice","trial_type":"mars","trial_index":4,"time_elapsed":417940,"internal_node_id":"0.0-3.0-0.0"},{"stimulus":"../static/img/practice/pt3_M1.png","correct":0,"choice":0,"accuracy":1,"rt":1956.0349999956088,"item_set":"practice","trial_type":"mars","trial_index":5,"time_elapsed":421897,"internal_node_id":"0.0-4.0-0.0"},{"view_history":[{"page_index":0,"viewing_time":1211.0150000007707},{"page_index":1,"viewing_time":776.014999995823}],"rt":1987.1899999998277,"trial_type":"instructions","trial_index":6,"time_elapsed":423884,"internal_node_id":"0.0-5.0"},{"stimulus":"../static/img/is3/tf1/tf1_19_M_ss3.jpeg","correct":0,"choice":0,"accuracy":1,"rt":6628.360000002431,"item_set":3,"test_form":1,"distractor":"pd","trial_type":"mars","trial_index":7,"time_elapsed":431264,"internal_node_id":"0.0-6.0"},{"stimulus":"../static/img/is3/tf1/tf1_20_M_ss1.jpeg","correct":0,"choice":1,"accuracy":0,"rt":11226.75000000163,"item_set":3,"test_form":1,"distractor":"pd","trial_type":"mars","trial_index":8,"time_elapsed":443242,"internal_node_id":"0.0-7.0"},{"stimulus":"../static/img/is3/tf1/tf1_15_M_ss2.jpeg","correct":0,"choice":2,"accuracy":0,"rt":23046.71000000235,"item_set":3,"test_form":1,"distractor":"pd","trial_type":"mars","trial_index":9,"time_elapsed":467040,"internal_node_id":"0.0-8.0"},{"stimulus":"../static/img/is3/tf1/tf1_10_M_ss3.jpeg","correct":0,"choice":1,"accuracy":0,"rt":2635.9749999974156,"item_set":3,"test_form":1,"distractor":"pd","trial_type":"mars","trial_index":10,"time_elapsed":470427,"internal_node_id":"0.0-9.0"},{"stimulus":"../static/img/is3/tf1/tf1_16_M_ss3.jpeg","correct":0,"choice":1,"accuracy":0,"rt":1611.04499999783,"item_set":3,"test_form":1,"distractor":"pd","trial_type":"mars","trial_index":11,"time_elapsed":472789,"internal_node_id":"0.0-10.0"},{"stimulus":"../static/img/is3/tf1/tf1_17_M_ss1.jpeg","correct":0,"choice":0,"accuracy":1,"rt":1154.8899999979767,"item_set":3,"test_form":1,"distractor":"pd","trial_type":"mars","trial_index":12,"time_elapsed":474695,"internal_node_id":"0.0-11.0"},{"stimulus":"../static/img/is3/tf1/tf1_14_M_ss1.jpeg","correct":0,"choice":3,"accuracy":0,"rt":7214.099999997416,"item_set":3,"test_form":1,"distractor":"pd","trial_type":"mars","trial_index":13,"time_elapsed":482660,"internal_node_id":"0.0-12.0"},{"stimulus":"../static/img/is3/tf1/tf1_26_M_ss1.jpeg","correct":0,"choice":3,"accuracy":0,"rt":7563.300000001618,"item_set":3,"test_form":1,"distractor":"pd","trial_type":"mars","trial_index":14,"time_elapsed":490975,"internal_node_id":"0.0-13.0","interactions":"[{\"event\":\"blur\",\"trial\":0,\"time\":4373},{\"event\":\"focus\",\"trial\":0,\"time\":24056},{\"event\":\"blur\",\"trial\":0,\"time\":24214},{\"event\":\"focus\",\"trial\":0,\"time\":383073},{\"event\":\"blur\",\"trial\":0,\"time\":383644},{\"event\":\"focus\",\"trial\":0,\"time\":385241}]"}]