subject,trial,item_set,item,distractor,shape_set,choice,accuracy,rt,all_loaded,minimum_resolution,browser_interactions
00p7ea3ni73o5a0efu339u44,1,3,71,pd,1,2.0,0.0,9.543,1,1,0.0
00p7ea3ni73o5a0efu339u44,2,3,55,pd,2,0.0,1.0,12.729,1,1,0.0
00p7ea3ni73o5a0efu339u44,3,3,30,pd,3,0.0,1.0,8.624,1,1,0.0
00p7ea3ni73o5a0efu339u44,4,3,45,pd,1,2.0,0.0,8.977,1,1,0.0
00p7ea3ni73o5a0efu339u44,5,3,11,pd,2,3.0,0.0,8.217,1,1,0.0
00p7ea3ni73o5a0efu339u44,6,3,29,pd,3,0.0,1.0,11.289,1,1,0.0
00p7ea3ni73o5a0efu339u44,7,3,16,md,1,0.0,1.0,12.538,1,1,0.0
00p7ea3ni73o5a0efu339u44,8,3,17,pd,2,1.0,0.0,14.196,1,1,0.0
00p7ea3ni73o5a0efu339u44,9,3,23,md,3,0.0,1.0,10.92,1,1,0.0
00p7ea3ni73o5a0efu339u44,10,3,58,md,1,0.0,1.0,10.322,1,1,0.0
00p7ea3ni73o5a0efu339u44,11,3,35,pd,2,0.0,1.0,10.344,1,1,0.0
00p7ea3ni73o5a0efu339u44,12,3,76,pd,3,1.0,0.0,8.466,1,1,0.0
06ou7ksixe715ntgqusjzfip,1,3,71,pd,2,2.0,0.0,14.06,1,1,0.0
06ou7ksixe715ntgqusjzfip,2,3,55,pd,3,0.0,1.0,18.586,1,1,0.0
06ou7ksixe715ntgqusjzfip,3,3,30,pd,1,0.0,1.0,21.19,1,1,0.0
06ou7ksixe715ntgqusjzfip,4,3,45,pd,2,,,,1,1,0.0
06ou7ksixe715ntgqusjzfip,5,3,11,pd,3,0.0,1.0,12.337,1,1,0.0
06ou7ksixe715ntgqusjzfip,6,3,29,pd,1,3.0,0.0,11.326,1,1,0.0
06ou7ksixe715ntgqusjzfip,7,3,16,md,2,1.0,0.0,12.383,1,1,0.0
06ou7ksixe715ntgqusjzfip,8,3,17,pd,3,1.0,0.0,15.722,1,1,0.0
06ou7ksixe715ntgqusjzfip,9,3,23,md,1,0.0,1.0,13.225,1,1,0.0
06ou7ksixe715ntgqusjzfip,10,3,58,md,2,3.0,0.0,8.221,1,1,0.0
06ou7ksixe715ntgqusjzfip,11,3,35,pd,3,0.0,1.0,17.427,1,1,0.0
06ou7ksixe715ntgqusjzfip,12,3,76,pd,1,0.0,1.0,12.729,1,1,0.0
0b408y6ddb6n2hktu87ws0vf,1,3,71,pd,3,0.0,1.0,7.261,1,1,0.0
0b408y6ddb6n2hktu87ws0vf,2,3,55,pd,1,0.0,1.0,16.06,1,1,0.0
0b408y6ddb6n2hktu87ws0vf,3,3,30,pd,2,2.0,0.0,24.861,1,1,0.0
0b408y6ddb6n2hktu87ws0vf,4,3,45,pd,3,0.0,1.0,14.109,1,1,0.0
0b408y6ddb6n2hktu87ws0vf,5,3,11,pd,1,3.0,0.0,10.988,1,1,0.0
0b408y6ddb6n2hktu87ws0vf,6,3,29,pd,2,3.0,0.0,19.25,1,1,0.0
0b408y6ddb6n2hktu87ws0vf,7,3,16,md,3,0.0,1.0,18.381,1,1,0.0
0b408y6ddb6n2hktu87ws0vf,8,3,17,pd,1,0.0,1.0,28.716,1,1,0.0
0b408y6ddb6n2hktu87ws0vf,9,3,23,md,2,2.0,0.0,9.811,1,1,0.0
0b408y6ddb6n2hktu87ws0vf,10,3,58,md,3,3.0,0.0,12.66,1,1,0.0
0b408y6ddb6n2hktu87ws0vf,11,3,35,pd,1,2.0,0.0,15.124,1,1,0.0
0b408y6ddb6n2hktu87ws0vf,12,3,76,pd,2,0.0,1.0,15.964,1,1,0.0
0f2j9hnujo2cudr4oscws8xf,1,3,71,pd,3,0.0,1.0,8.046,1,1,0.0
0f2j9hnujo2cudr4oscws8xf,2,3,55,pd,1,0.0,1.0,4.59,1,1,0.0
0f2j9hnujo2cudr4oscws8xf,3,3,30,pd,2,0.0,1.0,19.467,1,1,0.0
0f2j9hnujo2cudr4oscws8xf,4,3,45,pd,3,0.0,1.0,10.027,1,1,0.0
0f2j9hnujo2cudr4oscws8xf,5,3,11,pd,1,3.0,0.0,9.489,1,1,0.0
0f2j9hnujo2cudr4oscws8xf,6,3,29,pd,2,0.0,1.0,13.999,1,1,0.0
0f2j9hnujo2cudr4oscws8xf,7,3,16,md,3,0.0,1.0,12.556,1,1,0.0
0f2j9hnujo2cudr4oscws8xf,8,3,17,pd,1,0.0,1.0,14.012,1,1,0.0
0f2j9hnujo2cudr4oscws8xf,9,3,23,md,2,0.0,1.0,5.603,1,1,0.0
0f2j9hnujo2cudr4oscws8xf,10,3,58,md,3,0.0,1.0,15.228,1,1,0.0
0f2j9hnujo2cudr4oscws8xf,11,3,35,pd,1,0.0,1.0,11.537,1,1,0.0
0f2j9hnujo2cudr4oscws8xf,12,3,76,pd,2,0.0,1.0,14.36,1,1,0.0
0fn46b0vpigmdhpkswfb0mye,1,3,71,pd,2,0.0,1.0,9.253,1,1,0.0
0fn46b0vpigmdhpkswfb0mye,2,3,55,pd,3,0.0,1.0,26.348,1,1,0.0
0fn46b0vpigmdhpkswfb0mye,3,3,30,pd,1,0.0,1.0,16.907,1,1,0.0
0fn46b0vpigmdhpkswfb0mye,4,3,45,pd,2,0.0,1.0,29.213,1,1,0.0
0fn46b0vpigmdhpkswfb0mye,5,3,11,pd,3,0.0,1.0,22.556,1,1,0.0
0fn46b0vpigmdhpkswfb0mye,6,3,29,pd,1,0.0,1.0,26.804,1,1,0.0
0fn46b0vpigmdhpkswfb0mye,7,3,16,md,2,0.0,1.0,20.492,1,1,0.0
0fn46b0vpigmdhpkswfb0mye,8,3,17,pd,3,0.0,1.0,23.708,1,1,0.0
0fn46b0vpigmdhpkswfb0mye,9,3,23,md,1,0.0,1.0,17.06,1,1,0.0
0fn46b0vpigmdhpkswfb0mye,10,3,58,md,2,0.0,1.0,20.524,1,1,0.0
0fn46b0vpigmdhpkswfb0mye,11,3,35,pd,3,1.0,0.0,29.429,1,1,0.0
0fn46b0vpigmdhpkswfb0mye,12,3,76,pd,1,0.0,1.0,26.508,1,1,0.0
0hl5k6dw9a2hun024rqfhkg0,1,3,71,pd,2,2.0,0.0,4.393,1,1,0.0
0hl5k6dw9a2hun024rqfhkg0,2,3,55,pd,3,0.0,1.0,10.618,1,1,0.0
0hl5k6dw9a2hun024rqfhkg0,3,3,30,pd,1,3.0,0.0,17.315,1,1,0.0
0hl5k6dw9a2hun024rqfhkg0,4,3,45,pd,2,0.0,1.0,12.534,1,1,0.0
0hl5k6dw9a2hun024rqfhkg0,5,3,11,pd,3,0.0,1.0,9.114,1,1,0.0
0hl5k6dw9a2hun024rqfhkg0,6,3,29,pd,1,0.0,1.0,11.485,1,1,0.0
0hl5k6dw9a2hun024rqfhkg0,7,3,16,md,2,1.0,0.0,7.976,1,1,0.0
0hl5k6dw9a2hun024rqfhkg0,8,3,17,pd,3,1.0,0.0,26.893,1,1,0.0
0hl5k6dw9a2hun024rqfhkg0,9,3,23,md,1,0.0,1.0,8.654,1,1,0.0
0hl5k6dw9a2hun024rqfhkg0,10,3,58,md,2,0.0,1.0,6.131,1,1,0.0
0hl5k6dw9a2hun024rqfhkg0,11,3,35,pd,3,,,,1,1,0.0
0hl5k6dw9a2hun024rqfhkg0,12,3,76,pd,1,3.0,0.0,14.679,1,1,0.0
0m0dkmh3y3hksejvcy3w0f3v,1,3,71,pd,2,0.0,1.0,15.539,1,1,0.0
0m0dkmh3y3hksejvcy3w0f3v,2,3,55,pd,3,3.0,0.0,29.832,1,1,0.0
0m0dkmh3y3hksejvcy3w0f3v,3,3,30,pd,1,0.0,1.0,29.853,1,1,0.0
0m0dkmh3y3hksejvcy3w0f3v,4,3,45,pd,2,0.0,1.0,21.998,1,1,0.0
0m0dkmh3y3hksejvcy3w0f3v,5,3,11,pd,3,0.0,1.0,29.945,1,1,0.0
0m0dkmh3y3hksejvcy3w0f3v,6,3,29,pd,1,0.0,1.0,20.233,1,1,0.0
0m0dkmh3y3hksejvcy3w0f3v,7,3,16,md,2,,,,1,1,0.0
0m0dkmh3y3hksejvcy3w0f3v,8,3,17,pd,3,1.0,0.0,29.828,1,1,0.0
0m0dkmh3y3hksejvcy3w0f3v,9,3,23,md,1,0.0,1.0,20.362,1,1,0.0
0m0dkmh3y3hksejvcy3w0f3v,10,3,58,md,2,0.0,1.0,17.162,1,1,0.0
0m0dkmh3y3hksejvcy3w0f3v,11,3,35,pd,3,1.0,0.0,29.828,1,1,0.0
0m0dkmh3y3hksejvcy3w0f3v,12,3,76,pd,1,0.0,1.0,27.859,1,1,0.0
0mlu30hyg9soc2ma9kbu4wya,1,3,71,pd,2,2.0,0.0,3.665,1,1,0.0
0mlu30hyg9soc2ma9kbu4wya,2,3,55,pd,1,0.0,1.0,5.298,1,1,0.0
0mlu30hyg9soc2ma9kbu4wya,3,3,30,pd,2,0.0,1.0,5.387,1,1,0.0
0mlu30hyg9soc2ma9kbu4wya,4,3,45,pd,2,2.0,0.0,5.37,1,1,0.0
0mlu30hyg9soc2ma9kbu4wya,5,3,11,pd,1,2.0,0.0,5.437,1,1,0.0
0mlu30hyg9soc2ma9kbu4wya,6,3,29,pd,2,0.0,1.0,3.938,1,1,0.0
0mlu30hyg9soc2ma9kbu4wya,7,3,16,md,2,0.0,1.0,4.072,1,1,0.0
0mlu30hyg9soc2ma9kbu4wya,8,3,17,pd,3,0.0,1.0,3.571,1,1,0.0
0mlu30hyg9soc2ma9kbu4wya,9,3,23,md,2,0.0,1.0,4.476,1,1,0.0
0mlu30hyg9soc2ma9kbu4wya,10,3,58,md,2,2.0,0.0,3.915,1,1,0.0
0mlu30hyg9soc2ma9kbu4wya,11,3,35,pd,1,0.0,1.0,3.377,1,1,0.0
0mlu30hyg9soc2ma9kbu4wya,12,3,76,pd,2,2.0,0.0,3.012,1,1,0.0
0ooro3jk4ibd1vfcxixjsuwo,1,3,71,pd,1,0.0,1.0,8.968,1,1,0.0
0ooro3jk4ibd1vfcxixjsuwo,2,3,55,pd,2,0.0,1.0,9.115,1,1,0.0
0ooro3jk4ibd1vfcxixjsuwo,3,3,30,pd,3,0.0,1.0,12.433,1,1,0.0
0ooro3jk4ibd1vfcxixjsuwo,4,3,45,pd,1,0.0,1.0,9.524,1,1,0.0
0ooro3jk4ibd1vfcxixjsuwo,5,3,11,pd,2,0.0,1.0,11.05,1,1,0.0
0ooro3jk4ibd1vfcxixjsuwo,6,3,29,pd,3,0.0,1.0,8.199,1,1,0.0
0ooro3jk4ibd1vfcxixjsuwo,7,3,16,md,1,0.0,1.0,10.289,1,1,0.0
0ooro3jk4ibd1vfcxixjsuwo,8,3,17,pd,2,2.0,0.0,12.687,1,1,0.0
0ooro3jk4ibd1vfcxixjsuwo,9,3,23,md,3,0.0,1.0,14.29,1,1,0.0
0ooro3jk4ibd1vfcxixjsuwo,10,3,58,md,1,0.0,1.0,12.617,1,1,0.0
0ooro3jk4ibd1vfcxixjsuwo,11,3,35,pd,2,3.0,0.0,17.462,1,1,0.0
0ooro3jk4ibd1vfcxixjsuwo,12,3,76,pd,3,3.0,0.0,15.041,1,1,0.0
0op0oetv9pqxgoerv8rypvic,1,3,71,pd,2,0.0,1.0,14.994,1,1,0.0
0op0oetv9pqxgoerv8rypvic,2,3,55,pd,3,0.0,1.0,26.992,1,1,0.0
0op0oetv9pqxgoerv8rypvic,3,3,30,pd,2,0.0,1.0,18.016,1,1,0.0
0op0oetv9pqxgoerv8rypvic,4,3,45,pd,2,0.0,1.0,15.094,1,1,0.0
0op0oetv9pqxgoerv8rypvic,5,3,11,pd,1,0.0,1.0,19.595,1,1,0.0
0op0oetv9pqxgoerv8rypvic,6,3,29,pd,2,0.0,1.0,16.729,1,1,0.0
0op0oetv9pqxgoerv8rypvic,7,3,16,md,2,0.0,1.0,12.016,1,1,0.0
0op0oetv9pqxgoerv8rypvic,8,3,17,pd,1,0.0,1.0,15.106,1,1,0.0
0op0oetv9pqxgoerv8rypvic,9,3,23,md,2,0.0,1.0,17.448,1,1,0.0
0op0oetv9pqxgoerv8rypvic,10,3,58,md,2,0.0,1.0,16.984,1,1,0.0
0op0oetv9pqxgoerv8rypvic,11,3,35,pd,3,0.0,1.0,28.18,1,1,0.0
0op0oetv9pqxgoerv8rypvic,12,3,76,pd,2,0.0,1.0,9.592,1,1,0.0
0q10tq8kaq3aegf7c03e4s9t,1,3,71,pd,2,0.0,1.0,13.758,1,1,0.0
0q10tq8kaq3aegf7c03e4s9t,2,3,55,pd,3,0.0,1.0,27.983,1,1,0.0
0q10tq8kaq3aegf7c03e4s9t,3,3,30,pd,1,0.0,1.0,23.136,1,1,0.0
0q10tq8kaq3aegf7c03e4s9t,4,3,45,pd,2,0.0,1.0,16.504,1,1,0.0
0q10tq8kaq3aegf7c03e4s9t,5,3,11,pd,3,0.0,1.0,16.037,1,1,0.0
0q10tq8kaq3aegf7c03e4s9t,6,3,29,pd,1,0.0,1.0,16.445,1,1,0.0
0q10tq8kaq3aegf7c03e4s9t,7,3,16,md,2,0.0,1.0,14.908,1,1,0.0
0q10tq8kaq3aegf7c03e4s9t,8,3,17,pd,3,1.0,0.0,27.77,1,1,0.0
0q10tq8kaq3aegf7c03e4s9t,9,3,23,md,1,0.0,1.0,14.234,1,1,0.0
0q10tq8kaq3aegf7c03e4s9t,10,3,58,md,2,0.0,1.0,24.765,1,1,0.0
0q10tq8kaq3aegf7c03e4s9t,11,3,35,pd,3,0.0,1.0,18.418,1,1,0.0
0q10tq8kaq3aegf7c03e4s9t,12,3,76,pd,1,0.0,1.0,27.981,1,1,0.0
0r0rukhznftdhj8ks4dd3eps,1,3,71,pd,1,0.0,1.0,8.457,1,1,0.0
0r0rukhznftdhj8ks4dd3eps,2,3,55,pd,2,0.0,1.0,7.866,1,1,0.0
0r0rukhznftdhj8ks4dd3eps,3,3,30,pd,3,3.0,0.0,12.762,1,1,0.0
0r0rukhznftdhj8ks4dd3eps,4,3,45,pd,1,3.0,0.0,29.799,1,1,0.0
0r0rukhznftdhj8ks4dd3eps,5,3,11,pd,2,2.0,0.0,21.412,1,1,0.0
0r0rukhznftdhj8ks4dd3eps,6,3,29,pd,3,3.0,0.0,16.774,1,1,0.0
0r0rukhznftdhj8ks4dd3eps,7,3,16,md,1,3.0,0.0,19.457,1,1,0.0
0r0rukhznftdhj8ks4dd3eps,8,3,17,pd,2,0.0,1.0,14.181,1,1,0.0
0r0rukhznftdhj8ks4dd3eps,9,3,23,md,3,0.0,1.0,13.561,1,1,0.0
0r0rukhznftdhj8ks4dd3eps,10,3,58,md,1,1.0,0.0,20.855,1,1,0.0
0r0rukhznftdhj8ks4dd3eps,11,3,35,pd,2,3.0,0.0,15.864,1,1,0.0
0r0rukhznftdhj8ks4dd3eps,12,3,76,pd,3,0.0,1.0,12.234,1,1,0.0
0t5mn64j5jt6u4we3vt8erqk,1,3,71,pd,2,2.0,0.0,3.838,1,1,0.0
0t5mn64j5jt6u4we3vt8erqk,2,3,55,pd,3,0.0,1.0,21.411,1,1,0.0
0t5mn64j5jt6u4we3vt8erqk,3,3,30,pd,1,3.0,0.0,16.296,1,1,0.0
0t5mn64j5jt6u4we3vt8erqk,4,3,45,pd,2,0.0,1.0,8.887,1,1,0.0
0t5mn64j5jt6u4we3vt8erqk,5,3,11,pd,3,3.0,0.0,11.392,1,1,0.0
0t5mn64j5jt6u4we3vt8erqk,6,3,29,pd,1,0.0,1.0,20.943,1,1,0.0
0t5mn64j5jt6u4we3vt8erqk,7,3,16,md,2,0.0,1.0,13.231,1,1,0.0
0t5mn64j5jt6u4we3vt8erqk,8,3,17,pd,3,0.0,1.0,28.815,1,1,0.0
0t5mn64j5jt6u4we3vt8erqk,9,3,23,md,1,0.0,1.0,17.496,1,1,0.0
0t5mn64j5jt6u4we3vt8erqk,10,3,58,md,2,0.0,1.0,23.278,1,1,0.0
0t5mn64j5jt6u4we3vt8erqk,11,3,35,pd,3,0.0,1.0,27.736,1,1,0.0
0t5mn64j5jt6u4we3vt8erqk,12,3,76,pd,1,2.0,0.0,25.904,1,1,0.0
0yqtbatep0wrry0r6bz2be5j,1,3,71,pd,3,0.0,1.0,9.936,1,1,0.0
0yqtbatep0wrry0r6bz2be5j,2,3,55,pd,1,0.0,1.0,9.568,1,1,0.0
0yqtbatep0wrry0r6bz2be5j,3,3,30,pd,2,0.0,1.0,15.778,1,1,0.0
0yqtbatep0wrry0r6bz2be5j,4,3,45,pd,3,3.0,0.0,10.289,1,1,0.0
0yqtbatep0wrry0r6bz2be5j,5,3,11,pd,1,0.0,1.0,16.329,1,1,0.0
0yqtbatep0wrry0r6bz2be5j,6,3,29,pd,2,0.0,1.0,14.072,1,1,0.0
0yqtbatep0wrry0r6bz2be5j,7,3,16,md,3,0.0,1.0,20.682,1,1,0.0
0yqtbatep0wrry0r6bz2be5j,8,3,17,pd,1,0.0,1.0,15.13,1,1,0.0
0yqtbatep0wrry0r6bz2be5j,9,3,23,md,2,0.0,1.0,17.259,1,1,0.0
0yqtbatep0wrry0r6bz2be5j,10,3,58,md,3,0.0,1.0,19.162,1,1,0.0
0yqtbatep0wrry0r6bz2be5j,11,3,35,pd,1,0.0,1.0,17.217,1,1,0.0
0yqtbatep0wrry0r6bz2be5j,12,3,76,pd,2,2.0,0.0,7.425,1,1,0.0
14sjc3esguljze4lie6dx0p3,1,3,71,pd,3,2.0,0.0,6.081,1,1,0.0
14sjc3esguljze4lie6dx0p3,2,3,55,pd,1,0.0,1.0,16.374,1,1,0.0
14sjc3esguljze4lie6dx0p3,3,3,30,pd,2,0.0,1.0,17.183,1,1,0.0
14sjc3esguljze4lie6dx0p3,4,3,45,pd,3,3.0,0.0,14.753,1,1,0.0
14sjc3esguljze4lie6dx0p3,5,3,11,pd,1,2.0,0.0,12.744,1,1,0.0
14sjc3esguljze4lie6dx0p3,6,3,29,pd,2,1.0,0.0,5.948,1,1,0.0
14sjc3esguljze4lie6dx0p3,7,3,16,md,3,0.0,1.0,15.342,1,1,0.0
14sjc3esguljze4lie6dx0p3,8,3,17,pd,1,1.0,0.0,9.373,1,1,0.0
14sjc3esguljze4lie6dx0p3,9,3,23,md,2,0.0,1.0,0.881,1,1,0.0
14sjc3esguljze4lie6dx0p3,10,3,58,md,3,3.0,0.0,11.611,1,1,0.0
14sjc3esguljze4lie6dx0p3,11,3,35,pd,1,0.0,1.0,3.652,1,1,0.0
14sjc3esguljze4lie6dx0p3,12,3,76,pd,2,3.0,0.0,5.745,1,1,0.0
15ebams12i453mvmckqt1eyi,1,3,71,pd,3,0.0,1.0,17.752,1,1,0.0
15ebams12i453mvmckqt1eyi,2,3,55,pd,2,0.0,1.0,9.27,1,1,0.0
15ebams12i453mvmckqt1eyi,3,3,30,pd,1,0.0,1.0,24.486,1,1,0.0
15ebams12i453mvmckqt1eyi,4,3,45,pd,3,0.0,1.0,18.277,1,1,0.0
15ebams12i453mvmckqt1eyi,5,3,11,pd,2,3.0,0.0,27.942,1,1,0.0
15ebams12i453mvmckqt1eyi,6,3,29,pd,1,0.0,1.0,15.707,1,1,0.0
15ebams12i453mvmckqt1eyi,7,3,16,md,3,0.0,1.0,19.841,1,1,0.0
15ebams12i453mvmckqt1eyi,8,3,17,pd,2,1.0,0.0,25.49,1,1,0.0
15ebams12i453mvmckqt1eyi,9,3,23,md,1,0.0,1.0,11.891,1,1,0.0
15ebams12i453mvmckqt1eyi,10,3,58,md,3,0.0,1.0,25.824,1,1,0.0
15ebams12i453mvmckqt1eyi,11,3,35,pd,2,0.0,1.0,26.99,1,1,0.0
15ebams12i453mvmckqt1eyi,12,3,76,pd,1,2.0,0.0,20.658,1,1,0.0
19znotmovxga3imxfnglha5a,1,3,71,pd,2,0.0,1.0,8.906,1,1,0.0
19znotmovxga3imxfnglha5a,2,3,55,pd,3,0.0,1.0,21.641,1,1,0.0
19znotmovxga3imxfnglha5a,3,3,30,pd,1,0.0,1.0,28.075,1,1,0.0
19znotmovxga3imxfnglha5a,4,3,45,pd,2,0.0,1.0,24.221,1,1,0.0
19znotmovxga3imxfnglha5a,5,3,11,pd,3,3.0,0.0,19.927,1,1,0.0
19znotmovxga3imxfnglha5a,6,3,29,pd,1,1.0,0.0,9.814,1,1,0.0
19znotmovxga3imxfnglha5a,7,3,16,md,2,0.0,1.0,27.305,1,1,0.0
19znotmovxga3imxfnglha5a,8,3,17,pd,3,1.0,0.0,9.349,1,1,0.0
19znotmovxga3imxfnglha5a,9,3,23,md,1,0.0,1.0,11.264,1,1,0.0
19znotmovxga3imxfnglha5a,10,3,58,md,2,0.0,1.0,28.227,1,1,0.0
19znotmovxga3imxfnglha5a,11,3,35,pd,3,3.0,0.0,14.102,1,1,0.0
19znotmovxga3imxfnglha5a,12,3,76,pd,1,1.0,0.0,16.768,1,1,0.0
1e9u3v9la9rwdphm565thm0a,1,3,71,pd,3,2.0,0.0,2.723,1,1,0.0
1e9u3v9la9rwdphm565thm0a,2,3,55,pd,1,0.0,1.0,8.295,1,1,0.0
1e9u3v9la9rwdphm565thm0a,3,3,30,pd,2,0.0,1.0,9.962,1,1,0.0
1e9u3v9la9rwdphm565thm0a,4,3,45,pd,3,1.0,0.0,11.972,1,1,0.0
1e9u3v9la9rwdphm565thm0a,5,3,11,pd,1,0.0,1.0,7.26,1,1,0.0
1e9u3v9la9rwdphm565thm0a,6,3,29,pd,2,2.0,0.0,10.354,1,1,0.0
1e9u3v9la9rwdphm565thm0a,7,3,16,md,3,3.0,0.0,11.484,1,1,0.0
1e9u3v9la9rwdphm565thm0a,8,3,17,pd,1,1.0,0.0,9.981,1,1,0.0
1e9u3v9la9rwdphm565thm0a,9,3,23,md,2,3.0,0.0,9.206,1,1,0.0
1e9u3v9la9rwdphm565thm0a,10,3,58,md,3,0.0,1.0,14.583,1,1,0.0
1e9u3v9la9rwdphm565thm0a,11,3,35,pd,1,1.0,0.0,9.496,1,1,0.0
1e9u3v9la9rwdphm565thm0a,12,3,76,pd,2,2.0,0.0,4.979,1,1,0.0
1fihrb5xisi1xwdd759hy0ag,1,3,71,pd,2,2.0,0.0,6.123,1,1,0.0
1fihrb5xisi1xwdd759hy0ag,2,3,55,pd,3,0.0,1.0,12.169,1,1,0.0
1fihrb5xisi1xwdd759hy0ag,3,3,30,pd,1,0.0,1.0,12.262,1,1,0.0
1fihrb5xisi1xwdd759hy0ag,4,3,45,pd,2,0.0,1.0,8.959,1,1,0.0
1fihrb5xisi1xwdd759hy0ag,5,3,11,pd,3,0.0,1.0,14.377,1,1,0.0
1fihrb5xisi1xwdd759hy0ag,6,3,29,pd,1,0.0,1.0,11.128,1,1,0.0
1fihrb5xisi1xwdd759hy0ag,7,3,16,md,2,0.0,1.0,10.55,1,1,0.0
1fihrb5xisi1xwdd759hy0ag,8,3,17,pd,3,1.0,0.0,15.359,1,1,0.0
1fihrb5xisi1xwdd759hy0ag,9,3,23,md,1,0.0,1.0,13.493,1,1,0.0
1fihrb5xisi1xwdd759hy0ag,10,3,58,md,2,0.0,1.0,12.038,1,1,0.0
1fihrb5xisi1xwdd759hy0ag,11,3,35,pd,3,1.0,0.0,18.506,1,1,0.0
1fihrb5xisi1xwdd759hy0ag,12,3,76,pd,1,2.0,0.0,13.398,1,1,0.0
1h6c4xc876vyp61ouzu9r3tr,1,3,71,pd,3,0.0,1.0,5.906,1,1,0.0
1h6c4xc876vyp61ouzu9r3tr,2,3,55,pd,2,1.0,0.0,8.778,1,1,0.0
1h6c4xc876vyp61ouzu9r3tr,3,3,30,pd,1,0.0,1.0,11.104,1,1,0.0
1h6c4xc876vyp61ouzu9r3tr,4,3,45,pd,3,1.0,0.0,6.427,1,1,0.0
1h6c4xc876vyp61ouzu9r3tr,5,3,11,pd,2,0.0,1.0,15.016,1,1,0.0
1h6c4xc876vyp61ouzu9r3tr,6,3,29,pd,1,0.0,1.0,8.204,1,1,0.0
1h6c4xc876vyp61ouzu9r3tr,7,3,16,md,3,0.0,1.0,6.537,1,1,0.0
1h6c4xc876vyp61ouzu9r3tr,8,3,17,pd,2,1.0,0.0,13.557,1,1,0.0
1h6c4xc876vyp61ouzu9r3tr,9,3,23,md,1,0.0,1.0,9.212,1,1,0.0
1h6c4xc876vyp61ouzu9r3tr,10,3,58,md,3,0.0,1.0,12.023,1,1,0.0
1h6c4xc876vyp61ouzu9r3tr,11,3,35,pd,2,0.0,1.0,22.714,1,1,0.0
1h6c4xc876vyp61ouzu9r3tr,12,3,76,pd,1,0.0,1.0,8.831,1,1,0.0
1jfn0a7a6apgjpcyhffxi8ly,1,3,71,pd,3,2.0,0.0,8.087,1,1,0.0
1jfn0a7a6apgjpcyhffxi8ly,2,3,55,pd,1,0.0,1.0,8.806,1,1,0.0
1jfn0a7a6apgjpcyhffxi8ly,3,3,30,pd,2,0.0,1.0,15.601,1,1,0.0
1jfn0a7a6apgjpcyhffxi8ly,4,3,45,pd,3,0.0,1.0,12.755,1,1,0.0
1jfn0a7a6apgjpcyhffxi8ly,5,3,11,pd,1,0.0,1.0,15.713,1,1,0.0
1jfn0a7a6apgjpcyhffxi8ly,6,3,29,pd,2,3.0,0.0,27.164,1,1,0.0
1jfn0a7a6apgjpcyhffxi8ly,7,3,16,md,3,1.0,0.0,18.554,1,1,0.0
1jfn0a7a6apgjpcyhffxi8ly,8,3,17,pd,1,0.0,1.0,19.18,1,1,0.0
1jfn0a7a6apgjpcyhffxi8ly,9,3,23,md,2,1.0,0.0,14.709,1,1,0.0
1jfn0a7a6apgjpcyhffxi8ly,10,3,58,md,3,0.0,1.0,24.782,1,1,0.0
1jfn0a7a6apgjpcyhffxi8ly,11,3,35,pd,1,0.0,1.0,16.877,1,1,0.0
1jfn0a7a6apgjpcyhffxi8ly,12,3,76,pd,2,0.0,1.0,9.56,1,1,0.0
1jkg3rwcf7jcysg0v2f7z9tv,1,3,71,pd,2,2.0,0.0,5.546,1,1,0.0
1jkg3rwcf7jcysg0v2f7z9tv,2,3,55,pd,3,0.0,1.0,13.433,1,1,0.0
1jkg3rwcf7jcysg0v2f7z9tv,3,3,30,pd,1,0.0,1.0,10.945,1,1,0.0
1jkg3rwcf7jcysg0v2f7z9tv,4,3,45,pd,2,0.0,1.0,17.819,1,1,0.0
1jkg3rwcf7jcysg0v2f7z9tv,5,3,11,pd,3,0.0,1.0,20.604,1,1,0.0
1jkg3rwcf7jcysg0v2f7z9tv,6,3,29,pd,1,0.0,1.0,7.827,1,1,0.0
1jkg3rwcf7jcysg0v2f7z9tv,7,3,16,md,2,0.0,1.0,7.762,1,1,0.0
1jkg3rwcf7jcysg0v2f7z9tv,8,3,17,pd,3,1.0,0.0,23.458,1,1,0.0
1jkg3rwcf7jcysg0v2f7z9tv,9,3,23,md,1,0.0,1.0,8.504,1,1,0.0
1jkg3rwcf7jcysg0v2f7z9tv,10,3,58,md,2,1.0,0.0,12.056,1,1,0.0
1jkg3rwcf7jcysg0v2f7z9tv,11,3,35,pd,3,2.0,0.0,10.379,1,1,0.0
1jkg3rwcf7jcysg0v2f7z9tv,12,3,76,pd,1,0.0,1.0,6.102,1,1,0.0
1jswiz9nlynbeqdbskqifs18,1,3,71,pd,3,0.0,1.0,9.981,1,1,0.0
1jswiz9nlynbeqdbskqifs18,2,3,55,pd,1,0.0,1.0,9.829,1,1,0.0
1jswiz9nlynbeqdbskqifs18,3,3,30,pd,2,0.0,1.0,18.461,1,1,0.0
1jswiz9nlynbeqdbskqifs18,4,3,45,pd,3,0.0,1.0,20.829,1,1,0.0
1jswiz9nlynbeqdbskqifs18,5,3,11,pd,1,0.0,1.0,27.291,1,1,0.0
1jswiz9nlynbeqdbskqifs18,6,3,29,pd,2,2.0,0.0,21.203,1,1,0.0
1jswiz9nlynbeqdbskqifs18,7,3,16,md,3,0.0,1.0,19.884,1,1,0.0
1jswiz9nlynbeqdbskqifs18,8,3,17,pd,1,1.0,0.0,14.085,1,1,0.0
1jswiz9nlynbeqdbskqifs18,9,3,23,md,2,0.0,1.0,22.044,1,1,0.0
1jswiz9nlynbeqdbskqifs18,10,3,58,md,3,0.0,1.0,19.476,1,1,0.0
1jswiz9nlynbeqdbskqifs18,11,3,35,pd,1,1.0,0.0,5.812,1,1,0.0
1jswiz9nlynbeqdbskqifs18,12,3,76,pd,2,0.0,1.0,12.98,1,1,0.0
1jvednu5151ueg4z8y95ks6i,1,3,71,pd,3,0.0,1.0,10.474,1,1,0.0
1jvednu5151ueg4z8y95ks6i,2,3,55,pd,1,0.0,1.0,7.256,1,1,0.0
1jvednu5151ueg4z8y95ks6i,3,3,30,pd,2,0.0,1.0,7.489,1,1,0.0
1jvednu5151ueg4z8y95ks6i,4,3,45,pd,3,1.0,0.0,9.446,1,1,0.0
1jvednu5151ueg4z8y95ks6i,5,3,11,pd,1,0.0,1.0,15.876,1,1,0.0
1jvednu5151ueg4z8y95ks6i,6,3,29,pd,2,0.0,1.0,17.941,1,1,0.0
1jvednu5151ueg4z8y95ks6i,7,3,16,md,3,0.0,1.0,16.184,1,1,0.0
1jvednu5151ueg4z8y95ks6i,8,3,17,pd,1,0.0,1.0,15.938,1,1,0.0
1jvednu5151ueg4z8y95ks6i,9,3,23,md,2,3.0,0.0,14.085,1,1,0.0
1jvednu5151ueg4z8y95ks6i,10,3,58,md,3,3.0,0.0,7.288,1,1,0.0
1jvednu5151ueg4z8y95ks6i,11,3,35,pd,1,0.0,1.0,9.51,1,1,0.0
1jvednu5151ueg4z8y95ks6i,12,3,76,pd,2,0.0,1.0,12.002,1,1,0.0
1l6wjwvvz12cqdh8jegcdfrk,1,3,71,pd,1,0.0,1.0,14.97,1,1,0.0
1l6wjwvvz12cqdh8jegcdfrk,2,3,55,pd,2,0.0,1.0,12.296,1,1,0.0
1l6wjwvvz12cqdh8jegcdfrk,3,3,30,pd,3,0.0,1.0,27.152,1,1,0.0
1l6wjwvvz12cqdh8jegcdfrk,4,3,45,pd,1,0.0,1.0,19.66,1,1,0.0
1l6wjwvvz12cqdh8jegcdfrk,5,3,11,pd,2,0.0,1.0,29.36,1,1,0.0
1l6wjwvvz12cqdh8jegcdfrk,6,3,29,pd,3,0.0,1.0,29.518,1,1,0.0
1l6wjwvvz12cqdh8jegcdfrk,7,3,16,md,1,0.0,1.0,28.466,1,1,0.0
1l6wjwvvz12cqdh8jegcdfrk,8,3,17,pd,2,1.0,0.0,28.951,1,1,0.0
1l6wjwvvz12cqdh8jegcdfrk,9,3,23,md,3,0.0,1.0,28.705,1,1,0.0
1l6wjwvvz12cqdh8jegcdfrk,10,3,58,md,1,0.0,1.0,23.066,1,1,0.0
1l6wjwvvz12cqdh8jegcdfrk,11,3,35,pd,2,2.0,0.0,28.848,1,1,0.0
1l6wjwvvz12cqdh8jegcdfrk,12,3,76,pd,3,3.0,0.0,29.678,1,1,0.0
1l7xto0a6bb6xccbsvk2khms,1,3,71,pd,2,2.0,0.0,4.96,1,1,0.0
1l7xto0a6bb6xccbsvk2khms,2,3,55,pd,3,0.0,1.0,5.769,1,1,0.0
1l7xto0a6bb6xccbsvk2khms,3,3,30,pd,2,0.0,1.0,7.812,1,1,0.0
1l7xto0a6bb6xccbsvk2khms,4,3,45,pd,2,0.0,1.0,6.113,1,1,0.0
1l7xto0a6bb6xccbsvk2khms,5,3,11,pd,3,3.0,0.0,7.384,1,1,0.0
1l7xto0a6bb6xccbsvk2khms,6,3,29,pd,2,0.0,1.0,6.551,1,1,0.0
1l7xto0a6bb6xccbsvk2khms,7,3,16,md,2,0.0,1.0,4.843,1,1,0.0
1l7xto0a6bb6xccbsvk2khms,8,3,17,pd,3,1.0,0.0,9.673,1,1,0.0
1l7xto0a6bb6xccbsvk2khms,9,3,23,md,2,0.0,1.0,9.311,1,1,0.0
1l7xto0a6bb6xccbsvk2khms,10,3,58,md,2,1.0,0.0,7.015,1,1,0.0
1l7xto0a6bb6xccbsvk2khms,11,3,35,pd,3,3.0,0.0,10.827,1,1,0.0
1l7xto0a6bb6xccbsvk2khms,12,3,76,pd,2,1.0,0.0,6.334,1,1,0.0
1nx2x9q18xxtv71blp7aated,1,3,71,pd,1,0.0,1.0,12.627,1,1,0.0
1nx2x9q18xxtv71blp7aated,2,3,55,pd,2,0.0,1.0,17.723,1,1,0.0
1nx2x9q18xxtv71blp7aated,3,3,30,pd,3,0.0,1.0,19.177,1,1,0.0
1nx2x9q18xxtv71blp7aated,4,3,45,pd,1,0.0,1.0,12.525,1,1,0.0
1nx2x9q18xxtv71blp7aated,5,3,11,pd,2,0.0,1.0,23.519,1,1,0.0
1nx2x9q18xxtv71blp7aated,6,3,29,pd,3,0.0,1.0,15.286,1,1,0.0
1nx2x9q18xxtv71blp7aated,7,3,16,md,1,0.0,1.0,27.255,1,1,0.0
1nx2x9q18xxtv71blp7aated,8,3,17,pd,2,1.0,0.0,23.092,1,1,0.0
1nx2x9q18xxtv71blp7aated,9,3,23,md,3,0.0,1.0,7.676,1,1,0.0
1nx2x9q18xxtv71blp7aated,10,3,58,md,1,0.0,1.0,21.218,1,1,0.0
1nx2x9q18xxtv71blp7aated,11,3,35,pd,2,0.0,1.0,25.667,1,1,0.0
1nx2x9q18xxtv71blp7aated,12,3,76,pd,3,0.0,1.0,27.767,1,1,0.0
1qmmrnwno1bmdgx8gq83nk8d,1,3,71,pd,2,2.0,0.0,3.283,1,1,0.0
1qmmrnwno1bmdgx8gq83nk8d,2,3,55,pd,3,1.0,0.0,10.78,1,1,0.0
1qmmrnwno1bmdgx8gq83nk8d,3,3,30,pd,1,3.0,0.0,8.875,1,1,0.0
1qmmrnwno1bmdgx8gq83nk8d,4,3,45,pd,2,0.0,1.0,9.355,1,1,0.0
1qmmrnwno1bmdgx8gq83nk8d,5,3,11,pd,3,3.0,0.0,10.802,1,1,0.0
1qmmrnwno1bmdgx8gq83nk8d,6,3,29,pd,1,0.0,1.0,8.939,1,1,0.0
1qmmrnwno1bmdgx8gq83nk8d,7,3,16,md,2,0.0,1.0,10.163,1,1,0.0
1qmmrnwno1bmdgx8gq83nk8d,8,3,17,pd,3,1.0,0.0,12.691,1,1,0.0
1qmmrnwno1bmdgx8gq83nk8d,9,3,23,md,1,0.0,1.0,9.115,1,1,0.0
1qmmrnwno1bmdgx8gq83nk8d,10,3,58,md,2,3.0,0.0,8.884,1,1,0.0
1qmmrnwno1bmdgx8gq83nk8d,11,3,35,pd,3,1.0,0.0,7.524,1,1,0.0
1qmmrnwno1bmdgx8gq83nk8d,12,3,76,pd,1,2.0,0.0,7.259,1,1,0.0
1w1qpgfcqf66b3m2typs0yhk,1,3,71,pd,3,2.0,0.0,7.262,1,1,0.0
1w1qpgfcqf66b3m2typs0yhk,2,3,55,pd,1,,,,1,1,0.0
1w1qpgfcqf66b3m2typs0yhk,3,3,30,pd,2,0.0,1.0,10.068,1,1,0.0
1w1qpgfcqf66b3m2typs0yhk,4,3,45,pd,3,0.0,1.0,11.7,1,1,0.0
1w1qpgfcqf66b3m2typs0yhk,5,3,11,pd,1,0.0,1.0,15.372,1,1,0.0
1w1qpgfcqf66b3m2typs0yhk,6,3,29,pd,2,0.0,1.0,15.902,1,1,0.0
1w1qpgfcqf66b3m2typs0yhk,7,3,16,md,3,0.0,1.0,14.433,1,1,0.0
1w1qpgfcqf66b3m2typs0yhk,8,3,17,pd,1,0.0,1.0,9.306,1,1,0.0
1w1qpgfcqf66b3m2typs0yhk,9,3,23,md,2,3.0,0.0,14.025,1,1,0.0
1w1qpgfcqf66b3m2typs0yhk,10,3,58,md,3,1.0,0.0,12.37,1,1,0.0
1w1qpgfcqf66b3m2typs0yhk,11,3,35,pd,1,0.0,1.0,10.966,1,1,0.0
1w1qpgfcqf66b3m2typs0yhk,12,3,76,pd,2,3.0,0.0,8.405,1,1,0.0
1w2vilb174glntt8zdn5z5d5,1,3,71,pd,2,0.0,1.0,4.008,1,1,0.0
1w2vilb174glntt8zdn5z5d5,2,3,55,pd,3,0.0,1.0,9.396,1,1,0.0
1w2vilb174glntt8zdn5z5d5,3,3,30,pd,1,0.0,1.0,5.446,1,1,0.0
1w2vilb174glntt8zdn5z5d5,4,3,45,pd,2,3.0,0.0,13.0,1,1,0.0
1w2vilb174glntt8zdn5z5d5,5,3,11,pd,3,0.0,1.0,6.696,1,1,0.0
1w2vilb174glntt8zdn5z5d5,6,3,29,pd,1,3.0,0.0,6.538,1,1,0.0
1w2vilb174glntt8zdn5z5d5,7,3,16,md,2,3.0,0.0,7.497,1,1,0.0
1w2vilb174glntt8zdn5z5d5,8,3,17,pd,3,0.0,1.0,7.831,1,1,0.0
1w2vilb174glntt8zdn5z5d5,9,3,23,md,1,1.0,0.0,4.156,1,1,0.0
1w2vilb174glntt8zdn5z5d5,10,3,58,md,2,0.0,1.0,6.706,1,1,0.0
1w2vilb174glntt8zdn5z5d5,11,3,35,pd,3,1.0,0.0,12.006,1,1,0.0
1w2vilb174glntt8zdn5z5d5,12,3,76,pd,1,3.0,0.0,5.498,1,1,0.0
1w9jafc0r0qvfyr9ahl2wmmt,1,3,71,pd,1,0.0,1.0,7.557,1,1,0.0
1w9jafc0r0qvfyr9ahl2wmmt,2,3,55,pd,2,0.0,1.0,18.276,1,1,0.0
1w9jafc0r0qvfyr9ahl2wmmt,3,3,30,pd,3,0.0,1.0,12.403,1,1,0.0
1w9jafc0r0qvfyr9ahl2wmmt,4,3,45,pd,1,0.0,1.0,13.103,1,1,0.0
1w9jafc0r0qvfyr9ahl2wmmt,5,3,11,pd,2,0.0,1.0,21.225,1,1,0.0
1w9jafc0r0qvfyr9ahl2wmmt,6,3,29,pd,3,0.0,1.0,11.525,1,1,0.0
1w9jafc0r0qvfyr9ahl2wmmt,7,3,16,md,1,0.0,1.0,7.197,1,1,0.0
1w9jafc0r0qvfyr9ahl2wmmt,8,3,17,pd,2,2.0,0.0,28.512,1,1,0.0
1w9jafc0r0qvfyr9ahl2wmmt,9,3,23,md,3,3.0,0.0,19.251,1,1,0.0
1w9jafc0r0qvfyr9ahl2wmmt,10,3,58,md,1,1.0,0.0,12.962,1,1,0.0
1w9jafc0r0qvfyr9ahl2wmmt,11,3,35,pd,2,0.0,1.0,20.146,1,1,0.0
1w9jafc0r0qvfyr9ahl2wmmt,12,3,76,pd,3,3.0,0.0,29.848,1,1,0.0
1z9tl0tgp1u1hd7qxdu4ugfw,1,3,71,pd,2,0.0,1.0,8.043,1,1,0.0
1z9tl0tgp1u1hd7qxdu4ugfw,2,3,55,pd,3,0.0,1.0,12.943,1,1,0.0
1z9tl0tgp1u1hd7qxdu4ugfw,3,3,30,pd,1,0.0,1.0,13.879,1,1,0.0
1z9tl0tgp1u1hd7qxdu4ugfw,4,3,45,pd,2,0.0,1.0,17.295,1,1,0.0
1z9tl0tgp1u1hd7qxdu4ugfw,5,3,11,pd,3,0.0,1.0,13.87,1,1,0.0
1z9tl0tgp1u1hd7qxdu4ugfw,6,3,29,pd,1,0.0,1.0,9.717,1,1,0.0
1z9tl0tgp1u1hd7qxdu4ugfw,7,3,16,md,2,0.0,1.0,10.523,1,1,0.0
1z9tl0tgp1u1hd7qxdu4ugfw,8,3,17,pd,3,0.0,1.0,29.649,1,1,0.0
1z9tl0tgp1u1hd7qxdu4ugfw,9,3,23,md,1,0.0,1.0,13.0,1,1,0.0
1z9tl0tgp1u1hd7qxdu4ugfw,10,3,58,md,2,0.0,1.0,12.984,1,1,0.0
1z9tl0tgp1u1hd7qxdu4ugfw,11,3,35,pd,3,0.0,1.0,19.977,1,1,0.0
1z9tl0tgp1u1hd7qxdu4ugfw,12,3,76,pd,1,0.0,1.0,10.352,1,1,0.0
24tckozyhy6n0wrasshxbgfq,1,3,71,pd,3,0.0,1.0,3.846,1,1,0.0
24tckozyhy6n0wrasshxbgfq,2,3,55,pd,1,0.0,1.0,10.099,1,1,0.0
24tckozyhy6n0wrasshxbgfq,3,3,30,pd,2,0.0,1.0,13.573,1,1,0.0
24tckozyhy6n0wrasshxbgfq,4,3,45,pd,3,0.0,1.0,26.5,1,1,0.0
24tckozyhy6n0wrasshxbgfq,5,3,11,pd,1,0.0,1.0,14.107,1,1,0.0
24tckozyhy6n0wrasshxbgfq,6,3,29,pd,2,0.0,1.0,12.378,1,1,0.0
24tckozyhy6n0wrasshxbgfq,7,3,16,md,3,0.0,1.0,11.133,1,1,0.0
24tckozyhy6n0wrasshxbgfq,8,3,17,pd,1,0.0,1.0,14.507,1,1,0.0
24tckozyhy6n0wrasshxbgfq,9,3,23,md,2,2.0,0.0,9.819,1,1,0.0
24tckozyhy6n0wrasshxbgfq,10,3,58,md,3,0.0,1.0,11.092,1,1,0.0
24tckozyhy6n0wrasshxbgfq,11,3,35,pd,1,0.0,1.0,9.493,1,1,0.0
24tckozyhy6n0wrasshxbgfq,12,3,76,pd,2,0.0,1.0,13.229,1,1,0.0
28lrxegugl5cjmbl038832yt,1,3,71,pd,2,0.0,1.0,2.445,1,1,0.0
28lrxegugl5cjmbl038832yt,2,3,55,pd,3,0.0,1.0,6.472,1,1,0.0
28lrxegugl5cjmbl038832yt,3,3,30,pd,1,0.0,1.0,6.118,1,1,0.0
28lrxegugl5cjmbl038832yt,4,3,45,pd,2,0.0,1.0,12.894,1,1,0.0
28lrxegugl5cjmbl038832yt,5,3,11,pd,3,1.0,0.0,10.319,1,1,0.0
28lrxegugl5cjmbl038832yt,6,3,29,pd,1,0.0,1.0,7.214,1,1,0.0
28lrxegugl5cjmbl038832yt,7,3,16,md,2,0.0,1.0,9.961,1,1,0.0
28lrxegugl5cjmbl038832yt,8,3,17,pd,3,1.0,0.0,15.816,1,1,0.0
28lrxegugl5cjmbl038832yt,9,3,23,md,1,3.0,0.0,12.054,1,1,0.0
28lrxegugl5cjmbl038832yt,10,3,58,md,2,3.0,0.0,5.006,1,1,0.0
28lrxegugl5cjmbl038832yt,11,3,35,pd,3,0.0,1.0,6.601,1,1,0.0
28lrxegugl5cjmbl038832yt,12,3,76,pd,1,0.0,1.0,9.833,1,1,0.0
2aitaeog6msxzfiw4c7n7us8,1,3,71,pd,2,0.0,1.0,11.384,1,1,0.0
2aitaeog6msxzfiw4c7n7us8,2,3,55,pd,3,0.0,1.0,10.119,1,1,0.0
2aitaeog6msxzfiw4c7n7us8,3,3,30,pd,1,3.0,0.0,9.238,1,1,0.0
2aitaeog6msxzfiw4c7n7us8,4,3,45,pd,2,0.0,1.0,8.99,1,1,0.0
2aitaeog6msxzfiw4c7n7us8,5,3,11,pd,3,3.0,0.0,8.884,1,1,0.0
2aitaeog6msxzfiw4c7n7us8,6,3,29,pd,1,0.0,1.0,14.632,1,1,0.0
2aitaeog6msxzfiw4c7n7us8,7,3,16,md,2,1.0,0.0,8.392,1,1,0.0
2aitaeog6msxzfiw4c7n7us8,8,3,17,pd,3,0.0,1.0,28.019,1,1,0.0
2aitaeog6msxzfiw4c7n7us8,9,3,23,md,1,0.0,1.0,12.462,1,1,0.0
2aitaeog6msxzfiw4c7n7us8,10,3,58,md,2,0.0,1.0,25.935,1,1,0.0
2aitaeog6msxzfiw4c7n7us8,11,3,35,pd,3,1.0,0.0,11.434,1,1,0.0
2aitaeog6msxzfiw4c7n7us8,12,3,76,pd,1,2.0,0.0,11.904,1,1,0.0
2bv2b8ptqanwk0q8kfk7m9nf,1,3,71,pd,3,2.0,0.0,5.653,1,1,0.0
2bv2b8ptqanwk0q8kfk7m9nf,2,3,55,pd,1,0.0,1.0,25.997,1,1,0.0
2bv2b8ptqanwk0q8kfk7m9nf,3,3,30,pd,2,2.0,0.0,20.085,1,1,0.0
2bv2b8ptqanwk0q8kfk7m9nf,4,3,45,pd,3,0.0,1.0,20.908,1,1,0.0
2bv2b8ptqanwk0q8kfk7m9nf,5,3,11,pd,1,3.0,0.0,15.604,1,1,0.0
2bv2b8ptqanwk0q8kfk7m9nf,6,3,29,pd,2,0.0,1.0,17.245,1,1,0.0
2bv2b8ptqanwk0q8kfk7m9nf,7,3,16,md,3,0.0,1.0,10.765,1,1,0.0
2bv2b8ptqanwk0q8kfk7m9nf,8,3,17,pd,1,0.0,1.0,17.813,1,1,0.0
2bv2b8ptqanwk0q8kfk7m9nf,9,3,23,md,2,0.0,1.0,14.867,1,1,0.0
2bv2b8ptqanwk0q8kfk7m9nf,10,3,58,md,3,,,,1,1,0.0
2bv2b8ptqanwk0q8kfk7m9nf,11,3,35,pd,1,3.0,0.0,5.321,1,1,0.0
2bv2b8ptqanwk0q8kfk7m9nf,12,3,76,pd,2,3.0,0.0,13.252,1,1,0.0
2cb0ef08mmlo1ra9m9r8n0p6,1,3,71,pd,3,2.0,0.0,8.684,1,1,0.0
2cb0ef08mmlo1ra9m9r8n0p6,2,3,55,pd,1,0.0,1.0,15.501,1,1,0.0
2cb0ef08mmlo1ra9m9r8n0p6,3,3,30,pd,2,0.0,1.0,13.693,1,1,0.0
2cb0ef08mmlo1ra9m9r8n0p6,4,3,45,pd,3,0.0,1.0,9.792,1,1,0.0
2cb0ef08mmlo1ra9m9r8n0p6,5,3,11,pd,1,0.0,1.0,13.423,1,1,0.0
2cb0ef08mmlo1ra9m9r8n0p6,6,3,29,pd,2,0.0,1.0,13.055,1,1,0.0
2cb0ef08mmlo1ra9m9r8n0p6,7,3,16,md,3,0.0,1.0,8.813,1,1,0.0
2cb0ef08mmlo1ra9m9r8n0p6,8,3,17,pd,1,0.0,1.0,18.205,1,1,0.0
2cb0ef08mmlo1ra9m9r8n0p6,9,3,23,md,2,0.0,1.0,29.735,1,1,0.0
2cb0ef08mmlo1ra9m9r8n0p6,10,3,58,md,3,0.0,1.0,20.741,1,1,0.0
2cb0ef08mmlo1ra9m9r8n0p6,11,3,35,pd,1,0.0,1.0,26.737,1,1,0.0
2cb0ef08mmlo1ra9m9r8n0p6,12,3,76,pd,2,0.0,1.0,14.069,1,1,0.0
2fnebzfivqk77pn4qq7ms3wp,1,3,71,pd,2,0.0,1.0,25.2,1,1,1.0
2fnebzfivqk77pn4qq7ms3wp,2,3,55,pd,1,0.0,1.0,15.839,1,1,0.0
2fnebzfivqk77pn4qq7ms3wp,3,3,30,pd,2,0.0,1.0,10.572,1,1,0.0
2fnebzfivqk77pn4qq7ms3wp,4,3,45,pd,2,0.0,1.0,10.174,1,1,0.0
2fnebzfivqk77pn4qq7ms3wp,5,3,11,pd,1,0.0,1.0,26.92,1,1,0.0
2fnebzfivqk77pn4qq7ms3wp,6,3,29,pd,2,0.0,1.0,10.142,1,1,0.0
2fnebzfivqk77pn4qq7ms3wp,7,3,16,md,2,0.0,1.0,10.956,1,1,0.0
2fnebzfivqk77pn4qq7ms3wp,8,3,17,pd,1,0.0,1.0,14.572,1,1,0.0
2fnebzfivqk77pn4qq7ms3wp,9,3,23,md,2,0.0,1.0,19.706,1,1,0.0
2fnebzfivqk77pn4qq7ms3wp,10,3,58,md,2,0.0,1.0,14.144,1,1,0.0
2fnebzfivqk77pn4qq7ms3wp,11,3,35,pd,3,0.0,1.0,20.606,1,1,0.0
2fnebzfivqk77pn4qq7ms3wp,12,3,76,pd,2,0.0,1.0,7.993,1,1,0.0
2fudccw6jujfokoo99h12skn,1,3,71,pd,1,0.0,1.0,7.29,1,1,0.0
2fudccw6jujfokoo99h12skn,2,3,55,pd,2,0.0,1.0,8.371,1,1,0.0
2fudccw6jujfokoo99h12skn,3,3,30,pd,3,0.0,1.0,10.341,1,1,0.0
2fudccw6jujfokoo99h12skn,4,3,45,pd,1,0.0,1.0,12.662,1,1,0.0
2fudccw6jujfokoo99h12skn,5,3,11,pd,2,3.0,0.0,16.667,1,1,0.0
2fudccw6jujfokoo99h12skn,6,3,29,pd,3,3.0,0.0,25.793,1,1,0.0
2fudccw6jujfokoo99h12skn,7,3,16,md,1,0.0,1.0,8.201,1,1,0.0
2fudccw6jujfokoo99h12skn,8,3,17,pd,2,0.0,1.0,20.513,1,1,0.0
2fudccw6jujfokoo99h12skn,9,3,23,md,3,0.0,1.0,13.216,1,1,0.0
2fudccw6jujfokoo99h12skn,10,3,58,md,1,0.0,1.0,10.006,1,1,0.0
2fudccw6jujfokoo99h12skn,11,3,35,pd,2,0.0,1.0,16.178,1,1,0.0
2fudccw6jujfokoo99h12skn,12,3,76,pd,3,0.0,1.0,13.953,1,1,0.0
2jtumtn20tpxear6e1o4e60o,1,3,71,pd,2,2.0,0.0,15.03,1,1,0.0
2jtumtn20tpxear6e1o4e60o,2,3,55,pd,3,0.0,1.0,11.505,1,1,0.0
2jtumtn20tpxear6e1o4e60o,3,3,30,pd,1,0.0,1.0,12.675,1,1,0.0
2jtumtn20tpxear6e1o4e60o,4,3,45,pd,2,0.0,1.0,17.448,1,1,0.0
2jtumtn20tpxear6e1o4e60o,5,3,11,pd,3,0.0,1.0,19.362,1,1,0.0
2jtumtn20tpxear6e1o4e60o,6,3,29,pd,1,0.0,1.0,21.89,1,1,0.0
2jtumtn20tpxear6e1o4e60o,7,3,16,md,2,3.0,0.0,22.105,1,1,0.0
2jtumtn20tpxear6e1o4e60o,8,3,17,pd,3,0.0,1.0,18.68,1,1,0.0
2jtumtn20tpxear6e1o4e60o,9,3,23,md,1,0.0,1.0,16.928,1,1,0.0
2jtumtn20tpxear6e1o4e60o,10,3,58,md,2,0.0,1.0,29.145,1,1,0.0
2jtumtn20tpxear6e1o4e60o,11,3,35,pd,3,0.0,1.0,22.098,1,1,0.0
2jtumtn20tpxear6e1o4e60o,12,3,76,pd,1,0.0,1.0,12.065,1,1,0.0
2zhhgttgak8yl2icy6p5maq3,1,3,71,pd,2,0.0,1.0,3.475,1,1,0.0
2zhhgttgak8yl2icy6p5maq3,2,3,55,pd,3,0.0,1.0,13.179,1,1,0.0
2zhhgttgak8yl2icy6p5maq3,3,3,30,pd,1,0.0,1.0,12.725,1,1,0.0
2zhhgttgak8yl2icy6p5maq3,4,3,45,pd,2,0.0,1.0,25.623,1,1,0.0
2zhhgttgak8yl2icy6p5maq3,5,3,11,pd,3,0.0,1.0,21.256,1,1,0.0
2zhhgttgak8yl2icy6p5maq3,6,3,29,pd,1,0.0,1.0,28.45,1,1,0.0
2zhhgttgak8yl2icy6p5maq3,7,3,16,md,2,3.0,0.0,15.306,1,1,0.0
2zhhgttgak8yl2icy6p5maq3,8,3,17,pd,3,0.0,1.0,29.418,1,1,0.0
2zhhgttgak8yl2icy6p5maq3,9,3,23,md,1,3.0,0.0,22.008,1,1,0.0
2zhhgttgak8yl2icy6p5maq3,10,3,58,md,2,0.0,1.0,25.092,1,1,0.0
2zhhgttgak8yl2icy6p5maq3,11,3,35,pd,3,,,,1,1,0.0
2zhhgttgak8yl2icy6p5maq3,12,3,76,pd,1,3.0,0.0,11.706,1,1,0.0
2zriym9qpt4y73931pm3g3wj,1,3,71,pd,3,0.0,1.0,18.068,1,1,0.0
2zriym9qpt4y73931pm3g3wj,2,3,55,pd,1,0.0,1.0,17.99,1,1,0.0
2zriym9qpt4y73931pm3g3wj,3,3,30,pd,2,0.0,1.0,20.988,1,1,0.0
2zriym9qpt4y73931pm3g3wj,4,3,45,pd,3,0.0,1.0,27.841,1,1,0.0
2zriym9qpt4y73931pm3g3wj,5,3,11,pd,1,0.0,1.0,18.135,1,1,0.0
2zriym9qpt4y73931pm3g3wj,6,3,29,pd,2,0.0,1.0,14.176,1,1,0.0
2zriym9qpt4y73931pm3g3wj,7,3,16,md,3,0.0,1.0,12.38,1,1,0.0
2zriym9qpt4y73931pm3g3wj,8,3,17,pd,1,0.0,1.0,29.379,1,1,0.0
2zriym9qpt4y73931pm3g3wj,9,3,23,md,2,0.0,1.0,16.81,1,1,0.0
2zriym9qpt4y73931pm3g3wj,10,3,58,md,3,0.0,1.0,15.211,1,1,0.0
2zriym9qpt4y73931pm3g3wj,11,3,35,pd,1,0.0,1.0,23.054,1,1,0.0
2zriym9qpt4y73931pm3g3wj,12,3,76,pd,2,0.0,1.0,7.431,1,1,0.0
38o1khqbqorz1iez564q0jjy,1,3,71,pd,2,0.0,1.0,11.885,1,1,0.0
38o1khqbqorz1iez564q0jjy,2,3,55,pd,3,0.0,1.0,7.464,1,1,0.0
38o1khqbqorz1iez564q0jjy,3,3,30,pd,1,0.0,1.0,13.574,1,1,0.0
38o1khqbqorz1iez564q0jjy,4,3,45,pd,2,0.0,1.0,9.871,1,1,0.0
38o1khqbqorz1iez564q0jjy,5,3,11,pd,3,0.0,1.0,14.154,1,1,0.0
38o1khqbqorz1iez564q0jjy,6,3,29,pd,1,0.0,1.0,7.684,1,1,0.0
38o1khqbqorz1iez564q0jjy,7,3,16,md,2,3.0,0.0,16.272,1,1,0.0
38o1khqbqorz1iez564q0jjy,8,3,17,pd,3,0.0,1.0,19.712,1,1,0.0
38o1khqbqorz1iez564q0jjy,9,3,23,md,1,0.0,1.0,9.948,1,1,0.0
38o1khqbqorz1iez564q0jjy,10,3,58,md,2,0.0,1.0,16.095,1,1,0.0
38o1khqbqorz1iez564q0jjy,11,3,35,pd,3,0.0,1.0,28.608,1,1,0.0
38o1khqbqorz1iez564q0jjy,12,3,76,pd,1,0.0,1.0,21.191,1,1,0.0
3cwt9j1wlyxl46g0r3gqrok9,1,3,71,pd,3,2.0,0.0,2.753,1,1,0.0
3cwt9j1wlyxl46g0r3gqrok9,2,3,55,pd,1,0.0,1.0,8.11,1,1,0.0
3cwt9j1wlyxl46g0r3gqrok9,3,3,30,pd,2,2.0,0.0,13.116,1,1,0.0
3cwt9j1wlyxl46g0r3gqrok9,4,3,45,pd,3,3.0,0.0,11.314,1,1,0.0
3cwt9j1wlyxl46g0r3gqrok9,5,3,11,pd,1,0.0,1.0,18.977,1,1,0.0
3cwt9j1wlyxl46g0r3gqrok9,6,3,29,pd,2,0.0,1.0,16.185,1,1,0.0
3cwt9j1wlyxl46g0r3gqrok9,7,3,16,md,3,1.0,0.0,7.109,1,1,0.0
3cwt9j1wlyxl46g0r3gqrok9,8,3,17,pd,1,1.0,0.0,11.047,1,1,0.0
3cwt9j1wlyxl46g0r3gqrok9,9,3,23,md,2,0.0,1.0,10.941,1,1,0.0
3cwt9j1wlyxl46g0r3gqrok9,10,3,58,md,3,3.0,0.0,7.33,1,1,0.0
3cwt9j1wlyxl46g0r3gqrok9,11,3,35,pd,1,2.0,0.0,1.866,1,1,0.0
3cwt9j1wlyxl46g0r3gqrok9,12,3,76,pd,2,3.0,0.0,1.665,1,1,0.0
3grrp47mki4v5x52q1f3trc2,1,3,71,pd,3,0.0,1.0,6.595,1,1,0.0
3grrp47mki4v5x52q1f3trc2,2,3,55,pd,1,0.0,1.0,4.888,1,1,0.0
3grrp47mki4v5x52q1f3trc2,3,3,30,pd,2,0.0,1.0,7.054,1,1,0.0
3grrp47mki4v5x52q1f3trc2,4,3,45,pd,3,0.0,1.0,4.916,1,1,0.0
3grrp47mki4v5x52q1f3trc2,5,3,11,pd,1,0.0,1.0,13.961,1,1,0.0
3grrp47mki4v5x52q1f3trc2,6,3,29,pd,2,0.0,1.0,8.317,1,1,0.0
3grrp47mki4v5x52q1f3trc2,7,3,16,md,3,0.0,1.0,10.861,1,1,0.0
3grrp47mki4v5x52q1f3trc2,8,3,17,pd,1,0.0,1.0,14.666,1,1,0.0
3grrp47mki4v5x52q1f3trc2,9,3,23,md,2,0.0,1.0,8.438,1,1,0.0
3grrp47mki4v5x52q1f3trc2,10,3,58,md,3,0.0,1.0,11.598,1,1,0.0
3grrp47mki4v5x52q1f3trc2,11,3,35,pd,1,0.0,1.0,7.902,1,1,0.0
3grrp47mki4v5x52q1f3trc2,12,3,76,pd,2,0.0,1.0,12.236,1,1,0.0
3lfx7v98cdm905xf5atvmmoh,1,3,71,pd,2,0.0,1.0,11.972,1,1,0.0
3lfx7v98cdm905xf5atvmmoh,2,3,55,pd,3,0.0,1.0,20.77,1,1,0.0
3lfx7v98cdm905xf5atvmmoh,3,3,30,pd,1,0.0,1.0,17.235,1,1,0.0
3lfx7v98cdm905xf5atvmmoh,4,3,45,pd,2,0.0,1.0,10.853,1,1,0.0
3lfx7v98cdm905xf5atvmmoh,5,3,11,pd,3,3.0,0.0,22.158,1,1,0.0
3lfx7v98cdm905xf5atvmmoh,6,3,29,pd,1,0.0,1.0,22.572,1,1,0.0
3lfx7v98cdm905xf5atvmmoh,7,3,16,md,2,0.0,1.0,13.795,1,1,0.0
3lfx7v98cdm905xf5atvmmoh,8,3,17,pd,3,2.0,0.0,16.257,1,1,0.0
3lfx7v98cdm905xf5atvmmoh,9,3,23,md,1,0.0,1.0,15.636,1,1,0.0
3lfx7v98cdm905xf5atvmmoh,10,3,58,md,2,1.0,0.0,25.544,1,1,0.0
3lfx7v98cdm905xf5atvmmoh,11,3,35,pd,3,0.0,1.0,12.255,1,1,0.0
3lfx7v98cdm905xf5atvmmoh,12,3,76,pd,1,0.0,1.0,11.257,1,1,0.0
3m38bxr37vhviwf2uw2nsrh6,1,3,71,pd,3,0.0,1.0,12.581,1,1,0.0
3m38bxr37vhviwf2uw2nsrh6,2,3,55,pd,1,0.0,1.0,10.677,1,1,0.0
3m38bxr37vhviwf2uw2nsrh6,3,3,30,pd,2,3.0,0.0,10.26,1,1,0.0
3m38bxr37vhviwf2uw2nsrh6,4,3,45,pd,3,1.0,0.0,7.298,1,1,0.0
3m38bxr37vhviwf2uw2nsrh6,5,3,11,pd,1,0.0,1.0,19.111,1,1,0.0
3m38bxr37vhviwf2uw2nsrh6,6,3,29,pd,2,3.0,0.0,18.196,1,1,0.0
3m38bxr37vhviwf2uw2nsrh6,7,3,16,md,3,1.0,0.0,8.692,1,1,0.0
3m38bxr37vhviwf2uw2nsrh6,8,3,17,pd,1,1.0,0.0,15.428,1,1,0.0
3m38bxr37vhviwf2uw2nsrh6,9,3,23,md,2,1.0,0.0,11.799,1,1,0.0
3m38bxr37vhviwf2uw2nsrh6,10,3,58,md,3,1.0,0.0,10.455,1,1,0.0
3m38bxr37vhviwf2uw2nsrh6,11,3,35,pd,1,0.0,1.0,7.138,1,1,0.0
3m38bxr37vhviwf2uw2nsrh6,12,3,76,pd,2,0.0,1.0,10.312,1,1,0.0
3qdt1lww14lcxvrfiazrbkvs,1,3,71,pd,2,2.0,0.0,7.143,1,1,0.0
3qdt1lww14lcxvrfiazrbkvs,2,3,55,pd,3,0.0,1.0,8.358,1,1,0.0
3qdt1lww14lcxvrfiazrbkvs,3,3,30,pd,2,0.0,1.0,5.64,1,1,0.0
3qdt1lww14lcxvrfiazrbkvs,4,3,45,pd,2,1.0,0.0,15.798,1,1,0.0
3qdt1lww14lcxvrfiazrbkvs,5,3,11,pd,1,3.0,0.0,9.499,1,1,0.0
3qdt1lww14lcxvrfiazrbkvs,6,3,29,pd,2,3.0,0.0,22.055,1,1,0.0
3qdt1lww14lcxvrfiazrbkvs,7,3,16,md,2,0.0,1.0,6.612,1,1,0.0
3qdt1lww14lcxvrfiazrbkvs,8,3,17,pd,1,1.0,0.0,15.718,1,1,0.0
3qdt1lww14lcxvrfiazrbkvs,9,3,23,md,2,2.0,0.0,7.06,1,1,0.0
3qdt1lww14lcxvrfiazrbkvs,10,3,58,md,2,0.0,1.0,13.178,1,1,0.0
3qdt1lww14lcxvrfiazrbkvs,11,3,35,pd,1,1.0,0.0,1.538,1,1,0.0
3qdt1lww14lcxvrfiazrbkvs,12,3,76,pd,2,3.0,0.0,0.739,1,1,0.0
3xlyknpl9gb0nuadoa5yxf5u,1,3,71,pd,1,0.0,1.0,7.064,1,1,0.0
3xlyknpl9gb0nuadoa5yxf5u,2,3,55,pd,2,0.0,1.0,19.171,1,1,0.0
3xlyknpl9gb0nuadoa5yxf5u,3,3,30,pd,3,0.0,1.0,14.784,1,1,0.0
3xlyknpl9gb0nuadoa5yxf5u,4,3,45,pd,1,0.0,1.0,10.636,1,1,0.0
3xlyknpl9gb0nuadoa5yxf5u,5,3,11,pd,2,,,,1,1,0.0
3xlyknpl9gb0nuadoa5yxf5u,6,3,29,pd,3,0.0,1.0,16.083,1,1,0.0
3xlyknpl9gb0nuadoa5yxf5u,7,3,16,md,1,0.0,1.0,22.536,1,1,0.0
3xlyknpl9gb0nuadoa5yxf5u,8,3,17,pd,2,0.0,1.0,23.061,1,1,0.0
3xlyknpl9gb0nuadoa5yxf5u,9,3,23,md,3,0.0,1.0,12.912,1,1,0.0
3xlyknpl9gb0nuadoa5yxf5u,10,3,58,md,1,0.0,1.0,13.383,1,1,0.0
3xlyknpl9gb0nuadoa5yxf5u,11,3,35,pd,2,,,,1,1,0.0
3xlyknpl9gb0nuadoa5yxf5u,12,3,76,pd,3,1.0,0.0,23.804,1,1,0.0
3z313k9zkv5l8l0tvaulhw9t,1,3,71,pd,1,,,,1,1,0.0
3z313k9zkv5l8l0tvaulhw9t,2,3,55,pd,2,0.0,1.0,2.85,1,1,0.0
3z313k9zkv5l8l0tvaulhw9t,3,3,30,pd,3,2.0,0.0,2.68,1,1,0.0
3z313k9zkv5l8l0tvaulhw9t,4,3,45,pd,1,0.0,1.0,6.505,1,1,0.0
3z313k9zkv5l8l0tvaulhw9t,5,3,11,pd,2,3.0,0.0,7.603,1,1,0.0
3z313k9zkv5l8l0tvaulhw9t,6,3,29,pd,3,1.0,0.0,2.366,1,1,0.0
3z313k9zkv5l8l0tvaulhw9t,7,3,16,md,1,3.0,0.0,3.999,1,1,0.0
3z313k9zkv5l8l0tvaulhw9t,8,3,17,pd,2,3.0,0.0,9.346,1,1,0.0
3z313k9zkv5l8l0tvaulhw9t,9,3,23,md,3,0.0,1.0,5.714,1,1,0.0
3z313k9zkv5l8l0tvaulhw9t,10,3,58,md,1,3.0,0.0,4.173,1,1,0.0
3z313k9zkv5l8l0tvaulhw9t,11,3,35,pd,2,1.0,0.0,6.353,1,1,0.0
3z313k9zkv5l8l0tvaulhw9t,12,3,76,pd,3,3.0,0.0,15.532,1,1,0.0
3ziqmxy057hwbqabl8a7s7vx,1,3,71,pd,3,2.0,0.0,2.989,1,1,0.0
3ziqmxy057hwbqabl8a7s7vx,2,3,55,pd,1,0.0,1.0,10.18,1,1,0.0
3ziqmxy057hwbqabl8a7s7vx,3,3,30,pd,2,0.0,1.0,19.192,1,1,0.0
3ziqmxy057hwbqabl8a7s7vx,4,3,45,pd,3,0.0,1.0,10.584,1,1,0.0
3ziqmxy057hwbqabl8a7s7vx,5,3,11,pd,1,0.0,1.0,19.163,1,1,0.0
3ziqmxy057hwbqabl8a7s7vx,6,3,29,pd,2,0.0,1.0,28.106,1,1,0.0
3ziqmxy057hwbqabl8a7s7vx,7,3,16,md,3,0.0,1.0,14.056,1,1,0.0
3ziqmxy057hwbqabl8a7s7vx,8,3,17,pd,1,0.0,1.0,29.856,1,1,0.0
3ziqmxy057hwbqabl8a7s7vx,9,3,23,md,2,0.0,1.0,16.388,1,1,0.0
3ziqmxy057hwbqabl8a7s7vx,10,3,58,md,3,0.0,1.0,20.782,1,1,0.0
3ziqmxy057hwbqabl8a7s7vx,11,3,35,pd,1,0.0,1.0,14.563,1,1,0.0
3ziqmxy057hwbqabl8a7s7vx,12,3,76,pd,2,2.0,0.0,29.36,1,1,0.0
3zxzh1l2mt8r1m2qmgej0gs9,1,3,71,pd,2,0.0,1.0,25.178,1,1,0.0
3zxzh1l2mt8r1m2qmgej0gs9,2,3,55,pd,1,0.0,1.0,24.476,1,1,0.0
3zxzh1l2mt8r1m2qmgej0gs9,3,3,30,pd,2,3.0,0.0,23.624,1,1,0.0
3zxzh1l2mt8r1m2qmgej0gs9,4,3,45,pd,2,0.0,1.0,17.047,1,1,0.0
3zxzh1l2mt8r1m2qmgej0gs9,5,3,11,pd,3,0.0,1.0,18.534,1,1,0.0
3zxzh1l2mt8r1m2qmgej0gs9,6,3,29,pd,2,0.0,1.0,19.187,1,1,0.0
3zxzh1l2mt8r1m2qmgej0gs9,7,3,16,md,2,0.0,1.0,10.677,1,1,0.0
3zxzh1l2mt8r1m2qmgej0gs9,8,3,17,pd,3,1.0,0.0,25.93,1,1,0.0
3zxzh1l2mt8r1m2qmgej0gs9,9,3,23,md,2,3.0,0.0,28.466,1,1,0.0
3zxzh1l2mt8r1m2qmgej0gs9,10,3,58,md,2,0.0,1.0,9.088,1,1,0.0
3zxzh1l2mt8r1m2qmgej0gs9,11,3,35,pd,3,2.0,0.0,28.416,1,1,0.0
3zxzh1l2mt8r1m2qmgej0gs9,12,3,76,pd,2,0.0,1.0,21.847,1,1,0.0
41ajss1627t281ibnqit1qsw,1,3,71,pd,3,0.0,1.0,6.122,1,1,0.0
41ajss1627t281ibnqit1qsw,2,3,55,pd,1,0.0,1.0,11.97,1,1,0.0
41ajss1627t281ibnqit1qsw,3,3,30,pd,2,0.0,1.0,9.677,1,1,0.0
41ajss1627t281ibnqit1qsw,4,3,45,pd,3,0.0,1.0,9.05,1,1,0.0
41ajss1627t281ibnqit1qsw,5,3,11,pd,1,0.0,1.0,10.961,1,1,0.0
41ajss1627t281ibnqit1qsw,6,3,29,pd,2,0.0,1.0,9.553,1,1,0.0
41ajss1627t281ibnqit1qsw,7,3,16,md,3,3.0,0.0,11.338,1,1,0.0
41ajss1627t281ibnqit1qsw,8,3,17,pd,1,0.0,1.0,10.569,1,1,0.0
41ajss1627t281ibnqit1qsw,9,3,23,md,2,0.0,1.0,14.282,1,1,0.0
41ajss1627t281ibnqit1qsw,10,3,58,md,3,0.0,1.0,13.325,1,1,0.0
41ajss1627t281ibnqit1qsw,11,3,35,pd,1,1.0,0.0,10.169,1,1,0.0
41ajss1627t281ibnqit1qsw,12,3,76,pd,2,2.0,0.0,6.762,1,1,0.0
41wk1pam6jtdlgk7cale7lh8,1,3,71,pd,2,0.0,1.0,15.981,1,1,0.0
41wk1pam6jtdlgk7cale7lh8,2,3,55,pd,3,0.0,1.0,21.427,1,1,0.0
41wk1pam6jtdlgk7cale7lh8,3,3,30,pd,1,0.0,1.0,10.536,1,1,0.0
41wk1pam6jtdlgk7cale7lh8,4,3,45,pd,2,0.0,1.0,11.419,1,1,0.0
41wk1pam6jtdlgk7cale7lh8,5,3,11,pd,3,0.0,1.0,11.099,1,1,0.0
41wk1pam6jtdlgk7cale7lh8,6,3,29,pd,1,0.0,1.0,12.142,1,1,0.0
41wk1pam6jtdlgk7cale7lh8,7,3,16,md,2,0.0,1.0,12.088,1,1,0.0
41wk1pam6jtdlgk7cale7lh8,8,3,17,pd,3,0.0,1.0,20.243,1,1,0.0
41wk1pam6jtdlgk7cale7lh8,9,3,23,md,1,0.0,1.0,13.085,1,1,0.0
41wk1pam6jtdlgk7cale7lh8,10,3,58,md,2,0.0,1.0,18.078,1,1,0.0
41wk1pam6jtdlgk7cale7lh8,11,3,35,pd,3,1.0,0.0,28.749,1,1,0.0
41wk1pam6jtdlgk7cale7lh8,12,3,76,pd,1,2.0,0.0,29.2,1,1,0.0
438ohfulofqhhxbnbv10v1lv,1,3,71,pd,1,2.0,0.0,6.484,1,1,0.0
438ohfulofqhhxbnbv10v1lv,2,3,55,pd,2,1.0,0.0,13.061,1,1,0.0
438ohfulofqhhxbnbv10v1lv,3,3,30,pd,3,3.0,0.0,12.296,1,1,0.0
438ohfulofqhhxbnbv10v1lv,4,3,45,pd,1,0.0,1.0,11.05,1,1,0.0
438ohfulofqhhxbnbv10v1lv,5,3,11,pd,2,0.0,1.0,13.988,1,1,0.0
438ohfulofqhhxbnbv10v1lv,6,3,29,pd,3,0.0,1.0,19.974,1,1,0.0
438ohfulofqhhxbnbv10v1lv,7,3,16,md,1,0.0,1.0,15.895,1,1,0.0
438ohfulofqhhxbnbv10v1lv,8,3,17,pd,2,0.0,1.0,15.696,1,1,0.0
438ohfulofqhhxbnbv10v1lv,9,3,23,md,3,1.0,0.0,13.605,1,1,0.0
438ohfulofqhhxbnbv10v1lv,10,3,58,md,1,1.0,0.0,21.876,1,1,0.0
438ohfulofqhhxbnbv10v1lv,11,3,35,pd,2,2.0,0.0,16.082,1,1,0.0
438ohfulofqhhxbnbv10v1lv,12,3,76,pd,3,2.0,0.0,18.038,1,1,0.0
4860s149fvexikc9f5ukhza6,1,3,71,pd,2,0.0,1.0,5.942,1,1,0.0
4860s149fvexikc9f5ukhza6,2,3,55,pd,3,0.0,1.0,6.345,1,1,0.0
4860s149fvexikc9f5ukhza6,3,3,30,pd,1,0.0,1.0,13.445,1,1,0.0
4860s149fvexikc9f5ukhza6,4,3,45,pd,2,0.0,1.0,17.638,1,1,0.0
4860s149fvexikc9f5ukhza6,5,3,11,pd,3,0.0,1.0,13.97,1,1,0.0
4860s149fvexikc9f5ukhza6,6,3,29,pd,1,0.0,1.0,10.351,1,1,0.0
4860s149fvexikc9f5ukhza6,7,3,16,md,2,0.0,1.0,10.32,1,1,0.0
4860s149fvexikc9f5ukhza6,8,3,17,pd,3,2.0,0.0,26.845,1,1,0.0
4860s149fvexikc9f5ukhza6,9,3,23,md,1,3.0,0.0,10.727,1,1,0.0
4860s149fvexikc9f5ukhza6,10,3,58,md,2,1.0,0.0,25.901,1,1,0.0
4860s149fvexikc9f5ukhza6,11,3,35,pd,3,2.0,0.0,12.606,1,1,0.0
4860s149fvexikc9f5ukhza6,12,3,76,pd,1,0.0,1.0,9.227,1,1,0.0
4aar93sek9rg8u03m3jgjxei,1,3,71,pd,3,0.0,1.0,6.105,1,1,0.0
4aar93sek9rg8u03m3jgjxei,2,3,55,pd,1,0.0,1.0,15.543,1,1,0.0
4aar93sek9rg8u03m3jgjxei,3,3,30,pd,2,0.0,1.0,21.05,1,1,0.0
4aar93sek9rg8u03m3jgjxei,4,3,45,pd,3,0.0,1.0,13.601,1,1,0.0
4aar93sek9rg8u03m3jgjxei,5,3,11,pd,1,3.0,0.0,26.702,1,1,0.0
4aar93sek9rg8u03m3jgjxei,6,3,29,pd,2,,,,1,1,0.0
4aar93sek9rg8u03m3jgjxei,7,3,16,md,3,1.0,0.0,29.603,1,1,0.0
4aar93sek9rg8u03m3jgjxei,8,3,17,pd,1,1.0,0.0,11.058,1,1,0.0
4aar93sek9rg8u03m3jgjxei,9,3,23,md,2,1.0,0.0,28.204,1,1,0.0
4aar93sek9rg8u03m3jgjxei,10,3,58,md,3,1.0,0.0,15.239,1,1,0.0
4aar93sek9rg8u03m3jgjxei,11,3,35,pd,1,0.0,1.0,19.28,1,1,0.0
4aar93sek9rg8u03m3jgjxei,12,3,76,pd,2,0.0,1.0,6.717,1,1,0.0
4alka6co6e15hjikm87bbjkz,1,3,71,pd,3,0.0,1.0,6.631,1,1,0.0
4alka6co6e15hjikm87bbjkz,2,3,55,pd,1,0.0,1.0,6.31,1,1,0.0
4alka6co6e15hjikm87bbjkz,3,3,30,pd,2,3.0,0.0,7.302,1,1,0.0
4alka6co6e15hjikm87bbjkz,4,3,45,pd,3,0.0,1.0,6.613,1,1,0.0
4alka6co6e15hjikm87bbjkz,5,3,11,pd,1,3.0,0.0,14.567,1,1,0.0
4alka6co6e15hjikm87bbjkz,6,3,29,pd,2,3.0,0.0,11.095,1,1,0.0
4alka6co6e15hjikm87bbjkz,7,3,16,md,3,3.0,0.0,14.615,1,1,0.0
4alka6co6e15hjikm87bbjkz,8,3,17,pd,1,0.0,1.0,12.08,1,1,0.0
4alka6co6e15hjikm87bbjkz,9,3,23,md,2,3.0,0.0,9.415,1,1,0.0
4alka6co6e15hjikm87bbjkz,10,3,58,md,3,0.0,1.0,4.439,1,1,0.0
4alka6co6e15hjikm87bbjkz,11,3,35,pd,1,2.0,0.0,4.424,1,1,0.0
4alka6co6e15hjikm87bbjkz,12,3,76,pd,2,1.0,0.0,3.508,1,1,0.0
4aux5txdh7un1ahtd274idwj,1,3,71,pd,1,2.0,0.0,15.715,1,1,0.0
4aux5txdh7un1ahtd274idwj,2,3,55,pd,2,0.0,1.0,20.887,1,1,0.0
4aux5txdh7un1ahtd274idwj,3,3,30,pd,3,0.0,1.0,15.49,1,1,0.0
4aux5txdh7un1ahtd274idwj,4,3,45,pd,1,0.0,1.0,11.13,1,1,0.0
4aux5txdh7un1ahtd274idwj,5,3,11,pd,2,2.0,0.0,15.076,1,1,0.0
4aux5txdh7un1ahtd274idwj,6,3,29,pd,3,1.0,0.0,20.1,1,1,0.0
4aux5txdh7un1ahtd274idwj,7,3,16,md,1,0.0,1.0,21.012,1,1,0.0
4aux5txdh7un1ahtd274idwj,8,3,17,pd,2,0.0,1.0,22.378,1,1,0.0
4aux5txdh7un1ahtd274idwj,9,3,23,md,3,0.0,1.0,15.878,1,1,0.0
4aux5txdh7un1ahtd274idwj,10,3,58,md,1,0.0,1.0,14.643,1,1,0.0
4aux5txdh7un1ahtd274idwj,11,3,35,pd,2,0.0,1.0,22.982,1,1,0.0
4aux5txdh7un1ahtd274idwj,12,3,76,pd,3,2.0,0.0,20.301,1,1,0.0
4cxyj4dfixaii8ddxcr9c57l,1,3,71,pd,1,0.0,1.0,8.683,1,1,0.0
4cxyj4dfixaii8ddxcr9c57l,2,3,55,pd,2,1.0,0.0,14.403,1,1,0.0
4cxyj4dfixaii8ddxcr9c57l,3,3,30,pd,3,0.0,1.0,16.156,1,1,0.0
4cxyj4dfixaii8ddxcr9c57l,4,3,45,pd,1,0.0,1.0,17.203,1,1,0.0
4cxyj4dfixaii8ddxcr9c57l,5,3,11,pd,2,0.0,1.0,23.274,1,1,0.0
4cxyj4dfixaii8ddxcr9c57l,6,3,29,pd,3,0.0,1.0,18.854,1,1,0.0
4cxyj4dfixaii8ddxcr9c57l,7,3,16,md,1,0.0,1.0,19.944,1,1,0.0
4cxyj4dfixaii8ddxcr9c57l,8,3,17,pd,2,0.0,1.0,26.087,1,1,0.0
4cxyj4dfixaii8ddxcr9c57l,9,3,23,md,3,0.0,1.0,20.994,1,1,0.0
4cxyj4dfixaii8ddxcr9c57l,10,3,58,md,1,0.0,1.0,18.25,1,1,0.0
4cxyj4dfixaii8ddxcr9c57l,11,3,35,pd,2,0.0,1.0,21.748,1,1,0.0
4cxyj4dfixaii8ddxcr9c57l,12,3,76,pd,3,0.0,1.0,12.737,1,1,0.0
4dk0dacpzdaexmx76ot1pusf,1,3,71,pd,1,2.0,0.0,7.884,1,1,0.0
4dk0dacpzdaexmx76ot1pusf,2,3,55,pd,2,0.0,1.0,17.725,1,1,0.0
4dk0dacpzdaexmx76ot1pusf,3,3,30,pd,3,0.0,1.0,20.148,1,1,0.0
4dk0dacpzdaexmx76ot1pusf,4,3,45,pd,1,2.0,0.0,7.838,1,1,0.0
4dk0dacpzdaexmx76ot1pusf,5,3,11,pd,2,0.0,1.0,20.913,1,1,0.0
4dk0dacpzdaexmx76ot1pusf,6,3,29,pd,3,3.0,0.0,18.37,1,1,0.0
4dk0dacpzdaexmx76ot1pusf,7,3,16,md,1,0.0,1.0,13.107,1,1,0.0
4dk0dacpzdaexmx76ot1pusf,8,3,17,pd,2,1.0,0.0,25.764,1,1,0.0
4dk0dacpzdaexmx76ot1pusf,9,3,23,md,3,3.0,0.0,15.33,1,1,0.0
4dk0dacpzdaexmx76ot1pusf,10,3,58,md,1,0.0,1.0,10.564,1,1,0.0
4dk0dacpzdaexmx76ot1pusf,11,3,35,pd,2,0.0,1.0,26.182,1,1,0.0
4dk0dacpzdaexmx76ot1pusf,12,3,76,pd,3,3.0,0.0,11.971,1,1,0.0
4dsinf5it1vmhp2qvqf6hmqv,1,3,71,pd,1,2.0,0.0,8.73,1,1,0.0
4dsinf5it1vmhp2qvqf6hmqv,2,3,55,pd,2,1.0,0.0,9.082,1,1,0.0
4dsinf5it1vmhp2qvqf6hmqv,3,3,30,pd,3,0.0,1.0,11.233,1,1,0.0
4dsinf5it1vmhp2qvqf6hmqv,4,3,45,pd,1,0.0,1.0,11.119,1,1,0.0
4dsinf5it1vmhp2qvqf6hmqv,5,3,11,pd,2,2.0,0.0,16.327,1,1,0.0
4dsinf5it1vmhp2qvqf6hmqv,6,3,29,pd,3,3.0,0.0,2.529,0,1,0.0
4dsinf5it1vmhp2qvqf6hmqv,7,3,16,md,1,3.0,0.0,13.56,1,1,0.0
4dsinf5it1vmhp2qvqf6hmqv,8,3,17,pd,2,1.0,0.0,12.276,1,1,0.0
4dsinf5it1vmhp2qvqf6hmqv,9,3,23,md,3,3.0,0.0,13.462,1,1,0.0
4dsinf5it1vmhp2qvqf6hmqv,10,3,58,md,1,0.0,1.0,9.401,1,1,0.0
4dsinf5it1vmhp2qvqf6hmqv,11,3,35,pd,2,0.0,1.0,17.85,1,1,0.0
4dsinf5it1vmhp2qvqf6hmqv,12,3,76,pd,3,0.0,1.0,2.788,0,1,0.0
4hlkg7e0t6hn3w6ipvysjz5m,1,3,71,pd,1,2.0,0.0,5.628,1,1,0.0
4hlkg7e0t6hn3w6ipvysjz5m,2,3,55,pd,2,1.0,0.0,16.46,1,1,0.0
4hlkg7e0t6hn3w6ipvysjz5m,3,3,30,pd,3,3.0,0.0,11.162,1,1,0.0
4hlkg7e0t6hn3w6ipvysjz5m,4,3,45,pd,1,2.0,0.0,14.41,1,1,0.0
4hlkg7e0t6hn3w6ipvysjz5m,5,3,11,pd,2,1.0,0.0,11.435,1,1,0.0
4hlkg7e0t6hn3w6ipvysjz5m,6,3,29,pd,3,3.0,0.0,13.579,1,1,0.0
4hlkg7e0t6hn3w6ipvysjz5m,7,3,16,md,1,3.0,0.0,12.546,1,1,0.0
4hlkg7e0t6hn3w6ipvysjz5m,8,3,17,pd,2,1.0,0.0,19.859,1,1,0.0
4hlkg7e0t6hn3w6ipvysjz5m,9,3,23,md,3,3.0,0.0,13.674,1,1,0.0
4hlkg7e0t6hn3w6ipvysjz5m,10,3,58,md,1,0.0,1.0,16.867,1,1,0.0
4hlkg7e0t6hn3w6ipvysjz5m,11,3,35,pd,2,0.0,1.0,9.539,1,1,0.0
4hlkg7e0t6hn3w6ipvysjz5m,12,3,76,pd,3,2.0,0.0,11.748,1,1,0.0
4ksp68f45oxl9g3grsns8pyz,1,3,71,pd,2,0.0,1.0,8.21,1,1,0.0
4ksp68f45oxl9g3grsns8pyz,2,3,55,pd,3,0.0,1.0,9.477,1,1,0.0
4ksp68f45oxl9g3grsns8pyz,3,3,30,pd,2,0.0,1.0,11.353,1,1,0.0
4ksp68f45oxl9g3grsns8pyz,4,3,45,pd,2,0.0,1.0,10.619,1,1,0.0
4ksp68f45oxl9g3grsns8pyz,5,3,11,pd,3,0.0,1.0,16.492,1,1,0.0
4ksp68f45oxl9g3grsns8pyz,6,3,29,pd,2,2.0,0.0,17.057,1,1,0.0
4ksp68f45oxl9g3grsns8pyz,7,3,16,md,2,0.0,1.0,17.443,1,1,0.0
4ksp68f45oxl9g3grsns8pyz,8,3,17,pd,1,1.0,0.0,7.411,1,1,0.0
4ksp68f45oxl9g3grsns8pyz,9,3,23,md,2,0.0,1.0,13.931,1,1,0.0
4ksp68f45oxl9g3grsns8pyz,10,3,58,md,2,0.0,1.0,7.775,1,1,0.0
4ksp68f45oxl9g3grsns8pyz,11,3,35,pd,1,0.0,1.0,1.84,1,1,0.0
4ksp68f45oxl9g3grsns8pyz,12,3,76,pd,2,2.0,0.0,1.33,1,1,0.0
4n1m9d3petpxgtdj0lrvxqey,1,3,71,pd,3,0.0,1.0,7.565,1,1,0.0
4n1m9d3petpxgtdj0lrvxqey,2,3,55,pd,1,0.0,1.0,7.544,1,1,0.0
4n1m9d3petpxgtdj0lrvxqey,3,3,30,pd,2,0.0,1.0,9.37,1,1,0.0
4n1m9d3petpxgtdj0lrvxqey,4,3,45,pd,3,0.0,1.0,17.019,1,1,0.0
4n1m9d3petpxgtdj0lrvxqey,5,3,11,pd,1,3.0,0.0,18.686,1,1,0.0
4n1m9d3petpxgtdj0lrvxqey,6,3,29,pd,2,0.0,1.0,16.245,1,1,0.0
4n1m9d3petpxgtdj0lrvxqey,7,3,16,md,3,1.0,0.0,6.966,1,1,0.0
4n1m9d3petpxgtdj0lrvxqey,8,3,17,pd,1,1.0,0.0,22.54,1,1,0.0
4n1m9d3petpxgtdj0lrvxqey,9,3,23,md,2,0.0,1.0,22.597,1,1,0.0
4n1m9d3petpxgtdj0lrvxqey,10,3,58,md,3,0.0,1.0,16.511,1,1,0.0
4n1m9d3petpxgtdj0lrvxqey,11,3,35,pd,1,1.0,0.0,16.198,1,1,0.0
4n1m9d3petpxgtdj0lrvxqey,12,3,76,pd,2,0.0,1.0,9.757,1,1,0.0
4qbktuwkhw43sei43s7jpjje,1,3,71,pd,2,2.0,0.0,5.626,1,1,0.0
4qbktuwkhw43sei43s7jpjje,2,3,55,pd,3,0.0,1.0,7.137,1,1,0.0
4qbktuwkhw43sei43s7jpjje,3,3,30,pd,1,2.0,0.0,8.968,1,1,0.0
4qbktuwkhw43sei43s7jpjje,4,3,45,pd,2,0.0,1.0,8.468,1,1,0.0
4qbktuwkhw43sei43s7jpjje,5,3,11,pd,3,3.0,0.0,9.894,1,1,0.0
4qbktuwkhw43sei43s7jpjje,6,3,29,pd,1,0.0,1.0,8.994,1,1,0.0
4qbktuwkhw43sei43s7jpjje,7,3,16,md,2,1.0,0.0,9.964,1,1,0.0
4qbktuwkhw43sei43s7jpjje,8,3,17,pd,3,2.0,0.0,9.551,1,1,0.0
4qbktuwkhw43sei43s7jpjje,9,3,23,md,1,0.0,1.0,9.694,1,1,0.0
4qbktuwkhw43sei43s7jpjje,10,3,58,md,2,0.0,1.0,6.573,1,1,0.0
4qbktuwkhw43sei43s7jpjje,11,3,35,pd,3,2.0,0.0,13.341,1,1,0.0
4qbktuwkhw43sei43s7jpjje,12,3,76,pd,1,2.0,0.0,9.012,1,1,0.0
4qnv72s78t4iu8l5im81law0,1,3,71,pd,3,0.0,1.0,11.418,1,1,0.0
4qnv72s78t4iu8l5im81law0,2,3,55,pd,1,0.0,1.0,7.068,1,1,0.0
4qnv72s78t4iu8l5im81law0,3,3,30,pd,2,0.0,1.0,7.984,1,1,0.0
4qnv72s78t4iu8l5im81law0,4,3,45,pd,3,0.0,1.0,19.727,1,1,0.0
4qnv72s78t4iu8l5im81law0,5,3,11,pd,1,0.0,1.0,22.779,1,1,0.0
4qnv72s78t4iu8l5im81law0,6,3,29,pd,2,0.0,1.0,12.619,1,1,0.0
4qnv72s78t4iu8l5im81law0,7,3,16,md,3,0.0,1.0,28.584,1,1,0.0
4qnv72s78t4iu8l5im81law0,8,3,17,pd,1,,,,1,1,0.0
4qnv72s78t4iu8l5im81law0,9,3,23,md,2,0.0,1.0,25.983,1,1,0.0
4qnv72s78t4iu8l5im81law0,10,3,58,md,3,0.0,1.0,27.29,1,1,0.0
4qnv72s78t4iu8l5im81law0,11,3,35,pd,1,0.0,1.0,13.623,1,1,0.0
4qnv72s78t4iu8l5im81law0,12,3,76,pd,2,0.0,1.0,9.97,1,1,0.0
53kzdflbudey66baph2a4p9n,1,3,71,pd,1,0.0,1.0,11.917,1,1,0.0
53kzdflbudey66baph2a4p9n,2,3,55,pd,2,0.0,1.0,20.749,1,1,0.0
53kzdflbudey66baph2a4p9n,3,3,30,pd,3,0.0,1.0,19.914,1,1,0.0
53kzdflbudey66baph2a4p9n,4,3,45,pd,1,0.0,1.0,25.633,1,1,0.0
53kzdflbudey66baph2a4p9n,5,3,11,pd,2,0.0,1.0,13.114,1,1,0.0
53kzdflbudey66baph2a4p9n,6,3,29,pd,3,0.0,1.0,19.641,1,1,0.0
53kzdflbudey66baph2a4p9n,7,3,16,md,1,0.0,1.0,15.502,1,1,0.0
53kzdflbudey66baph2a4p9n,8,3,17,pd,2,0.0,1.0,16.21,1,1,0.0
53kzdflbudey66baph2a4p9n,9,3,23,md,3,0.0,1.0,16.54,1,1,0.0
53kzdflbudey66baph2a4p9n,10,3,58,md,1,0.0,1.0,18.037,1,1,0.0
53kzdflbudey66baph2a4p9n,11,3,35,pd,2,0.0,1.0,13.897,1,1,0.0
53kzdflbudey66baph2a4p9n,12,3,76,pd,3,0.0,1.0,21.733,1,1,0.0
56h64nq2o5zuwljavox4i31d,1,3,71,pd,2,2.0,0.0,7.888,1,1,0.0
56h64nq2o5zuwljavox4i31d,2,3,55,pd,3,0.0,1.0,6.751,1,1,0.0
56h64nq2o5zuwljavox4i31d,3,3,30,pd,1,0.0,1.0,5.898,1,1,0.0
56h64nq2o5zuwljavox4i31d,4,3,45,pd,2,2.0,0.0,7.052,1,1,0.0
56h64nq2o5zuwljavox4i31d,5,3,11,pd,3,3.0,0.0,12.22,1,1,0.0
56h64nq2o5zuwljavox4i31d,6,3,29,pd,1,0.0,1.0,6.395,1,1,0.0
56h64nq2o5zuwljavox4i31d,7,3,16,md,2,0.0,1.0,10.688,1,1,0.0
56h64nq2o5zuwljavox4i31d,8,3,17,pd,3,1.0,0.0,17.245,1,1,0.0
56h64nq2o5zuwljavox4i31d,9,3,23,md,1,0.0,1.0,10.643,1,1,0.0
56h64nq2o5zuwljavox4i31d,10,3,58,md,2,0.0,1.0,12.372,1,1,0.0
56h64nq2o5zuwljavox4i31d,11,3,35,pd,3,0.0,1.0,8.717,1,1,0.0
56h64nq2o5zuwljavox4i31d,12,3,76,pd,1,3.0,0.0,12.069,1,1,0.0
59zjs1m6bwy5kx28gu4hwgwj,1,3,71,pd,3,0.0,1.0,9.025,1,1,0.0
59zjs1m6bwy5kx28gu4hwgwj,2,3,55,pd,1,0.0,1.0,20.002,1,1,0.0
59zjs1m6bwy5kx28gu4hwgwj,3,3,30,pd,2,0.0,1.0,19.874,1,1,0.0
59zjs1m6bwy5kx28gu4hwgwj,4,3,45,pd,3,0.0,1.0,27.879,1,1,0.0
59zjs1m6bwy5kx28gu4hwgwj,5,3,11,pd,1,0.0,1.0,26.028,1,1,0.0
59zjs1m6bwy5kx28gu4hwgwj,6,3,29,pd,2,0.0,1.0,10.179,1,1,0.0
59zjs1m6bwy5kx28gu4hwgwj,7,3,16,md,3,0.0,1.0,17.109,1,1,0.0
59zjs1m6bwy5kx28gu4hwgwj,8,3,17,pd,1,0.0,1.0,16.613,1,1,0.0
59zjs1m6bwy5kx28gu4hwgwj,9,3,23,md,2,0.0,1.0,11.79,1,1,0.0
59zjs1m6bwy5kx28gu4hwgwj,10,3,58,md,3,0.0,1.0,15.555,1,1,0.0
59zjs1m6bwy5kx28gu4hwgwj,11,3,35,pd,1,0.0,1.0,15.452,1,1,0.0
59zjs1m6bwy5kx28gu4hwgwj,12,3,76,pd,2,0.0,1.0,16.614,1,1,0.0
5bj63tfobt71iq76e6y2ee8h,1,3,71,pd,3,0.0,1.0,12.161,1,1,0.0
5bj63tfobt71iq76e6y2ee8h,2,3,55,pd,1,2.0,0.0,16.069,1,1,0.0
5bj63tfobt71iq76e6y2ee8h,3,3,30,pd,2,0.0,1.0,17.081,1,1,0.0
5bj63tfobt71iq76e6y2ee8h,4,3,45,pd,3,0.0,1.0,10.158,1,1,0.0
5bj63tfobt71iq76e6y2ee8h,5,3,11,pd,1,0.0,1.0,12.931,1,1,0.0
5bj63tfobt71iq76e6y2ee8h,6,3,29,pd,2,0.0,1.0,14.435,1,1,0.0
5bj63tfobt71iq76e6y2ee8h,7,3,16,md,3,0.0,1.0,20.725,1,1,0.0
5bj63tfobt71iq76e6y2ee8h,8,3,17,pd,1,0.0,1.0,11.151,1,1,0.0
5bj63tfobt71iq76e6y2ee8h,9,3,23,md,2,0.0,1.0,16.173,1,1,0.0
5bj63tfobt71iq76e6y2ee8h,10,3,58,md,3,0.0,1.0,19.512,1,1,0.0
5bj63tfobt71iq76e6y2ee8h,11,3,35,pd,1,0.0,1.0,22.238,1,1,0.0
5bj63tfobt71iq76e6y2ee8h,12,3,76,pd,2,0.0,1.0,13.182,1,1,0.0
5c1maa4ipzlitwl4e92h9q0e,1,3,71,pd,1,0.0,1.0,8.146,1,1,0.0
5c1maa4ipzlitwl4e92h9q0e,2,3,55,pd,2,0.0,1.0,13.816,1,1,0.0
5c1maa4ipzlitwl4e92h9q0e,3,3,30,pd,3,0.0,1.0,14.892,1,1,0.0
5c1maa4ipzlitwl4e92h9q0e,4,3,45,pd,1,0.0,1.0,16.528,1,1,0.0
5c1maa4ipzlitwl4e92h9q0e,5,3,11,pd,2,0.0,1.0,28.386,1,1,0.0
5c1maa4ipzlitwl4e92h9q0e,6,3,29,pd,3,0.0,1.0,13.94,1,1,0.0
5c1maa4ipzlitwl4e92h9q0e,7,3,16,md,1,0.0,1.0,17.969,1,1,0.0
5c1maa4ipzlitwl4e92h9q0e,8,3,17,pd,2,0.0,1.0,26.87,1,1,0.0
5c1maa4ipzlitwl4e92h9q0e,9,3,23,md,3,0.0,1.0,20.335,1,1,0.0
5c1maa4ipzlitwl4e92h9q0e,10,3,58,md,1,0.0,1.0,13.789,1,1,0.0
5c1maa4ipzlitwl4e92h9q0e,11,3,35,pd,2,0.0,1.0,29.961,1,1,0.0
5c1maa4ipzlitwl4e92h9q0e,12,3,76,pd,3,0.0,1.0,23.368,1,1,0.0
5e689f8cytlli9jwv6erg899,1,3,71,pd,1,0.0,1.0,6.398,1,1,0.0
5e689f8cytlli9jwv6erg899,2,3,55,pd,2,0.0,1.0,12.434,1,1,0.0
5e689f8cytlli9jwv6erg899,3,3,30,pd,3,0.0,1.0,18.21,1,1,0.0
5e689f8cytlli9jwv6erg899,4,3,45,pd,1,0.0,1.0,16.041,1,1,0.0
5e689f8cytlli9jwv6erg899,5,3,11,pd,2,0.0,1.0,28.799,1,1,0.0
5e689f8cytlli9jwv6erg899,6,3,29,pd,3,0.0,1.0,11.252,1,1,0.0
5e689f8cytlli9jwv6erg899,7,3,16,md,1,0.0,1.0,15.526,1,1,0.0
5e689f8cytlli9jwv6erg899,8,3,17,pd,2,0.0,1.0,29.318,1,1,0.0
5e689f8cytlli9jwv6erg899,9,3,23,md,3,3.0,0.0,19.668,1,1,0.0
5e689f8cytlli9jwv6erg899,10,3,58,md,1,0.0,1.0,12.121,1,1,0.0
5e689f8cytlli9jwv6erg899,11,3,35,pd,2,0.0,1.0,27.185,1,1,0.0
5e689f8cytlli9jwv6erg899,12,3,76,pd,3,0.0,1.0,18.142,1,1,0.0
5l2u7j2h21z19tcxhsjk2c08,1,3,71,pd,2,0.0,1.0,8.92,1,1,0.0
5l2u7j2h21z19tcxhsjk2c08,2,3,55,pd,3,0.0,1.0,24.807,1,1,0.0
5l2u7j2h21z19tcxhsjk2c08,3,3,30,pd,1,2.0,0.0,27.02,1,1,0.0
5l2u7j2h21z19tcxhsjk2c08,4,3,45,pd,2,0.0,1.0,17.914,1,1,0.0
5l2u7j2h21z19tcxhsjk2c08,5,3,11,pd,3,0.0,1.0,12.254,1,1,0.0
5l2u7j2h21z19tcxhsjk2c08,6,3,29,pd,1,2.0,0.0,24.176,1,1,0.0
5l2u7j2h21z19tcxhsjk2c08,7,3,16,md,2,0.0,1.0,17.741,1,1,0.0
5l2u7j2h21z19tcxhsjk2c08,8,3,17,pd,3,1.0,0.0,28.247,1,1,0.0
5l2u7j2h21z19tcxhsjk2c08,9,3,23,md,1,0.0,1.0,25.752,1,1,0.0
5l2u7j2h21z19tcxhsjk2c08,10,3,58,md,2,0.0,1.0,14.922,1,1,0.0
5l2u7j2h21z19tcxhsjk2c08,11,3,35,pd,3,0.0,1.0,16.981,1,1,0.0
5l2u7j2h21z19tcxhsjk2c08,12,3,76,pd,1,3.0,0.0,18.774,1,1,0.0
5u07f1czvi0xb50zn16xcgg8,1,3,71,pd,3,0.0,1.0,5.634,1,1,0.0
5u07f1czvi0xb50zn16xcgg8,2,3,55,pd,1,1.0,0.0,8.731,1,1,0.0
5u07f1czvi0xb50zn16xcgg8,3,3,30,pd,2,0.0,1.0,6.666,1,1,0.0
5u07f1czvi0xb50zn16xcgg8,4,3,45,pd,3,0.0,1.0,10.345,1,1,0.0
5u07f1czvi0xb50zn16xcgg8,5,3,11,pd,1,0.0,1.0,16.566,1,1,0.0
5u07f1czvi0xb50zn16xcgg8,6,3,29,pd,2,1.0,0.0,14.442,1,1,0.0
5u07f1czvi0xb50zn16xcgg8,7,3,16,md,3,3.0,0.0,15.274,1,1,0.0
5u07f1czvi0xb50zn16xcgg8,8,3,17,pd,1,0.0,1.0,10.796,1,1,0.0
5u07f1czvi0xb50zn16xcgg8,9,3,23,md,2,0.0,1.0,13.97,1,1,0.0
5u07f1czvi0xb50zn16xcgg8,10,3,58,md,3,0.0,1.0,14.762,1,1,0.0
5u07f1czvi0xb50zn16xcgg8,11,3,35,pd,1,2.0,0.0,3.109,1,1,0.0
5u07f1czvi0xb50zn16xcgg8,12,3,76,pd,2,0.0,1.0,8.788,1,1,0.0
5xlzk18eq5a0ddiqfj2a5i7a,1,3,71,pd,3,0.0,1.0,18.688,1,1,0.0
5xlzk18eq5a0ddiqfj2a5i7a,2,3,55,pd,1,0.0,1.0,11.276,1,1,0.0
5xlzk18eq5a0ddiqfj2a5i7a,3,3,30,pd,2,0.0,1.0,16.271,1,1,0.0
5xlzk18eq5a0ddiqfj2a5i7a,4,3,45,pd,3,0.0,1.0,19.406,1,1,0.0
5xlzk18eq5a0ddiqfj2a5i7a,5,3,11,pd,1,0.0,1.0,16.974,1,1,0.0
5xlzk18eq5a0ddiqfj2a5i7a,6,3,29,pd,2,0.0,1.0,15.26,1,1,0.0
5xlzk18eq5a0ddiqfj2a5i7a,7,3,16,md,3,0.0,1.0,26.814,1,1,0.0
5xlzk18eq5a0ddiqfj2a5i7a,8,3,17,pd,1,1.0,0.0,27.068,1,1,0.0
5xlzk18eq5a0ddiqfj2a5i7a,9,3,23,md,2,0.0,1.0,18.842,1,1,0.0
5xlzk18eq5a0ddiqfj2a5i7a,10,3,58,md,3,0.0,1.0,20.569,1,1,0.0
5xlzk18eq5a0ddiqfj2a5i7a,11,3,35,pd,1,0.0,1.0,21.702,1,1,0.0
5xlzk18eq5a0ddiqfj2a5i7a,12,3,76,pd,2,3.0,0.0,26.774,1,1,0.0
5xplh8hs67ttduk01u4cnqlh,1,3,71,pd,3,0.0,1.0,3.256,1,1,0.0
5xplh8hs67ttduk01u4cnqlh,2,3,55,pd,2,0.0,1.0,11.709,1,1,0.0
5xplh8hs67ttduk01u4cnqlh,3,3,30,pd,1,0.0,1.0,8.719,1,1,0.0
5xplh8hs67ttduk01u4cnqlh,4,3,45,pd,3,0.0,1.0,13.978,1,1,0.0
5xplh8hs67ttduk01u4cnqlh,5,3,11,pd,2,3.0,0.0,9.206,1,1,0.0
5xplh8hs67ttduk01u4cnqlh,6,3,29,pd,1,0.0,1.0,10.586,1,1,0.0
5xplh8hs67ttduk01u4cnqlh,7,3,16,md,3,0.0,1.0,7.941,1,1,0.0
5xplh8hs67ttduk01u4cnqlh,8,3,17,pd,2,1.0,0.0,11.864,1,1,0.0
5xplh8hs67ttduk01u4cnqlh,9,3,23,md,1,0.0,1.0,10.906,1,1,0.0
5xplh8hs67ttduk01u4cnqlh,10,3,58,md,3,3.0,0.0,9.477,1,1,0.0
5xplh8hs67ttduk01u4cnqlh,11,3,35,pd,2,0.0,1.0,12.906,1,1,0.0
5xplh8hs67ttduk01u4cnqlh,12,3,76,pd,1,1.0,0.0,12.194,1,1,0.0
5xtclcocd6qqkxafo0l2g9cm,1,3,71,pd,3,0.0,1.0,14.051,1,1,0.0
5xtclcocd6qqkxafo0l2g9cm,2,3,55,pd,1,0.0,1.0,22.858,1,1,0.0
5xtclcocd6qqkxafo0l2g9cm,3,3,30,pd,2,,,,1,1,0.0
5xtclcocd6qqkxafo0l2g9cm,4,3,45,pd,3,,,,1,1,0.0
5xtclcocd6qqkxafo0l2g9cm,5,3,11,pd,1,1.0,0.0,11.723,1,1,0.0
5xtclcocd6qqkxafo0l2g9cm,6,3,29,pd,2,0.0,1.0,19.092,1,1,0.0
5xtclcocd6qqkxafo0l2g9cm,7,3,16,md,3,0.0,1.0,17.964,1,1,0.0
5xtclcocd6qqkxafo0l2g9cm,8,3,17,pd,1,0.0,1.0,19.794,1,1,0.0
5xtclcocd6qqkxafo0l2g9cm,9,3,23,md,2,3.0,0.0,25.163,1,1,0.0
5xtclcocd6qqkxafo0l2g9cm,10,3,58,md,3,3.0,0.0,21.363,1,1,0.0
5xtclcocd6qqkxafo0l2g9cm,11,3,35,pd,1,2.0,0.0,25.844,1,1,0.0
5xtclcocd6qqkxafo0l2g9cm,12,3,76,pd,2,1.0,0.0,25.652,1,1,0.0
608dtq6d0xec75zqgm3kmmeg,1,3,71,pd,3,0.0,1.0,10.489,1,1,0.0
608dtq6d0xec75zqgm3kmmeg,2,3,55,pd,1,1.0,0.0,11.032,1,1,0.0
608dtq6d0xec75zqgm3kmmeg,3,3,30,pd,2,0.0,1.0,14.907,1,1,0.0
608dtq6d0xec75zqgm3kmmeg,4,3,45,pd,3,0.0,1.0,10.673,1,1,0.0
608dtq6d0xec75zqgm3kmmeg,5,3,11,pd,1,0.0,1.0,14.506,1,1,0.0
608dtq6d0xec75zqgm3kmmeg,6,3,29,pd,2,0.0,1.0,12.154,1,1,0.0
608dtq6d0xec75zqgm3kmmeg,7,3,16,md,3,0.0,1.0,10.516,1,1,0.0
608dtq6d0xec75zqgm3kmmeg,8,3,17,pd,1,0.0,1.0,14.428,1,1,0.0
608dtq6d0xec75zqgm3kmmeg,9,3,23,md,2,0.0,1.0,16.419,1,1,0.0
608dtq6d0xec75zqgm3kmmeg,10,3,58,md,3,0.0,1.0,15.77,1,1,0.0
608dtq6d0xec75zqgm3kmmeg,11,3,35,pd,1,0.0,1.0,13.368,1,1,0.0
608dtq6d0xec75zqgm3kmmeg,12,3,76,pd,2,2.0,0.0,22.099,1,1,0.0
66g7o29rze5oq57cj9cncbd2,1,3,71,pd,3,0.0,1.0,13.494,1,1,0.0
66g7o29rze5oq57cj9cncbd2,2,3,55,pd,1,1.0,0.0,29.412,1,1,0.0
66g7o29rze5oq57cj9cncbd2,3,3,30,pd,2,0.0,1.0,25.851,1,1,0.0
66g7o29rze5oq57cj9cncbd2,4,3,45,pd,3,0.0,1.0,21.514,1,1,0.0
66g7o29rze5oq57cj9cncbd2,5,3,11,pd,1,0.0,1.0,29.178,1,1,0.0
66g7o29rze5oq57cj9cncbd2,6,3,29,pd,2,0.0,1.0,27.928,1,1,0.0
66g7o29rze5oq57cj9cncbd2,7,3,16,md,3,0.0,1.0,11.694,1,1,0.0
66g7o29rze5oq57cj9cncbd2,8,3,17,pd,1,0.0,1.0,28.607,1,1,0.0
66g7o29rze5oq57cj9cncbd2,9,3,23,md,2,0.0,1.0,12.394,1,1,0.0
66g7o29rze5oq57cj9cncbd2,10,3,58,md,3,,,,1,1,0.0
66g7o29rze5oq57cj9cncbd2,11,3,35,pd,1,0.0,1.0,24.221,1,1,0.0
66g7o29rze5oq57cj9cncbd2,12,3,76,pd,2,0.0,1.0,25.282,1,1,0.0
6vbm9zf46dicbp9lguwjfgey,1,3,71,pd,2,2.0,0.0,10.424,1,1,0.0
6vbm9zf46dicbp9lguwjfgey,2,3,55,pd,3,1.0,0.0,17.038,1,1,0.0
6vbm9zf46dicbp9lguwjfgey,3,3,30,pd,1,0.0,1.0,9.846,1,1,0.0
6vbm9zf46dicbp9lguwjfgey,4,3,45,pd,2,0.0,1.0,13.425,1,1,0.0
6vbm9zf46dicbp9lguwjfgey,5,3,11,pd,3,0.0,1.0,16.08,1,1,0.0
6vbm9zf46dicbp9lguwjfgey,6,3,29,pd,1,3.0,0.0,7.218,1,1,0.0
6vbm9zf46dicbp9lguwjfgey,7,3,16,md,2,0.0,1.0,11.079,1,1,0.0
6vbm9zf46dicbp9lguwjfgey,8,3,17,pd,3,2.0,0.0,6.63,1,1,0.0
6vbm9zf46dicbp9lguwjfgey,9,3,23,md,1,3.0,0.0,8.435,1,1,0.0
6vbm9zf46dicbp9lguwjfgey,10,3,58,md,2,1.0,0.0,10.179,1,1,0.0
6vbm9zf46dicbp9lguwjfgey,11,3,35,pd,3,0.0,1.0,17.362,1,1,0.0
6vbm9zf46dicbp9lguwjfgey,12,3,76,pd,1,1.0,0.0,12.606,1,1,0.0
6w9ojjc7tj02tgn3xrbdmcy6,1,3,71,pd,2,0.0,1.0,25.483,1,1,0.0
6w9ojjc7tj02tgn3xrbdmcy6,2,3,55,pd,3,0.0,1.0,18.256,1,1,0.0
6w9ojjc7tj02tgn3xrbdmcy6,3,3,30,pd,1,0.0,1.0,20.148,1,1,0.0
6w9ojjc7tj02tgn3xrbdmcy6,4,3,45,pd,2,0.0,1.0,20.424,1,1,0.0
6w9ojjc7tj02tgn3xrbdmcy6,5,3,11,pd,3,0.0,1.0,14.471,1,1,0.0
6w9ojjc7tj02tgn3xrbdmcy6,6,3,29,pd,1,0.0,1.0,25.253,1,1,0.0
6w9ojjc7tj02tgn3xrbdmcy6,7,3,16,md,2,0.0,1.0,21.311,1,1,0.0
6w9ojjc7tj02tgn3xrbdmcy6,8,3,17,pd,3,1.0,0.0,20.925,1,1,0.0
6w9ojjc7tj02tgn3xrbdmcy6,9,3,23,md,1,0.0,1.0,13.392,1,1,0.0
6w9ojjc7tj02tgn3xrbdmcy6,10,3,58,md,2,0.0,1.0,20.338,1,1,0.0
6w9ojjc7tj02tgn3xrbdmcy6,11,3,35,pd,3,2.0,0.0,27.768,1,1,0.0
6w9ojjc7tj02tgn3xrbdmcy6,12,3,76,pd,1,1.0,0.0,27.857,1,1,0.0
758kt0my7ux5ltj4303u68ig,1,3,71,pd,1,2.0,0.0,8.786,1,1,0.0
758kt0my7ux5ltj4303u68ig,2,3,55,pd,2,0.0,1.0,7.051,1,1,0.0
758kt0my7ux5ltj4303u68ig,3,3,30,pd,3,3.0,0.0,8.37,1,1,0.0
758kt0my7ux5ltj4303u68ig,4,3,45,pd,1,0.0,1.0,6.892,1,1,0.0
758kt0my7ux5ltj4303u68ig,5,3,11,pd,2,0.0,1.0,6.452,1,1,0.0
758kt0my7ux5ltj4303u68ig,6,3,29,pd,3,0.0,1.0,7.201,1,1,0.0
758kt0my7ux5ltj4303u68ig,7,3,16,md,1,0.0,1.0,11.923,1,1,0.0
758kt0my7ux5ltj4303u68ig,8,3,17,pd,2,1.0,0.0,9.588,1,1,0.0
758kt0my7ux5ltj4303u68ig,9,3,23,md,3,1.0,0.0,4.86,1,1,0.0
758kt0my7ux5ltj4303u68ig,10,3,58,md,1,1.0,0.0,8.905,1,1,0.0
758kt0my7ux5ltj4303u68ig,11,3,35,pd,2,0.0,1.0,3.884,1,1,0.0
758kt0my7ux5ltj4303u68ig,12,3,76,pd,3,0.0,1.0,6.875,1,1,0.0
7aq0xcfzob00t2r2vrrbswmr,1,3,71,pd,2,0.0,1.0,9.364,1,1,0.0
7aq0xcfzob00t2r2vrrbswmr,2,3,55,pd,3,0.0,1.0,23.1,1,1,0.0
7aq0xcfzob00t2r2vrrbswmr,3,3,30,pd,1,0.0,1.0,26.943,1,1,0.0
7aq0xcfzob00t2r2vrrbswmr,4,3,45,pd,2,0.0,1.0,16.278,1,1,0.0
7aq0xcfzob00t2r2vrrbswmr,5,3,11,pd,3,0.0,1.0,28.422,1,1,0.0
7aq0xcfzob00t2r2vrrbswmr,6,3,29,pd,1,0.0,1.0,19.404,1,1,0.0
7aq0xcfzob00t2r2vrrbswmr,7,3,16,md,2,0.0,1.0,8.752,1,1,0.0
7aq0xcfzob00t2r2vrrbswmr,8,3,17,pd,3,0.0,1.0,12.542,1,1,0.0
7aq0xcfzob00t2r2vrrbswmr,9,3,23,md,1,0.0,1.0,11.901,1,1,0.0
7aq0xcfzob00t2r2vrrbswmr,10,3,58,md,2,0.0,1.0,9.472,1,1,0.0
7aq0xcfzob00t2r2vrrbswmr,11,3,35,pd,3,1.0,0.0,27.325,1,1,0.0
7aq0xcfzob00t2r2vrrbswmr,12,3,76,pd,1,0.0,1.0,27.89,1,1,0.0
7mrbn6yo1ppkbyjy7kz7mpq2,1,3,71,pd,3,2.0,0.0,11.136,1,1,0.0
7mrbn6yo1ppkbyjy7kz7mpq2,2,3,55,pd,1,0.0,1.0,7.493,1,1,0.0
7mrbn6yo1ppkbyjy7kz7mpq2,3,3,30,pd,2,0.0,1.0,16.573,1,1,0.0
7mrbn6yo1ppkbyjy7kz7mpq2,4,3,45,pd,3,0.0,1.0,12.418,1,1,0.0
7mrbn6yo1ppkbyjy7kz7mpq2,5,3,11,pd,1,3.0,0.0,19.466,1,1,0.0
7mrbn6yo1ppkbyjy7kz7mpq2,6,3,29,pd,2,0.0,1.0,29.483,1,1,0.0
7mrbn6yo1ppkbyjy7kz7mpq2,7,3,16,md,3,0.0,1.0,27.663,1,1,0.0
7mrbn6yo1ppkbyjy7kz7mpq2,8,3,17,pd,1,0.0,1.0,28.106,1,1,0.0
7mrbn6yo1ppkbyjy7kz7mpq2,9,3,23,md,2,0.0,1.0,27.097,1,1,0.0
7mrbn6yo1ppkbyjy7kz7mpq2,10,3,58,md,3,0.0,1.0,19.92,1,1,0.0
7mrbn6yo1ppkbyjy7kz7mpq2,11,3,35,pd,1,0.0,1.0,22.206,1,1,0.0
7mrbn6yo1ppkbyjy7kz7mpq2,12,3,76,pd,2,2.0,0.0,28.741,1,1,0.0
7povmb6awscd62wrex2p6g8d,1,3,71,pd,3,2.0,0.0,6.279,1,1,1.0
7povmb6awscd62wrex2p6g8d,2,3,55,pd,2,,,,1,1,1.0
7povmb6awscd62wrex2p6g8d,3,3,30,pd,1,0.0,1.0,6.387,1,1,0.0
7povmb6awscd62wrex2p6g8d,4,3,45,pd,3,0.0,1.0,17.32,1,1,0.0
7povmb6awscd62wrex2p6g8d,5,3,11,pd,2,3.0,0.0,16.748,1,1,0.0
7povmb6awscd62wrex2p6g8d,6,3,29,pd,1,0.0,1.0,20.976,1,1,0.0
7povmb6awscd62wrex2p6g8d,7,3,16,md,3,,,,1,1,0.0
7povmb6awscd62wrex2p6g8d,8,3,17,pd,2,1.0,0.0,13.626,1,1,0.0
7povmb6awscd62wrex2p6g8d,9,3,23,md,1,0.0,1.0,15.134,1,1,0.0
7povmb6awscd62wrex2p6g8d,10,3,58,md,3,0.0,1.0,16.105,1,1,0.0
7povmb6awscd62wrex2p6g8d,11,3,35,pd,2,0.0,1.0,14.57,1,1,0.0
7povmb6awscd62wrex2p6g8d,12,3,76,pd,1,0.0,1.0,11.661,1,1,0.0
87jaytrb0x60fbn0rdf880n4,1,3,71,pd,3,0.0,1.0,8.757,1,1,0.0
87jaytrb0x60fbn0rdf880n4,2,3,55,pd,1,0.0,1.0,14.093,1,1,0.0
87jaytrb0x60fbn0rdf880n4,3,3,30,pd,2,0.0,1.0,22.029,1,1,0.0
87jaytrb0x60fbn0rdf880n4,4,3,45,pd,3,0.0,1.0,16.387,1,1,0.0
87jaytrb0x60fbn0rdf880n4,5,3,11,pd,1,0.0,1.0,9.756,1,1,0.0
87jaytrb0x60fbn0rdf880n4,6,3,29,pd,2,3.0,0.0,25.497,1,1,0.0
87jaytrb0x60fbn0rdf880n4,7,3,16,md,3,0.0,1.0,11.272,1,1,0.0
87jaytrb0x60fbn0rdf880n4,8,3,17,pd,1,1.0,0.0,8.631,1,1,0.0
87jaytrb0x60fbn0rdf880n4,9,3,23,md,2,2.0,0.0,13.812,1,1,0.0
87jaytrb0x60fbn0rdf880n4,10,3,58,md,3,0.0,1.0,16.646,1,1,0.0
87jaytrb0x60fbn0rdf880n4,11,3,35,pd,1,0.0,1.0,16.304,1,1,0.0
87jaytrb0x60fbn0rdf880n4,12,3,76,pd,2,0.0,1.0,8.701,1,1,0.0
89alqlb24wckatlpcdik234f,1,3,71,pd,1,2.0,0.0,6.137,1,1,0.0
89alqlb24wckatlpcdik234f,2,3,55,pd,2,0.0,1.0,10.452,1,1,0.0
89alqlb24wckatlpcdik234f,3,3,30,pd,3,0.0,1.0,9.212,1,1,0.0
89alqlb24wckatlpcdik234f,4,3,45,pd,1,0.0,1.0,7.899,1,1,0.0
89alqlb24wckatlpcdik234f,5,3,11,pd,2,3.0,0.0,16.286,1,1,0.0
89alqlb24wckatlpcdik234f,6,3,29,pd,3,0.0,1.0,11.302,1,1,0.0
89alqlb24wckatlpcdik234f,7,3,16,md,1,0.0,1.0,12.556,1,1,0.0
89alqlb24wckatlpcdik234f,8,3,17,pd,2,0.0,1.0,17.97,1,1,0.0
89alqlb24wckatlpcdik234f,9,3,23,md,3,0.0,1.0,13.475,1,1,0.0
89alqlb24wckatlpcdik234f,10,3,58,md,1,1.0,0.0,16.496,1,1,0.0
89alqlb24wckatlpcdik234f,11,3,35,pd,2,0.0,1.0,19.058,1,1,0.0
89alqlb24wckatlpcdik234f,12,3,76,pd,3,0.0,1.0,18.477,1,1,0.0
8jaa11nme2t5xexy6rvl1jm1,1,3,71,pd,3,2.0,0.0,13.801,1,1,0.0
8jaa11nme2t5xexy6rvl1jm1,2,3,55,pd,1,0.0,1.0,9.181,1,1,0.0
8jaa11nme2t5xexy6rvl1jm1,3,3,30,pd,2,0.0,1.0,11.392,1,1,0.0
8jaa11nme2t5xexy6rvl1jm1,4,3,45,pd,3,1.0,0.0,13.819,1,1,0.0
8jaa11nme2t5xexy6rvl1jm1,5,3,11,pd,1,3.0,0.0,13.72,1,1,0.0
8jaa11nme2t5xexy6rvl1jm1,6,3,29,pd,2,0.0,1.0,11.29,1,1,0.0
8jaa11nme2t5xexy6rvl1jm1,7,3,16,md,3,3.0,0.0,12.961,1,1,0.0
8jaa11nme2t5xexy6rvl1jm1,8,3,17,pd,1,1.0,0.0,28.052,1,1,0.0
8jaa11nme2t5xexy6rvl1jm1,9,3,23,md,2,0.0,1.0,21.706,1,1,0.0
8jaa11nme2t5xexy6rvl1jm1,10,3,58,md,3,3.0,0.0,8.745,1,1,0.0
8jaa11nme2t5xexy6rvl1jm1,11,3,35,pd,1,0.0,1.0,8.561,1,1,0.0
8jaa11nme2t5xexy6rvl1jm1,12,3,76,pd,2,3.0,0.0,13.468,1,1,0.0
8kt910fiiiugas4gfw99u89n,1,3,71,pd,3,0.0,1.0,8.45,1,1,0.0
8kt910fiiiugas4gfw99u89n,2,3,55,pd,1,0.0,1.0,19.37,1,1,0.0
8kt910fiiiugas4gfw99u89n,3,3,30,pd,2,0.0,1.0,22.963,1,1,0.0
8kt910fiiiugas4gfw99u89n,4,3,45,pd,3,0.0,1.0,25.539,1,1,0.0
8kt910fiiiugas4gfw99u89n,5,3,11,pd,1,0.0,1.0,19.01,1,1,0.0
8kt910fiiiugas4gfw99u89n,6,3,29,pd,2,0.0,1.0,10.841,1,1,0.0
8kt910fiiiugas4gfw99u89n,7,3,16,md,3,0.0,1.0,9.25,1,1,0.0
8kt910fiiiugas4gfw99u89n,8,3,17,pd,1,1.0,0.0,25.322,1,1,0.0
8kt910fiiiugas4gfw99u89n,9,3,23,md,2,2.0,0.0,20.65,1,1,0.0
8kt910fiiiugas4gfw99u89n,10,3,58,md,3,1.0,0.0,11.211,1,1,0.0
8kt910fiiiugas4gfw99u89n,11,3,35,pd,1,1.0,0.0,25.341,1,1,0.0
8kt910fiiiugas4gfw99u89n,12,3,76,pd,2,0.0,1.0,11.172,1,1,0.0
8mhbvgqqnyqb3l21i90su6he,1,3,71,pd,2,2.0,0.0,6.767,1,1,0.0
8mhbvgqqnyqb3l21i90su6he,2,3,55,pd,3,1.0,0.0,9.074,1,1,0.0
8mhbvgqqnyqb3l21i90su6he,3,3,30,pd,1,0.0,1.0,15.087,1,1,0.0
8mhbvgqqnyqb3l21i90su6he,4,3,45,pd,2,1.0,0.0,29.324,1,1,0.0
8mhbvgqqnyqb3l21i90su6he,5,3,11,pd,3,3.0,0.0,25.074,1,1,0.0
8mhbvgqqnyqb3l21i90su6he,6,3,29,pd,1,3.0,0.0,20.03,1,1,0.0
8mhbvgqqnyqb3l21i90su6he,7,3,16,md,2,1.0,0.0,14.619,1,1,0.0
8mhbvgqqnyqb3l21i90su6he,8,3,17,pd,3,2.0,0.0,17.61,1,1,0.0
8mhbvgqqnyqb3l21i90su6he,9,3,23,md,1,2.0,0.0,15.79,1,1,0.0
8mhbvgqqnyqb3l21i90su6he,10,3,58,md,2,1.0,0.0,16.614,1,1,0.0
8mhbvgqqnyqb3l21i90su6he,11,3,35,pd,3,1.0,0.0,9.649,1,1,0.0
8mhbvgqqnyqb3l21i90su6he,12,3,76,pd,1,1.0,0.0,19.133,1,1,0.0
8nffzdd3kyzjfr9b8rot84xh,1,3,71,pd,2,0.0,1.0,16.125,1,1,0.0
8nffzdd3kyzjfr9b8rot84xh,2,3,55,pd,3,0.0,1.0,17.008,1,1,0.0
8nffzdd3kyzjfr9b8rot84xh,3,3,30,pd,1,0.0,1.0,10.1,1,1,0.0
8nffzdd3kyzjfr9b8rot84xh,4,3,45,pd,2,0.0,1.0,7.476,1,1,0.0
8nffzdd3kyzjfr9b8rot84xh,5,3,11,pd,3,0.0,1.0,23.778,1,1,0.0
8nffzdd3kyzjfr9b8rot84xh,6,3,29,pd,1,0.0,1.0,9.13,1,1,0.0
8nffzdd3kyzjfr9b8rot84xh,7,3,16,md,2,0.0,1.0,14.087,1,1,0.0
8nffzdd3kyzjfr9b8rot84xh,8,3,17,pd,3,1.0,0.0,29.379,1,1,0.0
8nffzdd3kyzjfr9b8rot84xh,9,3,23,md,1,3.0,0.0,11.466,1,1,0.0
8nffzdd3kyzjfr9b8rot84xh,10,3,58,md,2,3.0,0.0,21.342,1,1,0.0
8nffzdd3kyzjfr9b8rot84xh,11,3,35,pd,3,3.0,0.0,29.306,1,1,0.0
8nffzdd3kyzjfr9b8rot84xh,12,3,76,pd,1,2.0,0.0,27.729,1,1,0.0
8ox4mbrcj4fon8yekjsz63qt,1,3,71,pd,1,2.0,0.0,3.914,1,1,0.0
8ox4mbrcj4fon8yekjsz63qt,2,3,55,pd,2,0.0,1.0,8.071,1,1,0.0
8ox4mbrcj4fon8yekjsz63qt,3,3,30,pd,3,1.0,0.0,5.645,1,1,0.0
8ox4mbrcj4fon8yekjsz63qt,4,3,45,pd,1,0.0,1.0,7.027,1,1,0.0
8ox4mbrcj4fon8yekjsz63qt,5,3,11,pd,2,3.0,0.0,8.668,1,1,0.0
8ox4mbrcj4fon8yekjsz63qt,6,3,29,pd,3,0.0,1.0,7.195,1,1,0.0
8ox4mbrcj4fon8yekjsz63qt,7,3,16,md,1,0.0,1.0,3.755,1,1,0.0
8ox4mbrcj4fon8yekjsz63qt,8,3,17,pd,2,1.0,0.0,7.757,1,1,0.0
8ox4mbrcj4fon8yekjsz63qt,9,3,23,md,3,0.0,1.0,17.973,1,1,0.0
8ox4mbrcj4fon8yekjsz63qt,10,3,58,md,1,1.0,0.0,1.914,1,1,0.0
8ox4mbrcj4fon8yekjsz63qt,11,3,35,pd,2,0.0,1.0,2.57,1,1,0.0
8ox4mbrcj4fon8yekjsz63qt,12,3,76,pd,3,0.0,1.0,3.08,1,1,0.0
8tjnnr68n5kd8w3slqldd88t,1,3,71,pd,2,0.0,1.0,9.404,1,1,0.0
8tjnnr68n5kd8w3slqldd88t,2,3,55,pd,3,2.0,0.0,17.85,1,1,0.0
8tjnnr68n5kd8w3slqldd88t,3,3,30,pd,1,0.0,1.0,17.205,1,1,0.0
8tjnnr68n5kd8w3slqldd88t,4,3,45,pd,2,0.0,1.0,18.755,1,1,2.0
8tjnnr68n5kd8w3slqldd88t,5,3,11,pd,3,0.0,1.0,14.426,1,1,0.0
8tjnnr68n5kd8w3slqldd88t,6,3,29,pd,1,0.0,1.0,20.179,1,1,0.0
8tjnnr68n5kd8w3slqldd88t,7,3,16,md,2,0.0,1.0,26.011,1,1,2.0
8tjnnr68n5kd8w3slqldd88t,8,3,17,pd,3,0.0,1.0,18.305,1,1,0.0
8tjnnr68n5kd8w3slqldd88t,9,3,23,md,1,0.0,1.0,10.563,1,1,0.0
8tjnnr68n5kd8w3slqldd88t,10,3,58,md,2,0.0,1.0,17.714,1,1,0.0
8tjnnr68n5kd8w3slqldd88t,11,3,35,pd,3,0.0,1.0,27.815,1,1,0.0
8tjnnr68n5kd8w3slqldd88t,12,3,76,pd,1,0.0,1.0,19.149,1,1,0.0
905afalfokgy508gkbhgt1hx,1,3,71,pd,3,2.0,0.0,3.079,1,1,0.0
905afalfokgy508gkbhgt1hx,2,3,55,pd,1,1.0,0.0,11.475,1,1,0.0
905afalfokgy508gkbhgt1hx,3,3,30,pd,2,0.0,1.0,12.185,1,1,0.0
905afalfokgy508gkbhgt1hx,4,3,45,pd,3,1.0,0.0,16.216,1,1,0.0
905afalfokgy508gkbhgt1hx,5,3,11,pd,1,0.0,1.0,18.507,1,1,0.0
905afalfokgy508gkbhgt1hx,6,3,29,pd,2,0.0,1.0,19.001,1,1,0.0
905afalfokgy508gkbhgt1hx,7,3,16,md,3,3.0,0.0,18.584,1,1,0.0
905afalfokgy508gkbhgt1hx,8,3,17,pd,1,1.0,0.0,12.689,1,1,0.0
905afalfokgy508gkbhgt1hx,9,3,23,md,2,3.0,0.0,20.352,1,1,0.0
905afalfokgy508gkbhgt1hx,10,3,58,md,3,0.0,1.0,14.989,1,1,0.0
905afalfokgy508gkbhgt1hx,11,3,35,pd,1,0.0,1.0,17.698,1,1,0.0
905afalfokgy508gkbhgt1hx,12,3,76,pd,2,0.0,1.0,19.501,1,1,0.0
956dsja0kqtsmwj2ytzsgewv,1,3,71,pd,1,0.0,1.0,11.49,1,1,0.0
956dsja0kqtsmwj2ytzsgewv,2,3,55,pd,2,0.0,1.0,11.822,1,1,0.0
956dsja0kqtsmwj2ytzsgewv,3,3,30,pd,3,0.0,1.0,10.203,1,1,0.0
956dsja0kqtsmwj2ytzsgewv,4,3,45,pd,1,0.0,1.0,18.473,1,1,0.0
956dsja0kqtsmwj2ytzsgewv,5,3,11,pd,2,0.0,1.0,16.248,1,1,0.0
956dsja0kqtsmwj2ytzsgewv,6,3,29,pd,3,0.0,1.0,10.852,1,1,0.0
956dsja0kqtsmwj2ytzsgewv,7,3,16,md,1,3.0,0.0,16.596,1,1,0.0
956dsja0kqtsmwj2ytzsgewv,8,3,17,pd,2,0.0,1.0,20.882,1,1,0.0
956dsja0kqtsmwj2ytzsgewv,9,3,23,md,3,0.0,1.0,14.021,1,1,0.0
956dsja0kqtsmwj2ytzsgewv,10,3,58,md,1,0.0,1.0,17.854,1,1,0.0
956dsja0kqtsmwj2ytzsgewv,11,3,35,pd,2,,,,1,1,0.0
956dsja0kqtsmwj2ytzsgewv,12,3,76,pd,3,0.0,1.0,21.906,1,1,0.0
967oec9l1nvfo0ziqgqy1te2,1,3,71,pd,2,0.0,1.0,9.276,1,1,0.0
967oec9l1nvfo0ziqgqy1te2,2,3,55,pd,3,0.0,1.0,13.073,1,1,0.0
967oec9l1nvfo0ziqgqy1te2,3,3,30,pd,1,0.0,1.0,15.206,1,1,0.0
967oec9l1nvfo0ziqgqy1te2,4,3,45,pd,2,0.0,1.0,13.356,1,1,0.0
967oec9l1nvfo0ziqgqy1te2,5,3,11,pd,3,0.0,1.0,21.164,1,1,0.0
967oec9l1nvfo0ziqgqy1te2,6,3,29,pd,1,0.0,1.0,11.656,1,1,0.0
967oec9l1nvfo0ziqgqy1te2,7,3,16,md,2,0.0,1.0,11.968,1,1,0.0
967oec9l1nvfo0ziqgqy1te2,8,3,17,pd,3,1.0,0.0,29.207,1,1,0.0
967oec9l1nvfo0ziqgqy1te2,9,3,23,md,1,0.0,1.0,14.821,1,1,0.0
967oec9l1nvfo0ziqgqy1te2,10,3,58,md,2,0.0,1.0,17.24,1,1,0.0
967oec9l1nvfo0ziqgqy1te2,11,3,35,pd,3,1.0,0.0,29.063,1,1,0.0
967oec9l1nvfo0ziqgqy1te2,12,3,76,pd,1,0.0,1.0,27.115,1,1,0.0
986nb9qudtufx25ancsy4uus,1,3,71,pd,1,2.0,0.0,7.167,1,1,0.0
986nb9qudtufx25ancsy4uus,2,3,55,pd,2,0.0,1.0,12.599,1,1,0.0
986nb9qudtufx25ancsy4uus,3,3,30,pd,3,0.0,1.0,7.631,1,1,0.0
986nb9qudtufx25ancsy4uus,4,3,45,pd,1,0.0,1.0,12.225,1,1,0.0
986nb9qudtufx25ancsy4uus,5,3,11,pd,2,0.0,1.0,9.562,1,1,0.0
986nb9qudtufx25ancsy4uus,6,3,29,pd,3,0.0,1.0,18.685,1,1,0.0
986nb9qudtufx25ancsy4uus,7,3,16,md,1,0.0,1.0,7.637,1,1,0.0
986nb9qudtufx25ancsy4uus,8,3,17,pd,2,2.0,0.0,13.604,1,1,0.0
986nb9qudtufx25ancsy4uus,9,3,23,md,3,0.0,1.0,13.987,1,1,0.0
986nb9qudtufx25ancsy4uus,10,3,58,md,1,1.0,0.0,10.422,1,1,0.0
986nb9qudtufx25ancsy4uus,11,3,35,pd,2,0.0,1.0,17.631,1,1,0.0
986nb9qudtufx25ancsy4uus,12,3,76,pd,3,2.0,0.0,26.317,1,1,0.0
98go0w582iiympeu2js4xcwp,1,3,71,pd,3,2.0,0.0,5.099,1,1,0.0
98go0w582iiympeu2js4xcwp,2,3,55,pd,2,0.0,1.0,15.411,1,1,0.0
98go0w582iiympeu2js4xcwp,3,3,30,pd,1,1.0,0.0,18.092,1,1,0.0
98go0w582iiympeu2js4xcwp,4,3,45,pd,3,0.0,1.0,9.804,1,1,0.0
98go0w582iiympeu2js4xcwp,5,3,11,pd,2,2.0,0.0,25.855,1,1,0.0
98go0w582iiympeu2js4xcwp,6,3,29,pd,1,0.0,1.0,12.796,1,1,0.0
98go0w582iiympeu2js4xcwp,7,3,16,md,3,0.0,1.0,9.535,1,1,0.0
98go0w582iiympeu2js4xcwp,8,3,17,pd,2,0.0,1.0,26.029,1,1,0.0
98go0w582iiympeu2js4xcwp,9,3,23,md,1,1.0,0.0,8.367,1,1,0.0
98go0w582iiympeu2js4xcwp,10,3,58,md,3,1.0,0.0,7.513,1,1,0.0
98go0w582iiympeu2js4xcwp,11,3,35,pd,2,2.0,0.0,8.446,1,1,0.0
98go0w582iiympeu2js4xcwp,12,3,76,pd,1,3.0,0.0,7.18,1,1,0.0
9afw5te4a1v33a52p16gw5wy,1,3,71,pd,2,2.0,0.0,2.175,1,1,0.0
9afw5te4a1v33a52p16gw5wy,2,3,55,pd,3,0.0,1.0,6.803,1,1,0.0
9afw5te4a1v33a52p16gw5wy,3,3,30,pd,1,0.0,1.0,5.645,1,1,0.0
9afw5te4a1v33a52p16gw5wy,4,3,45,pd,2,0.0,1.0,12.428,1,1,0.0
9afw5te4a1v33a52p16gw5wy,5,3,11,pd,3,1.0,0.0,9.757,1,1,0.0
9afw5te4a1v33a52p16gw5wy,6,3,29,pd,1,1.0,0.0,15.88,1,1,0.0
9afw5te4a1v33a52p16gw5wy,7,3,16,md,2,3.0,0.0,11.579,1,1,0.0
9afw5te4a1v33a52p16gw5wy,8,3,17,pd,3,0.0,1.0,8.038,1,1,0.0
9afw5te4a1v33a52p16gw5wy,9,3,23,md,1,0.0,1.0,9.635,1,1,0.0
9afw5te4a1v33a52p16gw5wy,10,3,58,md,2,0.0,1.0,16.154,1,1,0.0
9afw5te4a1v33a52p16gw5wy,11,3,35,pd,3,0.0,1.0,22.212,1,1,0.0
9afw5te4a1v33a52p16gw5wy,12,3,76,pd,1,3.0,0.0,19.231,1,1,0.0
9fyils7m7b8jmf5dqtqofyi6,1,3,71,pd,2,0.0,1.0,6.008,1,1,0.0
9fyils7m7b8jmf5dqtqofyi6,2,3,55,pd,1,0.0,1.0,16.872,1,1,0.0
9fyils7m7b8jmf5dqtqofyi6,3,3,30,pd,2,0.0,1.0,15.388,1,1,0.0
9fyils7m7b8jmf5dqtqofyi6,4,3,45,pd,2,0.0,1.0,11.529,1,1,0.0
9fyils7m7b8jmf5dqtqofyi6,5,3,11,pd,1,3.0,0.0,28.888,1,1,0.0
9fyils7m7b8jmf5dqtqofyi6,6,3,29,pd,2,0.0,1.0,12.599,1,1,0.0
9fyils7m7b8jmf5dqtqofyi6,7,3,16,md,2,0.0,1.0,14.209,1,1,0.0
9fyils7m7b8jmf5dqtqofyi6,8,3,17,pd,3,0.0,1.0,28.532,1,1,0.0
9fyils7m7b8jmf5dqtqofyi6,9,3,23,md,2,0.0,1.0,19.204,1,1,0.0
9fyils7m7b8jmf5dqtqofyi6,10,3,58,md,2,1.0,0.0,12.41,1,1,0.0
9fyils7m7b8jmf5dqtqofyi6,11,3,35,pd,1,0.0,1.0,12.545,1,1,0.0
9fyils7m7b8jmf5dqtqofyi6,12,3,76,pd,2,0.0,1.0,7.561,1,1,0.0
9g5sxg7rugvbvu7fehkz1iil,1,3,71,pd,3,0.0,1.0,17.266,1,1,0.0
9g5sxg7rugvbvu7fehkz1iil,2,3,55,pd,1,0.0,1.0,10.566,1,1,0.0
9g5sxg7rugvbvu7fehkz1iil,3,3,30,pd,2,0.0,1.0,18.15,1,1,0.0
9g5sxg7rugvbvu7fehkz1iil,4,3,45,pd,3,0.0,1.0,17.065,1,1,0.0
9g5sxg7rugvbvu7fehkz1iil,5,3,11,pd,1,3.0,0.0,21.892,1,1,0.0
9g5sxg7rugvbvu7fehkz1iil,6,3,29,pd,2,0.0,1.0,25.375,1,1,0.0
9g5sxg7rugvbvu7fehkz1iil,7,3,16,md,3,0.0,1.0,16.086,1,1,0.0
9g5sxg7rugvbvu7fehkz1iil,8,3,17,pd,1,0.0,1.0,21.009,1,1,0.0
9g5sxg7rugvbvu7fehkz1iil,9,3,23,md,2,0.0,1.0,13.899,1,1,0.0
9g5sxg7rugvbvu7fehkz1iil,10,3,58,md,3,0.0,1.0,16.929,1,1,0.0
9g5sxg7rugvbvu7fehkz1iil,11,3,35,pd,1,0.0,1.0,26.552,1,1,0.0
9g5sxg7rugvbvu7fehkz1iil,12,3,76,pd,2,0.0,1.0,23.816,1,1,0.0
9odg3d3q0fk9hedo3u35n5bi,1,3,71,pd,1,0.0,1.0,7.634,1,1,0.0
9odg3d3q0fk9hedo3u35n5bi,2,3,55,pd,2,0.0,1.0,9.347,1,1,0.0
9odg3d3q0fk9hedo3u35n5bi,3,3,30,pd,3,0.0,1.0,9.717,1,1,0.0
9odg3d3q0fk9hedo3u35n5bi,4,3,45,pd,1,0.0,1.0,7.774,1,1,0.0
9odg3d3q0fk9hedo3u35n5bi,5,3,11,pd,2,3.0,0.0,14.67,1,1,0.0
9odg3d3q0fk9hedo3u35n5bi,6,3,29,pd,3,0.0,1.0,11.94,1,1,0.0
9odg3d3q0fk9hedo3u35n5bi,7,3,16,md,1,0.0,1.0,10.333,1,1,0.0
9odg3d3q0fk9hedo3u35n5bi,8,3,17,pd,2,0.0,1.0,20.144,1,1,0.0
9odg3d3q0fk9hedo3u35n5bi,9,3,23,md,3,3.0,0.0,14.943,1,1,0.0
9odg3d3q0fk9hedo3u35n5bi,10,3,58,md,1,0.0,1.0,13.306,1,1,0.0
9odg3d3q0fk9hedo3u35n5bi,11,3,35,pd,2,0.0,1.0,22.722,1,1,0.0
9odg3d3q0fk9hedo3u35n5bi,12,3,76,pd,3,0.0,1.0,17.427,1,1,0.0
9s4xl1c38uivrm2ff88176s4,1,3,71,pd,1,2.0,0.0,5.51,1,1,0.0
9s4xl1c38uivrm2ff88176s4,2,3,55,pd,2,0.0,1.0,17.629,1,1,0.0
9s4xl1c38uivrm2ff88176s4,3,3,30,pd,3,3.0,0.0,17.555,1,1,0.0
9s4xl1c38uivrm2ff88176s4,4,3,45,pd,1,2.0,0.0,16.81,1,1,0.0
9s4xl1c38uivrm2ff88176s4,5,3,11,pd,2,1.0,0.0,20.809,1,1,0.0
9s4xl1c38uivrm2ff88176s4,6,3,29,pd,3,0.0,1.0,12.878,1,1,0.0
9s4xl1c38uivrm2ff88176s4,7,3,16,md,1,,,,1,1,0.0
9s4xl1c38uivrm2ff88176s4,8,3,17,pd,2,0.0,1.0,13.49,1,1,0.0
9s4xl1c38uivrm2ff88176s4,9,3,23,md,3,0.0,1.0,10.626,1,1,0.0
9s4xl1c38uivrm2ff88176s4,10,3,58,md,1,1.0,0.0,19.691,1,1,0.0
9s4xl1c38uivrm2ff88176s4,11,3,35,pd,2,0.0,1.0,11.154,1,1,0.0
9s4xl1c38uivrm2ff88176s4,12,3,76,pd,3,0.0,1.0,15.554,1,1,0.0
9tf8q5wjsq762a1h18m6wawj,1,3,71,pd,1,0.0,1.0,12.395,1,1,0.0
9tf8q5wjsq762a1h18m6wawj,2,3,55,pd,2,0.0,1.0,8.358,1,1,0.0
9tf8q5wjsq762a1h18m6wawj,3,3,30,pd,3,0.0,1.0,25.807,1,1,0.0
9tf8q5wjsq762a1h18m6wawj,4,3,45,pd,1,0.0,1.0,9.473,1,1,0.0
9tf8q5wjsq762a1h18m6wawj,5,3,11,pd,2,0.0,1.0,24.93,1,1,0.0
9tf8q5wjsq762a1h18m6wawj,6,3,29,pd,3,0.0,1.0,14.802,1,1,0.0
9tf8q5wjsq762a1h18m6wawj,7,3,16,md,1,0.0,1.0,7.851,1,1,0.0
9tf8q5wjsq762a1h18m6wawj,8,3,17,pd,2,0.0,1.0,27.313,1,1,0.0
9tf8q5wjsq762a1h18m6wawj,9,3,23,md,3,3.0,0.0,14.701,1,1,0.0
9tf8q5wjsq762a1h18m6wawj,10,3,58,md,1,0.0,1.0,24.478,1,1,0.0
9tf8q5wjsq762a1h18m6wawj,11,3,35,pd,2,0.0,1.0,9.85,1,1,0.0
9tf8q5wjsq762a1h18m6wawj,12,3,76,pd,3,2.0,0.0,15.132,1,1,0.0
a8u9tqwngrm4ar2zrwuhl0rw,1,3,71,pd,3,0.0,1.0,13.308,1,1,0.0
a8u9tqwngrm4ar2zrwuhl0rw,2,3,55,pd,1,0.0,1.0,19.81,1,1,0.0
a8u9tqwngrm4ar2zrwuhl0rw,3,3,30,pd,2,0.0,1.0,16.598,1,1,0.0
a8u9tqwngrm4ar2zrwuhl0rw,4,3,45,pd,3,0.0,1.0,16.072,1,1,0.0
a8u9tqwngrm4ar2zrwuhl0rw,5,3,11,pd,1,0.0,1.0,19.778,1,1,0.0
a8u9tqwngrm4ar2zrwuhl0rw,6,3,29,pd,2,0.0,1.0,14.458,1,1,0.0
a8u9tqwngrm4ar2zrwuhl0rw,7,3,16,md,3,3.0,0.0,25.891,1,1,0.0
a8u9tqwngrm4ar2zrwuhl0rw,8,3,17,pd,1,0.0,1.0,28.68,1,1,0.0
a8u9tqwngrm4ar2zrwuhl0rw,9,3,23,md,2,0.0,1.0,27.221,1,1,0.0
a8u9tqwngrm4ar2zrwuhl0rw,10,3,58,md,3,1.0,0.0,28.394,1,1,0.0
a8u9tqwngrm4ar2zrwuhl0rw,11,3,35,pd,1,0.0,1.0,17.838,1,1,0.0
a8u9tqwngrm4ar2zrwuhl0rw,12,3,76,pd,2,3.0,0.0,27.668,1,1,0.0
a9i6yhw5fdy05k2trwjtly6v,1,3,71,pd,2,2.0,0.0,2.56,1,1,0.0
a9i6yhw5fdy05k2trwjtly6v,2,3,55,pd,3,2.0,0.0,4.431,1,1,0.0
a9i6yhw5fdy05k2trwjtly6v,3,3,30,pd,1,3.0,0.0,5.384,1,1,0.0
a9i6yhw5fdy05k2trwjtly6v,4,3,45,pd,2,0.0,1.0,6.1,1,1,0.0
a9i6yhw5fdy05k2trwjtly6v,5,3,11,pd,3,1.0,0.0,7.864,1,1,0.0
a9i6yhw5fdy05k2trwjtly6v,6,3,29,pd,1,3.0,0.0,5.591,1,1,0.0
a9i6yhw5fdy05k2trwjtly6v,7,3,16,md,2,0.0,1.0,7.623,1,1,0.0
a9i6yhw5fdy05k2trwjtly6v,8,3,17,pd,3,1.0,0.0,8.944,1,1,0.0
a9i6yhw5fdy05k2trwjtly6v,9,3,23,md,1,0.0,1.0,7.912,1,1,0.0
a9i6yhw5fdy05k2trwjtly6v,10,3,58,md,2,0.0,1.0,6.2,1,1,0.0
a9i6yhw5fdy05k2trwjtly6v,11,3,35,pd,3,0.0,1.0,7.036,1,1,0.0
a9i6yhw5fdy05k2trwjtly6v,12,3,76,pd,1,0.0,1.0,4.832,1,1,0.0
a9xyo7m7jpfr3cef88kci6nd,1,3,71,pd,2,0.0,1.0,12.736,1,1,0.0
a9xyo7m7jpfr3cef88kci6nd,2,3,55,pd,3,0.0,1.0,15.373,1,1,0.0
a9xyo7m7jpfr3cef88kci6nd,3,3,30,pd,1,0.0,1.0,19.475,1,1,0.0
a9xyo7m7jpfr3cef88kci6nd,4,3,45,pd,2,0.0,1.0,14.561,1,1,0.0
a9xyo7m7jpfr3cef88kci6nd,5,3,11,pd,3,0.0,1.0,25.681,1,1,0.0
a9xyo7m7jpfr3cef88kci6nd,6,3,29,pd,1,0.0,1.0,11.704,1,1,0.0
a9xyo7m7jpfr3cef88kci6nd,7,3,16,md,2,0.0,1.0,8.849,1,1,0.0
a9xyo7m7jpfr3cef88kci6nd,8,3,17,pd,3,1.0,0.0,27.958,1,1,0.0
a9xyo7m7jpfr3cef88kci6nd,9,3,23,md,1,0.0,1.0,23.055,1,1,0.0
a9xyo7m7jpfr3cef88kci6nd,10,3,58,md,2,0.0,1.0,21.062,1,1,0.0
a9xyo7m7jpfr3cef88kci6nd,11,3,35,pd,3,0.0,1.0,26.0,1,1,0.0
a9xyo7m7jpfr3cef88kci6nd,12,3,76,pd,1,2.0,0.0,27.999,1,1,0.0
aa1lgg9pkqjbkzl6nfteph4k,1,3,71,pd,3,2.0,0.0,3.224,1,1,0.0
aa1lgg9pkqjbkzl6nfteph4k,2,3,55,pd,2,0.0,1.0,8.783,1,1,0.0
aa1lgg9pkqjbkzl6nfteph4k,3,3,30,pd,1,3.0,0.0,7.891,1,1,0.0
aa1lgg9pkqjbkzl6nfteph4k,4,3,45,pd,3,1.0,0.0,17.314,1,1,0.0
aa1lgg9pkqjbkzl6nfteph4k,5,3,11,pd,2,0.0,1.0,19.318,1,1,0.0
aa1lgg9pkqjbkzl6nfteph4k,6,3,29,pd,1,0.0,1.0,12.586,1,1,0.0
aa1lgg9pkqjbkzl6nfteph4k,7,3,16,md,3,0.0,1.0,7.869,1,1,0.0
aa1lgg9pkqjbkzl6nfteph4k,8,3,17,pd,2,0.0,1.0,12.092,1,1,0.0
aa1lgg9pkqjbkzl6nfteph4k,9,3,23,md,1,0.0,1.0,15.597,1,1,0.0
aa1lgg9pkqjbkzl6nfteph4k,10,3,58,md,3,1.0,0.0,19.919,1,1,0.0
aa1lgg9pkqjbkzl6nfteph4k,11,3,35,pd,2,3.0,0.0,15.699,1,1,0.0
aa1lgg9pkqjbkzl6nfteph4k,12,3,76,pd,1,1.0,0.0,9.83,1,1,0.0
afp14too3qdtpy7yf24t34qb,1,3,71,pd,2,2.0,0.0,3.887,1,1,0.0
afp14too3qdtpy7yf24t34qb,2,3,55,pd,3,1.0,0.0,6.069,1,1,0.0
afp14too3qdtpy7yf24t34qb,3,3,30,pd,1,0.0,1.0,9.928,1,1,0.0
afp14too3qdtpy7yf24t34qb,4,3,45,pd,2,0.0,1.0,6.352,1,1,0.0
afp14too3qdtpy7yf24t34qb,5,3,11,pd,3,0.0,1.0,6.627,1,1,0.0
afp14too3qdtpy7yf24t34qb,6,3,29,pd,1,0.0,1.0,8.335,1,1,0.0
afp14too3qdtpy7yf24t34qb,7,3,16,md,2,1.0,0.0,9.655,1,1,0.0
afp14too3qdtpy7yf24t34qb,8,3,17,pd,3,0.0,1.0,10.97,1,1,0.0
afp14too3qdtpy7yf24t34qb,9,3,23,md,1,1.0,0.0,9.934,1,1,0.0
afp14too3qdtpy7yf24t34qb,10,3,58,md,2,3.0,0.0,7.336,1,1,0.0
afp14too3qdtpy7yf24t34qb,11,3,35,pd,3,0.0,1.0,10.658,1,1,0.0
afp14too3qdtpy7yf24t34qb,12,3,76,pd,1,0.0,1.0,7.987,1,1,0.0
anvk62nkqtvq89v6zob2vgni,1,3,71,pd,2,0.0,1.0,10.703,1,1,0.0
anvk62nkqtvq89v6zob2vgni,2,3,55,pd,3,0.0,1.0,9.729,1,1,0.0
anvk62nkqtvq89v6zob2vgni,3,3,30,pd,1,0.0,1.0,11.734,1,1,0.0
anvk62nkqtvq89v6zob2vgni,4,3,45,pd,2,0.0,1.0,12.799,1,1,0.0
anvk62nkqtvq89v6zob2vgni,5,3,11,pd,3,0.0,1.0,12.392,1,1,0.0
anvk62nkqtvq89v6zob2vgni,6,3,29,pd,1,0.0,1.0,11.687,1,1,0.0
anvk62nkqtvq89v6zob2vgni,7,3,16,md,2,0.0,1.0,11.14,1,1,0.0
anvk62nkqtvq89v6zob2vgni,8,3,17,pd,3,0.0,1.0,12.416,1,1,0.0
anvk62nkqtvq89v6zob2vgni,9,3,23,md,1,1.0,0.0,9.591,1,1,0.0
anvk62nkqtvq89v6zob2vgni,10,3,58,md,2,0.0,1.0,13.938,1,1,0.0
anvk62nkqtvq89v6zob2vgni,11,3,35,pd,3,0.0,1.0,20.095,1,1,0.0
anvk62nkqtvq89v6zob2vgni,12,3,76,pd,1,0.0,1.0,14.0,1,1,0.0
asix2f04aq38c2o8gdn3j8uk,1,3,71,pd,1,0.0,1.0,12.938,1,1,0.0
asix2f04aq38c2o8gdn3j8uk,2,3,55,pd,2,0.0,1.0,14.512,1,1,0.0
asix2f04aq38c2o8gdn3j8uk,3,3,30,pd,3,0.0,1.0,9.951,1,1,0.0
asix2f04aq38c2o8gdn3j8uk,4,3,45,pd,1,0.0,1.0,15.782,1,1,0.0
asix2f04aq38c2o8gdn3j8uk,5,3,11,pd,2,0.0,1.0,12.004,1,1,0.0
asix2f04aq38c2o8gdn3j8uk,6,3,29,pd,3,0.0,1.0,21.556,1,1,0.0
asix2f04aq38c2o8gdn3j8uk,7,3,16,md,1,0.0,1.0,7.458,1,1,0.0
asix2f04aq38c2o8gdn3j8uk,8,3,17,pd,2,2.0,0.0,17.668,1,1,0.0
asix2f04aq38c2o8gdn3j8uk,9,3,23,md,3,1.0,0.0,10.743,1,1,0.0
asix2f04aq38c2o8gdn3j8uk,10,3,58,md,1,1.0,0.0,17.072,1,1,0.0
asix2f04aq38c2o8gdn3j8uk,11,3,35,pd,2,0.0,1.0,16.343,1,1,0.0
asix2f04aq38c2o8gdn3j8uk,12,3,76,pd,3,3.0,0.0,11.325,1,1,0.0
av4jenhfprndgcu5lslrmlmz,1,3,71,pd,1,0.0,1.0,3.428,1,1,0.0
av4jenhfprndgcu5lslrmlmz,2,3,55,pd,2,0.0,1.0,6.743,1,1,0.0
av4jenhfprndgcu5lslrmlmz,3,3,30,pd,3,3.0,0.0,11.514,1,1,0.0
av4jenhfprndgcu5lslrmlmz,4,3,45,pd,1,0.0,1.0,8.454,1,1,0.0
av4jenhfprndgcu5lslrmlmz,5,3,11,pd,2,0.0,1.0,17.495,1,1,0.0
av4jenhfprndgcu5lslrmlmz,6,3,29,pd,3,0.0,1.0,11.35,1,1,0.0
av4jenhfprndgcu5lslrmlmz,7,3,16,md,1,0.0,1.0,23.02,1,1,0.0
av4jenhfprndgcu5lslrmlmz,8,3,17,pd,2,1.0,0.0,22.717,1,1,0.0
av4jenhfprndgcu5lslrmlmz,9,3,23,md,3,0.0,1.0,24.081,1,1,0.0
av4jenhfprndgcu5lslrmlmz,10,3,58,md,1,0.0,1.0,17.394,1,1,0.0
av4jenhfprndgcu5lslrmlmz,11,3,35,pd,2,0.0,1.0,22.317,1,1,0.0
av4jenhfprndgcu5lslrmlmz,12,3,76,pd,3,0.0,1.0,15.917,1,1,0.0
azj78vq0mta467n8doj63c8h,1,3,71,pd,2,0.0,1.0,9.322,1,1,0.0
azj78vq0mta467n8doj63c8h,2,3,55,pd,3,0.0,1.0,18.446,1,1,0.0
azj78vq0mta467n8doj63c8h,3,3,30,pd,1,,,,1,1,0.0
azj78vq0mta467n8doj63c8h,4,3,45,pd,2,0.0,1.0,12.309,1,1,0.0
azj78vq0mta467n8doj63c8h,5,3,11,pd,3,0.0,1.0,11.011,1,1,0.0
azj78vq0mta467n8doj63c8h,6,3,29,pd,1,0.0,1.0,15.724,1,1,0.0
azj78vq0mta467n8doj63c8h,7,3,16,md,2,0.0,1.0,9.792,1,1,0.0
azj78vq0mta467n8doj63c8h,8,3,17,pd,3,0.0,1.0,27.311,1,1,0.0
azj78vq0mta467n8doj63c8h,9,3,23,md,1,0.0,1.0,24.24,1,1,0.0
azj78vq0mta467n8doj63c8h,10,3,58,md,2,3.0,0.0,26.384,1,1,0.0
azj78vq0mta467n8doj63c8h,11,3,35,pd,3,0.0,1.0,6.834,1,1,0.0
azj78vq0mta467n8doj63c8h,12,3,76,pd,1,3.0,0.0,6.1,1,1,0.0
b9t5ng97lbahokkoc0yb1w17,1,3,71,pd,3,0.0,1.0,4.987,1,1,0.0
b9t5ng97lbahokkoc0yb1w17,2,3,55,pd,1,0.0,1.0,4.776,1,1,0.0
b9t5ng97lbahokkoc0yb1w17,3,3,30,pd,2,0.0,1.0,5.185,1,1,0.0
b9t5ng97lbahokkoc0yb1w17,4,3,45,pd,3,2.0,0.0,6.529,1,1,0.0
b9t5ng97lbahokkoc0yb1w17,5,3,11,pd,1,3.0,0.0,5.399,1,1,0.0
b9t5ng97lbahokkoc0yb1w17,6,3,29,pd,2,2.0,0.0,4.841,1,1,0.0
b9t5ng97lbahokkoc0yb1w17,7,3,16,md,3,1.0,0.0,6.669,1,1,0.0
b9t5ng97lbahokkoc0yb1w17,8,3,17,pd,1,0.0,1.0,4.44,1,1,0.0
b9t5ng97lbahokkoc0yb1w17,9,3,23,md,2,3.0,0.0,5.979,1,1,0.0
b9t5ng97lbahokkoc0yb1w17,10,3,58,md,3,0.0,1.0,5.542,1,1,0.0
b9t5ng97lbahokkoc0yb1w17,11,3,35,pd,1,0.0,1.0,5.668,1,1,0.0
b9t5ng97lbahokkoc0yb1w17,12,3,76,pd,2,1.0,0.0,5.666,1,1,0.0
bh2gbiidt0gzz16dfzmbkqa0,1,3,71,pd,3,0.0,1.0,6.303,1,1,0.0
bh2gbiidt0gzz16dfzmbkqa0,2,3,55,pd,1,0.0,1.0,7.421,1,1,0.0
bh2gbiidt0gzz16dfzmbkqa0,3,3,30,pd,2,0.0,1.0,9.032,1,1,0.0
bh2gbiidt0gzz16dfzmbkqa0,4,3,45,pd,3,0.0,1.0,6.801,1,1,0.0
bh2gbiidt0gzz16dfzmbkqa0,5,3,11,pd,1,3.0,0.0,6.471,1,1,0.0
bh2gbiidt0gzz16dfzmbkqa0,6,3,29,pd,2,1.0,0.0,5.618,1,1,0.0
bh2gbiidt0gzz16dfzmbkqa0,7,3,16,md,3,0.0,1.0,5.484,1,1,0.0
bh2gbiidt0gzz16dfzmbkqa0,8,3,17,pd,1,2.0,0.0,6.155,1,1,0.0
bh2gbiidt0gzz16dfzmbkqa0,9,3,23,md,2,1.0,0.0,6.875,1,1,0.0
bh2gbiidt0gzz16dfzmbkqa0,10,3,58,md,3,1.0,0.0,7.521,1,1,0.0
bh2gbiidt0gzz16dfzmbkqa0,11,3,35,pd,1,2.0,0.0,6.765,1,1,0.0
bh2gbiidt0gzz16dfzmbkqa0,12,3,76,pd,2,0.0,1.0,6.826,1,1,0.0
bibr4vmh4s571rpxxd3izfwn,1,3,71,pd,3,0.0,1.0,8.011,1,1,0.0
bibr4vmh4s571rpxxd3izfwn,2,3,55,pd,1,0.0,1.0,5.772,1,1,0.0
bibr4vmh4s571rpxxd3izfwn,3,3,30,pd,2,0.0,1.0,14.827,1,1,0.0
bibr4vmh4s571rpxxd3izfwn,4,3,45,pd,3,1.0,0.0,13.26,1,1,0.0
bibr4vmh4s571rpxxd3izfwn,5,3,11,pd,1,3.0,0.0,8.484,1,1,0.0
bibr4vmh4s571rpxxd3izfwn,6,3,29,pd,2,0.0,1.0,27.195,1,1,0.0
bibr4vmh4s571rpxxd3izfwn,7,3,16,md,3,0.0,1.0,2.715,1,1,0.0
bibr4vmh4s571rpxxd3izfwn,8,3,17,pd,1,2.0,0.0,2.547,1,1,0.0
bibr4vmh4s571rpxxd3izfwn,9,3,23,md,2,3.0,0.0,2.339,1,1,0.0
bibr4vmh4s571rpxxd3izfwn,10,3,58,md,3,3.0,0.0,2.907,1,1,0.0
bibr4vmh4s571rpxxd3izfwn,11,3,35,pd,1,3.0,0.0,2.626,1,1,0.0
bibr4vmh4s571rpxxd3izfwn,12,3,76,pd,2,3.0,0.0,2.196,1,1,0.0
biehie4hpxkq60sfc84pzplp,1,3,71,pd,1,0.0,1.0,4.128,1,1,0.0
biehie4hpxkq60sfc84pzplp,2,3,55,pd,2,0.0,1.0,5.207,1,1,0.0
biehie4hpxkq60sfc84pzplp,3,3,30,pd,3,0.0,1.0,14.764,1,1,0.0
biehie4hpxkq60sfc84pzplp,4,3,45,pd,1,0.0,1.0,9.654,1,1,0.0
biehie4hpxkq60sfc84pzplp,5,3,11,pd,2,0.0,1.0,21.065,1,1,0.0
biehie4hpxkq60sfc84pzplp,6,3,29,pd,3,3.0,0.0,12.764,1,1,0.0
biehie4hpxkq60sfc84pzplp,7,3,16,md,1,0.0,1.0,10.478,1,1,0.0
biehie4hpxkq60sfc84pzplp,8,3,17,pd,2,1.0,0.0,12.933,1,1,0.0
biehie4hpxkq60sfc84pzplp,9,3,23,md,3,0.0,1.0,6.975,1,1,0.0
biehie4hpxkq60sfc84pzplp,10,3,58,md,1,1.0,0.0,11.022,1,1,0.0
biehie4hpxkq60sfc84pzplp,11,3,35,pd,2,1.0,0.0,18.658,1,1,0.0
biehie4hpxkq60sfc84pzplp,12,3,76,pd,3,0.0,1.0,11.254,1,1,0.0
biqonnr4iwtp8u6wqqpadu2a,1,3,71,pd,1,3.0,0.0,3.329,1,1,0.0
biqonnr4iwtp8u6wqqpadu2a,2,3,55,pd,2,0.0,1.0,11.155,1,1,0.0
biqonnr4iwtp8u6wqqpadu2a,3,3,30,pd,3,3.0,0.0,10.72,1,1,0.0
biqonnr4iwtp8u6wqqpadu2a,4,3,45,pd,1,0.0,1.0,12.702,1,1,0.0
biqonnr4iwtp8u6wqqpadu2a,5,3,11,pd,2,3.0,0.0,6.344,1,1,0.0
biqonnr4iwtp8u6wqqpadu2a,6,3,29,pd,3,3.0,0.0,11.608,1,1,0.0
biqonnr4iwtp8u6wqqpadu2a,7,3,16,md,1,0.0,1.0,8.838,1,1,0.0
biqonnr4iwtp8u6wqqpadu2a,8,3,17,pd,2,1.0,0.0,11.318,1,1,0.0
biqonnr4iwtp8u6wqqpadu2a,9,3,23,md,3,2.0,0.0,10.859,1,1,0.0
biqonnr4iwtp8u6wqqpadu2a,10,3,58,md,1,1.0,0.0,9.228,1,1,0.0
biqonnr4iwtp8u6wqqpadu2a,11,3,35,pd,2,1.0,0.0,9.224,1,1,0.0
biqonnr4iwtp8u6wqqpadu2a,12,3,76,pd,3,2.0,0.0,4.713,1,1,0.0
bnhqnb4drhbfpj3fixyznexn,1,3,71,pd,3,0.0,1.0,8.347,1,1,0.0
bnhqnb4drhbfpj3fixyznexn,2,3,55,pd,2,0.0,1.0,6.397,1,1,0.0
bnhqnb4drhbfpj3fixyznexn,3,3,30,pd,1,0.0,1.0,9.63,1,1,0.0
bnhqnb4drhbfpj3fixyznexn,4,3,45,pd,3,0.0,1.0,8.847,1,1,0.0
bnhqnb4drhbfpj3fixyznexn,5,3,11,pd,2,0.0,1.0,16.96,1,1,0.0
bnhqnb4drhbfpj3fixyznexn,6,3,29,pd,1,0.0,1.0,8.91,1,1,0.0
bnhqnb4drhbfpj3fixyznexn,7,3,16,md,3,0.0,1.0,8.399,1,1,0.0
bnhqnb4drhbfpj3fixyznexn,8,3,17,pd,2,0.0,1.0,10.631,1,1,0.0
bnhqnb4drhbfpj3fixyznexn,9,3,23,md,1,0.0,1.0,10.092,1,1,0.0
bnhqnb4drhbfpj3fixyznexn,10,3,58,md,3,0.0,1.0,8.449,1,1,0.0
bnhqnb4drhbfpj3fixyznexn,11,3,35,pd,2,0.0,1.0,10.51,1,1,0.0
bnhqnb4drhbfpj3fixyznexn,12,3,76,pd,1,0.0,1.0,15.654,1,1,0.0
bonu84eynx8to4noo1gep53n,1,3,71,pd,3,0.0,1.0,16.512,1,1,0.0
bonu84eynx8to4noo1gep53n,2,3,55,pd,1,0.0,1.0,20.259,1,1,0.0
bonu84eynx8to4noo1gep53n,3,3,30,pd,2,,,,1,1,0.0
bonu84eynx8to4noo1gep53n,4,3,45,pd,3,0.0,1.0,11.608,1,1,0.0
bonu84eynx8to4noo1gep53n,5,3,11,pd,1,0.0,1.0,12.843,1,1,0.0
bonu84eynx8to4noo1gep53n,6,3,29,pd,2,0.0,1.0,9.539,1,1,0.0
bonu84eynx8to4noo1gep53n,7,3,16,md,3,0.0,1.0,11.242,1,1,0.0
bonu84eynx8to4noo1gep53n,8,3,17,pd,1,0.0,1.0,11.141,1,1,0.0
bonu84eynx8to4noo1gep53n,9,3,23,md,2,1.0,0.0,20.506,1,1,0.0
bonu84eynx8to4noo1gep53n,10,3,58,md,3,0.0,1.0,29.148,1,1,0.0
bonu84eynx8to4noo1gep53n,11,3,35,pd,1,0.0,1.0,7.557,1,1,0.0
bonu84eynx8to4noo1gep53n,12,3,76,pd,2,0.0,1.0,20.332,1,1,0.0
bppynjwoe619kl445jdxl5yu,1,3,71,pd,3,2.0,0.0,4.052,1,1,0.0
bppynjwoe619kl445jdxl5yu,2,3,55,pd,2,0.0,1.0,9.361,1,1,0.0
bppynjwoe619kl445jdxl5yu,3,3,30,pd,1,0.0,1.0,11.735,1,1,0.0
bppynjwoe619kl445jdxl5yu,4,3,45,pd,3,1.0,0.0,11.366,1,1,0.0
bppynjwoe619kl445jdxl5yu,5,3,11,pd,2,3.0,0.0,11.055,1,1,0.0
bppynjwoe619kl445jdxl5yu,6,3,29,pd,1,0.0,1.0,11.119,1,1,0.0
bppynjwoe619kl445jdxl5yu,7,3,16,md,3,1.0,0.0,6.43,1,1,0.0
bppynjwoe619kl445jdxl5yu,8,3,17,pd,2,1.0,0.0,15.627,1,1,0.0
bppynjwoe619kl445jdxl5yu,9,3,23,md,1,0.0,1.0,25.673,1,1,0.0
bppynjwoe619kl445jdxl5yu,10,3,58,md,3,0.0,1.0,25.681,1,1,0.0
bppynjwoe619kl445jdxl5yu,11,3,35,pd,2,1.0,0.0,14.215,1,1,0.0
bppynjwoe619kl445jdxl5yu,12,3,76,pd,1,,,,1,1,0.0
bv3rpfsnlin5i8samevinw6e,1,3,71,pd,3,0.0,1.0,7.056,1,1,0.0
bv3rpfsnlin5i8samevinw6e,2,3,55,pd,1,0.0,1.0,8.586,1,1,0.0
bv3rpfsnlin5i8samevinw6e,3,3,30,pd,2,0.0,1.0,14.506,1,1,0.0
bv3rpfsnlin5i8samevinw6e,4,3,45,pd,3,0.0,1.0,7.841,1,1,0.0
bv3rpfsnlin5i8samevinw6e,5,3,11,pd,1,3.0,0.0,15.17,1,1,0.0
bv3rpfsnlin5i8samevinw6e,6,3,29,pd,2,0.0,1.0,7.48,1,1,0.0
bv3rpfsnlin5i8samevinw6e,7,3,16,md,3,0.0,1.0,15.578,1,1,0.0
bv3rpfsnlin5i8samevinw6e,8,3,17,pd,1,0.0,1.0,15.305,1,1,0.0
bv3rpfsnlin5i8samevinw6e,9,3,23,md,2,0.0,1.0,14.571,1,1,0.0
bv3rpfsnlin5i8samevinw6e,10,3,58,md,3,1.0,0.0,26.258,1,1,0.0
bv3rpfsnlin5i8samevinw6e,11,3,35,pd,1,2.0,0.0,9.404,1,1,0.0
bv3rpfsnlin5i8samevinw6e,12,3,76,pd,2,0.0,1.0,10.066,1,1,0.0
bw6rdole1yt1jot1wgxfzimi,1,3,71,pd,3,,,,0,1,1.0
bw6rdole1yt1jot1wgxfzimi,2,3,55,pd,2,,,,1,1,1.0
bw6rdole1yt1jot1wgxfzimi,3,3,30,pd,1,2.0,0.0,21.562,0,1,0.0
bw6rdole1yt1jot1wgxfzimi,4,3,45,pd,3,0.0,1.0,18.66,1,1,0.0
bw6rdole1yt1jot1wgxfzimi,5,3,11,pd,2,0.0,1.0,15.966,1,1,0.0
bw6rdole1yt1jot1wgxfzimi,6,3,29,pd,1,0.0,1.0,12.54,1,1,0.0
bw6rdole1yt1jot1wgxfzimi,7,3,16,md,3,0.0,1.0,10.631,1,1,0.0
bw6rdole1yt1jot1wgxfzimi,8,3,17,pd,2,0.0,1.0,14.865,1,1,0.0
bw6rdole1yt1jot1wgxfzimi,9,3,23,md,1,0.0,1.0,13.221,1,1,0.0
bw6rdole1yt1jot1wgxfzimi,10,3,58,md,3,0.0,1.0,19.841,1,1,0.0
bw6rdole1yt1jot1wgxfzimi,11,3,35,pd,2,3.0,0.0,16.594,1,1,0.0
bw6rdole1yt1jot1wgxfzimi,12,3,76,pd,1,0.0,1.0,15.146,1,1,0.0
byjabzdbugkiw5v2g2rhwok3,1,3,71,pd,1,2.0,0.0,4.582,1,1,0.0
byjabzdbugkiw5v2g2rhwok3,2,3,55,pd,2,0.0,1.0,19.659,1,1,0.0
byjabzdbugkiw5v2g2rhwok3,3,3,30,pd,3,3.0,0.0,9.998,1,1,0.0
byjabzdbugkiw5v2g2rhwok3,4,3,45,pd,1,0.0,1.0,17.014,1,1,0.0
byjabzdbugkiw5v2g2rhwok3,5,3,11,pd,2,1.0,0.0,11.731,1,1,0.0
byjabzdbugkiw5v2g2rhwok3,6,3,29,pd,3,0.0,1.0,11.284,1,1,0.0
byjabzdbugkiw5v2g2rhwok3,7,3,16,md,1,3.0,0.0,14.058,1,1,0.0
byjabzdbugkiw5v2g2rhwok3,8,3,17,pd,2,0.0,1.0,15.328,1,1,0.0
byjabzdbugkiw5v2g2rhwok3,9,3,23,md,3,0.0,1.0,14.0,1,1,0.0
byjabzdbugkiw5v2g2rhwok3,10,3,58,md,1,1.0,0.0,14.45,1,1,0.0
byjabzdbugkiw5v2g2rhwok3,11,3,35,pd,2,0.0,1.0,12.946,1,1,0.0
byjabzdbugkiw5v2g2rhwok3,12,3,76,pd,3,3.0,0.0,15.723,1,1,0.0
ccizjdhpne8gyrqv46ky4uzr,1,3,71,pd,3,0.0,1.0,15.114,1,1,0.0
ccizjdhpne8gyrqv46ky4uzr,2,3,55,pd,2,0.0,1.0,10.44,1,1,0.0
ccizjdhpne8gyrqv46ky4uzr,3,3,30,pd,1,0.0,1.0,11.51,1,1,0.0
ccizjdhpne8gyrqv46ky4uzr,4,3,45,pd,3,0.0,1.0,25.081,1,1,0.0
ccizjdhpne8gyrqv46ky4uzr,5,3,11,pd,2,0.0,1.0,15.029,1,1,0.0
ccizjdhpne8gyrqv46ky4uzr,6,3,29,pd,1,0.0,1.0,16.151,1,1,0.0
ccizjdhpne8gyrqv46ky4uzr,7,3,16,md,3,0.0,1.0,16.231,1,1,0.0
ccizjdhpne8gyrqv46ky4uzr,8,3,17,pd,2,0.0,1.0,23.61,1,1,0.0
ccizjdhpne8gyrqv46ky4uzr,9,3,23,md,1,0.0,1.0,14.728,1,1,0.0
ccizjdhpne8gyrqv46ky4uzr,10,3,58,md,3,0.0,1.0,14.415,1,1,0.0
ccizjdhpne8gyrqv46ky4uzr,11,3,35,pd,2,0.0,1.0,19.07,1,1,0.0
ccizjdhpne8gyrqv46ky4uzr,12,3,76,pd,1,0.0,1.0,18.693,1,1,0.0
cf2exwv92q3639ajwcqxjp6h,1,3,71,pd,1,0.0,1.0,18.668,1,1,0.0
cf2exwv92q3639ajwcqxjp6h,2,3,55,pd,2,0.0,1.0,26.518,1,1,0.0
cf2exwv92q3639ajwcqxjp6h,3,3,30,pd,3,0.0,1.0,23.707,1,1,0.0
cf2exwv92q3639ajwcqxjp6h,4,3,45,pd,1,0.0,1.0,13.091,1,1,0.0
cf2exwv92q3639ajwcqxjp6h,5,3,11,pd,2,3.0,0.0,13.518,1,1,0.0
cf2exwv92q3639ajwcqxjp6h,6,3,29,pd,3,0.0,1.0,10.457,0,1,0.0
cf2exwv92q3639ajwcqxjp6h,7,3,16,md,1,3.0,0.0,29.696,0,1,0.0
cf2exwv92q3639ajwcqxjp6h,8,3,17,pd,2,1.0,0.0,26.544,0,1,1.0
cf2exwv92q3639ajwcqxjp6h,9,3,23,md,3,0.0,1.0,19.389,1,1,0.0
cf2exwv92q3639ajwcqxjp6h,10,3,58,md,1,0.0,1.0,23.232,1,1,0.0
cf2exwv92q3639ajwcqxjp6h,11,3,35,pd,2,1.0,0.0,19.614,0,1,0.0
cf2exwv92q3639ajwcqxjp6h,12,3,76,pd,3,0.0,1.0,15.023,0,1,0.0
cgkc6pxov6542313smgbf9fn,1,3,71,pd,1,0.0,1.0,5.991,1,1,0.0
cgkc6pxov6542313smgbf9fn,2,3,55,pd,2,0.0,1.0,17.65,1,1,0.0
cgkc6pxov6542313smgbf9fn,3,3,30,pd,3,0.0,1.0,8.282,1,1,0.0
cgkc6pxov6542313smgbf9fn,4,3,45,pd,1,0.0,1.0,8.262,1,1,0.0
cgkc6pxov6542313smgbf9fn,5,3,11,pd,2,0.0,1.0,12.994,1,1,0.0
cgkc6pxov6542313smgbf9fn,6,3,29,pd,3,0.0,1.0,8.005,1,1,0.0
cgkc6pxov6542313smgbf9fn,7,3,16,md,1,0.0,1.0,8.065,1,1,0.0
cgkc6pxov6542313smgbf9fn,8,3,17,pd,2,0.0,1.0,25.585,1,1,0.0
cgkc6pxov6542313smgbf9fn,9,3,23,md,3,0.0,1.0,17.023,1,1,0.0
cgkc6pxov6542313smgbf9fn,10,3,58,md,1,0.0,1.0,11.779,1,1,0.0
cgkc6pxov6542313smgbf9fn,11,3,35,pd,2,0.0,1.0,27.671,1,1,0.0
cgkc6pxov6542313smgbf9fn,12,3,76,pd,3,0.0,1.0,23.61,1,1,0.0
ckqu6fi3n6f4rlwc3ews3ce8,1,3,71,pd,1,2.0,0.0,6.112,1,1,0.0
ckqu6fi3n6f4rlwc3ews3ce8,2,3,55,pd,2,0.0,1.0,11.061,1,1,0.0
ckqu6fi3n6f4rlwc3ews3ce8,3,3,30,pd,3,1.0,0.0,13.103,1,1,0.0
ckqu6fi3n6f4rlwc3ews3ce8,4,3,45,pd,1,0.0,1.0,12.772,1,1,0.0
ckqu6fi3n6f4rlwc3ews3ce8,5,3,11,pd,2,1.0,0.0,23.677,1,1,0.0
ckqu6fi3n6f4rlwc3ews3ce8,6,3,29,pd,3,3.0,0.0,23.664,1,1,0.0
ckqu6fi3n6f4rlwc3ews3ce8,7,3,16,md,1,3.0,0.0,11.197,1,1,0.0
ckqu6fi3n6f4rlwc3ews3ce8,8,3,17,pd,2,2.0,0.0,18.929,1,1,0.0
ckqu6fi3n6f4rlwc3ews3ce8,9,3,23,md,3,2.0,0.0,7.38,1,1,0.0
ckqu6fi3n6f4rlwc3ews3ce8,10,3,58,md,1,1.0,0.0,9.359,1,1,0.0
ckqu6fi3n6f4rlwc3ews3ce8,11,3,35,pd,2,2.0,0.0,28.461,1,1,0.0
ckqu6fi3n6f4rlwc3ews3ce8,12,3,76,pd,3,0.0,1.0,8.94,1,1,0.0
cujwjliz7vs2ql45auo8meze,1,3,71,pd,3,3.0,0.0,28.31,1,1,0.0
cujwjliz7vs2ql45auo8meze,2,3,55,pd,1,0.0,1.0,27.844,1,1,0.0
cujwjliz7vs2ql45auo8meze,3,3,30,pd,2,0.0,1.0,21.553,1,1,0.0
cujwjliz7vs2ql45auo8meze,4,3,45,pd,3,0.0,1.0,24.001,1,1,0.0
cujwjliz7vs2ql45auo8meze,5,3,11,pd,1,0.0,1.0,26.34,1,1,0.0
cujwjliz7vs2ql45auo8meze,6,3,29,pd,2,0.0,1.0,24.495,1,1,0.0
cujwjliz7vs2ql45auo8meze,7,3,16,md,3,0.0,1.0,23.814,1,1,0.0
cujwjliz7vs2ql45auo8meze,8,3,17,pd,1,0.0,1.0,21.651,1,1,0.0
cujwjliz7vs2ql45auo8meze,9,3,23,md,2,0.0,1.0,21.493,1,1,0.0
cujwjliz7vs2ql45auo8meze,10,3,58,md,3,0.0,1.0,28.308,1,1,0.0
cujwjliz7vs2ql45auo8meze,11,3,35,pd,1,0.0,1.0,26.362,1,1,0.0
cujwjliz7vs2ql45auo8meze,12,3,76,pd,2,0.0,1.0,21.916,1,1,0.0
cuxfw7tycjvu55m9g9bt7p60,1,3,71,pd,1,0.0,1.0,9.765,1,1,0.0
cuxfw7tycjvu55m9g9bt7p60,2,3,55,pd,2,0.0,1.0,12.753,1,1,0.0
cuxfw7tycjvu55m9g9bt7p60,3,3,30,pd,3,0.0,1.0,24.206,1,1,0.0
cuxfw7tycjvu55m9g9bt7p60,4,3,45,pd,1,0.0,1.0,17.119,1,1,0.0
cuxfw7tycjvu55m9g9bt7p60,5,3,11,pd,2,0.0,1.0,20.275,1,1,0.0
cuxfw7tycjvu55m9g9bt7p60,6,3,29,pd,3,0.0,1.0,15.328,0,1,0.0
cuxfw7tycjvu55m9g9bt7p60,7,3,16,md,1,0.0,1.0,12.057,1,1,0.0
cuxfw7tycjvu55m9g9bt7p60,8,3,17,pd,2,,,,1,1,0.0
cuxfw7tycjvu55m9g9bt7p60,9,3,23,md,3,0.0,1.0,16.409,1,1,0.0
cuxfw7tycjvu55m9g9bt7p60,10,3,58,md,1,0.0,1.0,16.249,0,1,0.0
cuxfw7tycjvu55m9g9bt7p60,11,3,35,pd,2,0.0,1.0,20.934,0,1,0.0
cuxfw7tycjvu55m9g9bt7p60,12,3,76,pd,3,0.0,1.0,25.904,1,1,0.0
cwjww21w8yi9x684h8ztqoty,1,3,71,pd,3,2.0,0.0,4.881,1,1,0.0
cwjww21w8yi9x684h8ztqoty,2,3,55,pd,1,0.0,1.0,7.051,1,1,0.0
cwjww21w8yi9x684h8ztqoty,3,3,30,pd,2,0.0,1.0,12.77,1,1,0.0
cwjww21w8yi9x684h8ztqoty,4,3,45,pd,3,0.0,1.0,16.779,1,1,0.0
cwjww21w8yi9x684h8ztqoty,5,3,11,pd,1,0.0,1.0,11.858,1,1,0.0
cwjww21w8yi9x684h8ztqoty,6,3,29,pd,2,0.0,1.0,12.645,1,1,0.0
cwjww21w8yi9x684h8ztqoty,7,3,16,md,3,3.0,0.0,8.339,1,1,0.0
cwjww21w8yi9x684h8ztqoty,8,3,17,pd,1,0.0,1.0,14.283,1,1,0.0
cwjww21w8yi9x684h8ztqoty,9,3,23,md,2,3.0,0.0,10.362,1,1,0.0
cwjww21w8yi9x684h8ztqoty,10,3,58,md,3,0.0,1.0,12.426,1,1,0.0
cwjww21w8yi9x684h8ztqoty,11,3,35,pd,1,0.0,1.0,10.579,1,1,0.0
cwjww21w8yi9x684h8ztqoty,12,3,76,pd,2,1.0,0.0,5.497,1,1,0.0
cxrluto8rtj5kmpjg5rg328j,1,3,71,pd,3,2.0,0.0,7.269,1,1,0.0
cxrluto8rtj5kmpjg5rg328j,2,3,55,pd,1,0.0,1.0,6.63,1,1,0.0
cxrluto8rtj5kmpjg5rg328j,3,3,30,pd,2,0.0,1.0,11.981,1,1,0.0
cxrluto8rtj5kmpjg5rg328j,4,3,45,pd,3,0.0,1.0,8.445,1,1,0.0
cxrluto8rtj5kmpjg5rg328j,5,3,11,pd,1,0.0,1.0,13.399,1,1,0.0
cxrluto8rtj5kmpjg5rg328j,6,3,29,pd,2,0.0,1.0,11.679,1,1,0.0
cxrluto8rtj5kmpjg5rg328j,7,3,16,md,3,0.0,1.0,15.596,1,1,0.0
cxrluto8rtj5kmpjg5rg328j,8,3,17,pd,1,1.0,0.0,17.855,1,1,0.0
cxrluto8rtj5kmpjg5rg328j,9,3,23,md,2,3.0,0.0,17.935,1,1,0.0
cxrluto8rtj5kmpjg5rg328j,10,3,58,md,3,1.0,0.0,13.695,1,1,0.0
cxrluto8rtj5kmpjg5rg328j,11,3,35,pd,1,0.0,1.0,9.303,1,1,0.0
cxrluto8rtj5kmpjg5rg328j,12,3,76,pd,2,0.0,1.0,10.196,1,1,0.0
cyqcu3205ucusvdl6g60j3i9,1,3,71,pd,1,0.0,1.0,8.873,1,1,0.0
cyqcu3205ucusvdl6g60j3i9,2,3,55,pd,2,0.0,1.0,18.444,1,1,0.0
cyqcu3205ucusvdl6g60j3i9,3,3,30,pd,3,0.0,1.0,17.052,1,1,0.0
cyqcu3205ucusvdl6g60j3i9,4,3,45,pd,1,0.0,1.0,18.973,1,1,0.0
cyqcu3205ucusvdl6g60j3i9,5,3,11,pd,2,0.0,1.0,17.856,1,1,0.0
cyqcu3205ucusvdl6g60j3i9,6,3,29,pd,3,0.0,1.0,25.415,1,1,0.0
cyqcu3205ucusvdl6g60j3i9,7,3,16,md,1,0.0,1.0,10.691,1,1,0.0
cyqcu3205ucusvdl6g60j3i9,8,3,17,pd,2,1.0,0.0,27.425,1,1,0.0
cyqcu3205ucusvdl6g60j3i9,9,3,23,md,3,0.0,1.0,11.268,1,1,0.0
cyqcu3205ucusvdl6g60j3i9,10,3,58,md,1,0.0,1.0,15.237,1,1,0.0
cyqcu3205ucusvdl6g60j3i9,11,3,35,pd,2,0.0,1.0,18.782,1,1,0.0
cyqcu3205ucusvdl6g60j3i9,12,3,76,pd,3,0.0,1.0,23.419,1,1,0.0
d4bq4ejxbk7pr3js2mbpxvnv,1,3,71,pd,1,0.0,1.0,7.8,1,1,0.0
d4bq4ejxbk7pr3js2mbpxvnv,2,3,55,pd,2,1.0,0.0,28.794,1,1,0.0
d4bq4ejxbk7pr3js2mbpxvnv,3,3,30,pd,3,3.0,0.0,16.894,1,1,0.0
d4bq4ejxbk7pr3js2mbpxvnv,4,3,45,pd,1,0.0,1.0,16.307,1,1,0.0
d4bq4ejxbk7pr3js2mbpxvnv,5,3,11,pd,2,0.0,1.0,20.762,1,1,0.0
d4bq4ejxbk7pr3js2mbpxvnv,6,3,29,pd,3,3.0,0.0,9.348,1,1,0.0
d4bq4ejxbk7pr3js2mbpxvnv,7,3,16,md,1,3.0,0.0,20.608,1,1,0.0
d4bq4ejxbk7pr3js2mbpxvnv,8,3,17,pd,2,0.0,1.0,17.489,1,1,0.0
d4bq4ejxbk7pr3js2mbpxvnv,9,3,23,md,3,3.0,0.0,16.136,1,1,0.0
d4bq4ejxbk7pr3js2mbpxvnv,10,3,58,md,1,0.0,1.0,14.571,1,1,0.0
d4bq4ejxbk7pr3js2mbpxvnv,11,3,35,pd,2,0.0,1.0,22.283,1,1,0.0
d4bq4ejxbk7pr3js2mbpxvnv,12,3,76,pd,3,0.0,1.0,21.679,1,1,0.0
d665qacqhdty2fkpz6clxzvl,1,3,71,pd,1,0.0,1.0,10.516,1,1,0.0
d665qacqhdty2fkpz6clxzvl,2,3,55,pd,2,0.0,1.0,11.013,1,1,0.0
d665qacqhdty2fkpz6clxzvl,3,3,30,pd,3,0.0,1.0,15.297,1,1,0.0
d665qacqhdty2fkpz6clxzvl,4,3,45,pd,1,0.0,1.0,8.706,1,1,0.0
d665qacqhdty2fkpz6clxzvl,5,3,11,pd,2,0.0,1.0,13.449,1,1,0.0
d665qacqhdty2fkpz6clxzvl,6,3,29,pd,3,0.0,1.0,11.565,1,1,0.0
d665qacqhdty2fkpz6clxzvl,7,3,16,md,1,0.0,1.0,10.843,1,1,0.0
d665qacqhdty2fkpz6clxzvl,8,3,17,pd,2,0.0,1.0,27.209,1,1,0.0
d665qacqhdty2fkpz6clxzvl,9,3,23,md,3,0.0,1.0,24.449,1,1,0.0
d665qacqhdty2fkpz6clxzvl,10,3,58,md,1,0.0,1.0,18.45,1,1,0.0
d665qacqhdty2fkpz6clxzvl,11,3,35,pd,2,0.0,1.0,27.933,1,1,0.0
d665qacqhdty2fkpz6clxzvl,12,3,76,pd,3,0.0,1.0,15.034,1,1,0.0
de5c3l1czdxwwc2gc8g08i0w,1,3,71,pd,2,2.0,0.0,4.193,1,1,0.0
de5c3l1czdxwwc2gc8g08i0w,2,3,55,pd,3,1.0,0.0,11.667,1,1,0.0
de5c3l1czdxwwc2gc8g08i0w,3,3,30,pd,1,3.0,0.0,10.45,1,1,0.0
de5c3l1czdxwwc2gc8g08i0w,4,3,45,pd,2,0.0,1.0,7.275,1,1,0.0
de5c3l1czdxwwc2gc8g08i0w,5,3,11,pd,3,3.0,0.0,10.966,1,1,0.0
de5c3l1czdxwwc2gc8g08i0w,6,3,29,pd,1,3.0,0.0,13.763,1,1,0.0
de5c3l1czdxwwc2gc8g08i0w,7,3,16,md,2,3.0,0.0,15.745,1,1,0.0
de5c3l1czdxwwc2gc8g08i0w,8,3,17,pd,3,1.0,0.0,5.429,1,1,0.0
de5c3l1czdxwwc2gc8g08i0w,9,3,23,md,1,3.0,0.0,10.724,1,1,0.0
de5c3l1czdxwwc2gc8g08i0w,10,3,58,md,2,1.0,0.0,8.806,1,1,0.0
de5c3l1czdxwwc2gc8g08i0w,11,3,35,pd,3,2.0,0.0,5.485,1,1,0.0
de5c3l1czdxwwc2gc8g08i0w,12,3,76,pd,1,1.0,0.0,6.193,1,1,0.0
dh3tec5fqs2m2ey3kynk7qn4,1,3,71,pd,3,0.0,1.0,10.449,1,1,0.0
dh3tec5fqs2m2ey3kynk7qn4,2,3,55,pd,1,0.0,1.0,15.721,1,1,0.0
dh3tec5fqs2m2ey3kynk7qn4,3,3,30,pd,2,0.0,1.0,17.531,1,1,0.0
dh3tec5fqs2m2ey3kynk7qn4,4,3,45,pd,3,0.0,1.0,11.651,1,1,0.0
dh3tec5fqs2m2ey3kynk7qn4,5,3,11,pd,1,0.0,1.0,11.642,1,1,0.0
dh3tec5fqs2m2ey3kynk7qn4,6,3,29,pd,2,1.0,0.0,17.29,1,1,0.0
dh3tec5fqs2m2ey3kynk7qn4,7,3,16,md,3,0.0,1.0,11.445,1,1,0.0
dh3tec5fqs2m2ey3kynk7qn4,8,3,17,pd,1,1.0,0.0,12.419,1,1,0.0
dh3tec5fqs2m2ey3kynk7qn4,9,3,23,md,2,3.0,0.0,8.859,1,1,0.0
dh3tec5fqs2m2ey3kynk7qn4,10,3,58,md,3,1.0,0.0,12.092,1,1,0.0
dh3tec5fqs2m2ey3kynk7qn4,11,3,35,pd,1,0.0,1.0,10.363,1,1,0.0
dh3tec5fqs2m2ey3kynk7qn4,12,3,76,pd,2,3.0,0.0,8.211,1,1,0.0
dmhyd9lmiuc57y5gred9h8lz,1,3,71,pd,1,0.0,1.0,8.126,1,1,0.0
dmhyd9lmiuc57y5gred9h8lz,2,3,55,pd,2,2.0,0.0,11.718,1,1,0.0
dmhyd9lmiuc57y5gred9h8lz,3,3,30,pd,3,2.0,0.0,7.748,1,1,0.0
dmhyd9lmiuc57y5gred9h8lz,4,3,45,pd,1,0.0,1.0,8.98,1,1,0.0
dmhyd9lmiuc57y5gred9h8lz,5,3,11,pd,2,2.0,0.0,7.768,1,1,0.0
dmhyd9lmiuc57y5gred9h8lz,6,3,29,pd,3,3.0,0.0,9.323,1,1,0.0
dmhyd9lmiuc57y5gred9h8lz,7,3,16,md,1,3.0,0.0,3.83,1,1,0.0
dmhyd9lmiuc57y5gred9h8lz,8,3,17,pd,2,2.0,0.0,5.77,1,1,0.0
dmhyd9lmiuc57y5gred9h8lz,9,3,23,md,3,1.0,0.0,12.091,1,1,0.0
dmhyd9lmiuc57y5gred9h8lz,10,3,58,md,1,2.0,0.0,8.645,1,1,0.0
dmhyd9lmiuc57y5gred9h8lz,11,3,35,pd,2,2.0,0.0,16.405,1,1,0.0
dmhyd9lmiuc57y5gred9h8lz,12,3,76,pd,3,0.0,1.0,8.046,1,1,0.0
dqrv28q6hr0c4l37490i85xy,1,3,71,pd,3,2.0,0.0,4.563,1,1,0.0
dqrv28q6hr0c4l37490i85xy,2,3,55,pd,1,2.0,0.0,11.941,1,1,0.0
dqrv28q6hr0c4l37490i85xy,3,3,30,pd,2,0.0,1.0,11.044,1,1,0.0
dqrv28q6hr0c4l37490i85xy,4,3,45,pd,3,2.0,0.0,15.545,1,1,0.0
dqrv28q6hr0c4l37490i85xy,5,3,11,pd,1,0.0,1.0,14.094,1,1,0.0
