[{"rt":34868.90500001027,"responses":{"age":"44","gender-categorical":"Male","gender-free-response":"","ethnicity":"Not Hispanic or Latino","race":["White"],"education":"Some college"},"trial_type":"survey-demo","trial_index":0,"time_elapsed":34885,"internal_node_id":"0.0-0.0"},{"view_history":[{"page_index":0,"viewing_time":8287.849999993341},{"page_index":1,"viewing_time":8675.775000010617},{"page_index":2,"viewing_time":3464.46499999729}],"rt":20430.919999984326,"trial_type":"instructions","trial_index":1,"time_elapsed":55321,"internal_node_id":"0.0-1.0"},{"stimulus":"../static/img/practice/pt1_M1.png","correct":0,"choice":0,"accuracy":1,"rt":5447.805000003427,"item_set":"practice","trial_type":"mars","trial_index":2,"time_elapsed":62776,"internal_node_id":"0.0-2.0-0.0"},{"stimulus":"../static/img/practice/pt2_M1.png","correct":0,"choice":0,"accuracy":1,"rt":4424.224999995204,"item_set":"practice","trial_type":"mars","trial_index":3,"time_elapsed":69212,"internal_node_id":"0.0-3.0-0.0"},{"stimulus":"../static/img/practice/pt3_M1.png","correct":0,"choice":0,"accuracy":1,"rt":2425.8799999952316,"item_set":"practice","trial_type":"mars","trial_index":4,"time_elapsed":73649,"internal_node_id":"0.0-4.0-0.0"},{"view_history":[{"page_index":0,"viewing_time":2111.3900000054855},{"page_index":1,"viewing_time":5304.304999997839}],"rt":7416.280000004917,"trial_type":"instructions","trial_index":5,"time_elapsed":81071,"internal_node_id":"0.0-5.0"},{"stimulus":"../static/img/is3/tf1/tf1_19_M_ss3.jpeg","correct":0,"choice":1,"accuracy":0,"rt":8587.559999985388,"item_set":3,"test_form":1,"distractor":"pd","trial_type":"mars","trial_index":6,"time_elapsed":90415,"internal_node_id":"0.0-6.0"},{"stimulus":"../static/img/is3/tf1/tf1_20_M_ss1.jpeg","correct":0,"choice":3,"accuracy":0,"rt":18446.819999982836,"item_set":3,"test_form":1,"distractor":"pd","trial_type":"mars","trial_index":7,"time_elapsed":109622,"internal_node_id":"0.0-7.0"},{"stimulus":"../static/img/is3/tf1/tf1_11_M_ss1.jpeg","correct":0,"choice":2,"accuracy":0,"rt":18132.949999999255,"item_set":3,"test_form":1,"distractor":"pd","trial_type":"mars","trial_index":8,"time_elapsed":128513,"internal_node_id":"0.0-8.0"},{"stimulus":"../static/img/is3/tf1/tf1_18_M_ss2.jpeg","correct":0,"choice":0,"accuracy":1,"rt":17642.599999991944,"item_set":3,"test_form":1,"distractor":"pd","trial_type":"mars","trial_index":9,"time_elapsed":146910,"internal_node_id":"0.0-9.0"},{"stimulus":"../static/img/is3/tf1/tf1_12_M_ss2.jpeg","correct":0,"choice":0,"accuracy":1,"rt":17350.215000013122,"item_set":3,"test_form":1,"distractor":"pd","trial_type":"mars","trial_index":10,"time_elapsed":165021,"internal_node_id":"0.0-10.0"},{"stimulus":"../static/img/is3/tf1/tf1_23_M_ss1.jpeg","correct":0,"choice":0,"accuracy":1,"rt":9404.569999984233,"item_set":3,"test_form":1,"distractor":"pd","trial_type":"mars","trial_index":11,"time_elapsed":175186,"internal_node_id":"0.0-11.0"},{"stimulus":"../static/img/is3/tf1/tf1_52_M_ss3.jpeg","correct":0,"choice":1,"accuracy":0,"rt":28808.560000004945,"item_set":3,"test_form":1,"distractor":"pd","trial_type":"mars","trial_index":12,"time_elapsed":204754,"internal_node_id":"0.0-12.0"},{"stimulus":"../static/img/is3/tf1/tf1_59_M_ss1.jpeg","correct":0,"choice":3,"accuracy":0,"rt":28986.36000000988,"item_set":3,"test_form":1,"distractor":"pd","trial_type":"mars","trial_index":13,"time_elapsed":234501,"internal_node_id":"0.0-13.0","interactions":"[]"}]