[{"rt":8334.704999999303,"responses":{"age":"39","gender-categorical":"Male","gender-free-response":"","ethnicity":"Not Hispanic or Latino","race":["White"],"education":"Master degree or higher"},"trial_type":"survey-demo","trial_index":0,"time_elapsed":8345,"internal_node_id":"0.0-0.0"},{"view_history":[{"page_index":0,"viewing_time":4957.135000000562},{"page_index":1,"viewing_time":3937.260000000606},{"page_index":2,"viewing_time":1700.6600000004255}],"rt":10596.080000001166,"trial_type":"instructions","trial_index":1,"time_elapsed":18956,"internal_node_id":"0.0-1.0"},{"stimulus":"../static/img/practice/pt1_M1.png","correct":0,"choice":0,"accuracy":1,"rt":3311.250000000655,"item_set":"practice","trial_type":"mars","trial_index":2,"time_elapsed":24274,"internal_node_id":"0.0-2.0-0.0"},{"stimulus":"../static/img/practice/pt2_M1.png","correct":0,"choice":0,"accuracy":1,"rt":4751.310000001467,"item_set":"practice","trial_type":"mars","trial_index":3,"time_elapsed":31033,"internal_node_id":"0.0-3.0-0.0"},{"stimulus":"../static/img/practice/pt3_M1.png","correct":0,"choice":0,"accuracy":1,"rt":2351.3849999999366,"item_set":"practice","trial_type":"mars","trial_index":4,"time_elapsed":35393,"internal_node_id":"0.0-4.0-0.0"},{"view_history":[{"page_index":0,"viewing_time":1418.9649999989342},{"page_index":1,"viewing_time":2225.6300000008196}],"rt":3644.9049999991985,"trial_type":"instructions","trial_index":5,"time_elapsed":39043,"internal_node_id":"0.0-5.0"},{"stimulus":"../static/img/is3/tf1/tf1_1_M_ss3.jpeg","correct":0,"choice":0,"accuracy":1,"rt":3709.4400000005407,"item_set":3,"test_form":1,"distractor":"pd","trial_type":"mars","trial_index":6,"time_elapsed":43508,"internal_node_id":"0.0-6.0"},{"stimulus":"../static/img/is3/tf1/tf1_6_M_ss2.jpeg","correct":0,"choice":0,"accuracy":1,"rt":14283.794999999373,"item_set":3,"test_form":1,"distractor":"pd","trial_type":"mars","trial_index":7,"time_elapsed":58562,"internal_node_id":"0.0-7.0"},{"stimulus":"../static/img/is3/tf1/tf1_11_M_ss1.jpeg","correct":0,"choice":0,"accuracy":1,"rt":11891.734999999244,"item_set":3,"test_form":1,"distractor":"pd","trial_type":"mars","trial_index":8,"time_elapsed":71212,"internal_node_id":"0.0-8.0"},{"stimulus":"../static/img/is3/tf1/tf1_18_M_ss2.jpeg","correct":0,"choice":3,"accuracy":0,"rt":20949.41000000108,"item_set":3,"test_form":1,"distractor":"pd","trial_type":"mars","trial_index":9,"time_elapsed":92919,"internal_node_id":"0.0-9.0"},{"stimulus":"../static/img/is3/tf1/tf1_16_M_ss3.jpeg","correct":0,"choice":0,"accuracy":1,"rt":7806.340000001001,"item_set":3,"test_form":1,"distractor":"pd","trial_type":"mars","trial_index":10,"time_elapsed":101485,"internal_node_id":"0.0-10.0"},{"stimulus":"../static/img/is3/tf1/tf1_17_M_ss1.jpeg","correct":0,"choice":null,"accuracy":null,"rt":null,"item_set":3,"test_form":1,"distractor":"pd","trial_type":"mars","trial_index":11,"time_elapsed":131789,"internal_node_id":"0.0-11.0"},{"stimulus":"../static/img/is3/tf1/tf1_14_M_ss1.jpeg","correct":0,"choice":1,"accuracy":0,"rt":14150.98000000033,"item_set":3,"test_form":1,"distractor":"pd","trial_type":"mars","trial_index":12,"time_elapsed":146714,"internal_node_id":"0.0-12.0"},{"stimulus":"../static/img/is3/tf1/tf1_26_M_ss1.jpeg","correct":0,"choice":0,"accuracy":1,"rt":23804.579999999987,"item_set":3,"test_form":1,"distractor":"pd","trial_type":"mars","trial_index":13,"time_elapsed":171282,"internal_node_id":"0.0-13.0","interactions":"[{\"event\":\"blur\",\"trial\":7,\"time\":46335},{\"event\":\"focus\",\"trial\":7,\"time\":53794},{\"event\":\"blur\",\"trial\":9,\"time\":74352},{\"event\":\"focus\",\"trial\":9,\"time\":88589},{\"event\":\"blur\",\"trial\":11,\"time\":113209},{\"event\":\"focus\",\"trial\":12,\"time\":134302},{\"event\":\"blur\",\"trial\":13,\"time\":149137},{\"event\":\"focus\",\"trial\":13,\"time\":160910}]"}]