[{"rt":5711.9499999971595,"responses":{"age":"31","gender-categorical":"Male","gender-free-response":"","ethnicity":"Not Hispanic or Latino","race":["White"],"education":"Bachelor degree"},"trial_type":"survey-demo","trial_index":0,"time_elapsed":5716,"internal_node_id":"0.0-0.0"},{"view_history":[{"page_index":0,"viewing_time":7193.6749999877065},{"page_index":1,"viewing_time":3648.6000000149943},{"page_index":2,"viewing_time":1141.0500000056345}],"rt":11984.009999985574,"trial_type":"instructions","trial_index":1,"time_elapsed":17701,"internal_node_id":"0.0-1.0"},{"stimulus":"../static/img/practice/pt1_M1.png","correct":0,"choice":0,"accuracy":1,"rt":9500,"item_set":"practice","trial_type":"mars","trial_index":2,"time_elapsed":29203,"internal_node_id":"0.0-2.0-0.0"},{"stimulus":"../static/img/practice/pt2_M1.png","correct":0,"choice":0,"accuracy":1,"rt":7517.850000003818,"item_set":"practice","trial_type":"mars","trial_index":3,"time_elapsed":38724,"internal_node_id":"0.0-3.0-0.0"},{"stimulus":"../static/img/practice/pt3_M1.png","correct":0,"choice":0,"accuracy":1,"rt":3472.5500000058673,"item_set":"practice","trial_type":"mars","trial_index":4,"time_elapsed":44198,"internal_node_id":"0.0-4.0-0.0"},{"view_history":[{"page_index":0,"viewing_time":1210.5299999821},{"page_index":1,"viewing_time":2243.835000001127}],"rt":3454.5599999837577,"trial_type":"instructions","trial_index":5,"time_elapsed":47653,"internal_node_id":"0.0-5.0"},{"stimulus":"../static/img/is3/tf1/tf1_1_M_ss3.jpeg","correct":0,"choice":0,"accuracy":1,"rt":3628.3450000046287,"item_set":3,"test_form":1,"distractor":"pd","trial_type":"mars","trial_index":6,"time_elapsed":52034,"internal_node_id":"0.0-6.0"},{"stimulus":"../static/img/is3/tf1/tf1_6_M_ss2.jpeg","correct":0,"choice":0,"accuracy":1,"rt":9057.429999986198,"item_set":3,"test_form":1,"distractor":"pd","trial_type":"mars","trial_index":7,"time_elapsed":61844,"internal_node_id":"0.0-7.0"},{"stimulus":"../static/img/is3/tf1/tf1_15_M_ss2.jpeg","correct":0,"choice":0,"accuracy":1,"rt":11563.239999988582,"item_set":3,"test_form":1,"distractor":"pd","trial_type":"mars","trial_index":8,"time_elapsed":74161,"internal_node_id":"0.0-8.0"},{"stimulus":"../static/img/is3/tf1/tf1_10_M_ss3.jpeg","correct":0,"choice":0,"accuracy":1,"rt":23559.80499999714,"item_set":3,"test_form":1,"distractor":"pd","trial_type":"mars","trial_index":9,"time_elapsed":98473,"internal_node_id":"0.0-9.0"},{"stimulus":"../static/img/is3/tf1/tf1_16_M_ss3.jpeg","correct":0,"choice":0,"accuracy":1,"rt":17833.890000008978,"item_set":3,"test_form":1,"distractor":"pd","trial_type":"mars","trial_index":10,"time_elapsed":117060,"internal_node_id":"0.0-10.0"},{"stimulus":"../static/img/is3/tf1/tf1_17_M_ss1.jpeg","correct":0,"choice":0,"accuracy":1,"rt":17491.834999993443,"item_set":3,"test_form":1,"distractor":"pd","trial_type":"mars","trial_index":11,"time_elapsed":135304,"internal_node_id":"0.0-11.0"},{"stimulus":"../static/img/is3/tf1/tf1_14_M_ss1.jpeg","correct":0,"choice":0,"accuracy":1,"rt":21884.869999979855,"item_set":3,"test_form":1,"distractor":"pd","trial_type":"mars","trial_index":12,"time_elapsed":157941,"internal_node_id":"0.0-12.0"},{"stimulus":"../static/img/is3/tf1/tf1_26_M_ss1.jpeg","correct":0,"choice":2,"accuracy":0,"rt":18810.115000000224,"item_set":3,"test_form":1,"distractor":"pd","trial_type":"mars","trial_index":13,"time_elapsed":177504,"internal_node_id":"0.0-13.0","interactions":"[{\"event\":\"blur\",\"trial\":4,\"time\":43641},{\"event\":\"focus\",\"trial\":5,\"time\":45341},{\"event\":\"blur\",\"trial\":11,\"time\":119952},{\"event\":\"focus\",\"trial\":11,\"time\":121385},{\"event\":\"blur\",\"trial\":12,\"time\":137810},{\"event\":\"focus\",\"trial\":12,\"time\":139393}]"}]