[{"rt":11636.429999984102,"responses":{"age":"33","gender-categorical":"Female","gender-free-response":"","ethnicity":"Not Hispanic or Latino","race":["White"],"education":"Master degree or higher"},"trial_type":"survey-demo","trial_index":0,"time_elapsed":11639,"internal_node_id":"0.0-0.0"},{"view_history":[{"page_index":0,"viewing_time":26257.439999986673},{"page_index":1,"viewing_time":4799.680000025546},{"page_index":2,"viewing_time":1338.1499999959487}],"rt":32395.985000010114,"trial_type":"instructions","trial_index":1,"time_elapsed":44035,"internal_node_id":"0.0-1.0"},{"stimulus":"../static/img/practice/pt1_M1.png","correct":0,"choice":0,"accuracy":1,"rt":3538.8349999848288,"item_set":"practice","trial_type":"mars","trial_index":2,"time_elapsed":49577,"internal_node_id":"0.0-2.0-0.0"},{"stimulus":"../static/img/practice/pt2_M1.png","correct":0,"choice":0,"accuracy":1,"rt":2596.575000003213,"item_set":"practice","trial_type":"mars","trial_index":3,"time_elapsed":54176,"internal_node_id":"0.0-3.0-0.0"},{"stimulus":"../static/img/practice/pt3_M1.png","correct":0,"choice":0,"accuracy":1,"rt":2140.2699999744073,"item_set":"practice","trial_type":"mars","trial_index":4,"time_elapsed":58318,"internal_node_id":"0.0-4.0-0.0"},{"view_history":[{"page_index":0,"viewing_time":1183.8650000281632},{"page_index":1,"viewing_time":27921.979999984615}],"rt":29106.030000024475,"trial_type":"instructions","trial_index":5,"time_elapsed":87425,"internal_node_id":"0.0-5.0"},{"stimulus":"../static/img/is3/tf1/tf1_19_M_ss3.jpeg","correct":0,"choice":0,"accuracy":1,"rt":6545.585000014398,"item_set":3,"test_form":1,"distractor":"pd","trial_type":"mars","trial_index":6,"time_elapsed":94722,"internal_node_id":"0.0-6.0"},{"stimulus":"../static/img/is3/tf1/tf1_20_M_ss1.jpeg","correct":0,"choice":0,"accuracy":1,"rt":7906.914999999572,"item_set":3,"test_form":1,"distractor":"pd","trial_type":"mars","trial_index":7,"time_elapsed":103384,"internal_node_id":"0.0-7.0"},{"stimulus":"../static/img/is3/tf1/tf1_11_M_ss1.jpeg","correct":0,"choice":0,"accuracy":1,"rt":9105.030000006082,"item_set":3,"test_form":1,"distractor":"pd","trial_type":"mars","trial_index":8,"time_elapsed":113242,"internal_node_id":"0.0-8.0"},{"stimulus":"../static/img/is3/tf1/tf1_18_M_ss2.jpeg","correct":0,"choice":2,"accuracy":0,"rt":9546.6749999905,"item_set":3,"test_form":1,"distractor":"pd","trial_type":"mars","trial_index":9,"time_elapsed":123543,"internal_node_id":"0.0-9.0"},{"stimulus":"../static/img/is3/tf1/tf1_16_M_ss3.jpeg","correct":0,"choice":0,"accuracy":1,"rt":17169.155000010505,"item_set":3,"test_form":1,"distractor":"pd","trial_type":"mars","trial_index":10,"time_elapsed":141471,"internal_node_id":"0.0-10.0"},{"stimulus":"../static/img/is3/tf1/tf1_17_M_ss1.jpeg","correct":0,"choice":0,"accuracy":1,"rt":11748.519999993732,"item_set":3,"test_form":1,"distractor":"pd","trial_type":"mars","trial_index":11,"time_elapsed":153972,"internal_node_id":"0.0-11.0"},{"stimulus":"../static/img/is3/tf1/tf1_14_M_ss1.jpeg","correct":0,"choice":2,"accuracy":0,"rt":8805.155000009108,"item_set":3,"test_form":1,"distractor":"pd","trial_type":"mars","trial_index":12,"time_elapsed":163530,"internal_node_id":"0.0-12.0"},{"stimulus":"../static/img/is3/tf1/tf1_26_M_ss1.jpeg","correct":0,"choice":3,"accuracy":0,"rt":18263.160000002244,"item_set":3,"test_form":1,"distractor":"pd","trial_type":"mars","trial_index":13,"time_elapsed":182547,"internal_node_id":"0.0-13.0","interactions":"[{\"event\":\"blur\",\"trial\":1,\"time\":18908},{\"event\":\"focus\",\"trial\":1,\"time\":36968},{\"event\":\"blur\",\"trial\":5,\"time\":61153},{\"event\":\"focus\",\"trial\":5,\"time\":85367},{\"event\":\"blur\",\"trial\":13,\"time\":164491},{\"event\":\"focus\",\"trial\":13,\"time\":166927}]"}]