[{"rt":20513.875000178814,"responses":{"age":"27","gender-categorical":"Female","gender-free-response":"","ethnicity":"Not Hispanic or Latino","race":["White"],"education":"Bachelor degree"},"trial_type":"survey-demo","trial_index":0,"time_elapsed":20518,"internal_node_id":"0.0-0.0"},{"view_history":[{"page_index":0,"viewing_time":3922.9049999266863},{"page_index":1,"viewing_time":3431.800000136718},{"page_index":2,"viewing_time":1251.8649999983609}],"rt":8607.51000000164,"trial_type":"instructions","trial_index":1,"time_elapsed":29127,"internal_node_id":"0.0-1.0"},{"stimulus":"../static/img/practice/pt1_M1.png","correct":0,"choice":0,"accuracy":1,"rt":2830.250000115484,"item_set":"practice","trial_type":"mars","trial_index":2,"time_elapsed":33960,"internal_node_id":"0.0-2.0-0.0"},{"stimulus":"../static/img/practice/pt2_M1.png","correct":0,"choice":0,"accuracy":1,"rt":7473.2949999161065,"item_set":"practice","trial_type":"mars","trial_index":3,"time_elapsed":43437,"internal_node_id":"0.0-3.0-0.0"},{"stimulus":"../static/img/practice/pt3_M1.png","correct":0,"choice":0,"accuracy":1,"rt":1908.9549998752773,"item_set":"practice","trial_type":"mars","trial_index":4,"time_elapsed":47348,"internal_node_id":"0.0-4.0-0.0"},{"view_history":[{"page_index":0,"viewing_time":1215.834999922663},{"page_index":1,"viewing_time":1637.9050000105053}],"rt":2854.1149999946356,"trial_type":"instructions","trial_index":5,"time_elapsed":50205,"internal_node_id":"0.0-5.0"},{"stimulus":"../static/img/is3/tf1/tf1_19_M_ss3.jpeg","correct":0,"choice":0,"accuracy":1,"rt":6684.454999864101,"item_set":3,"test_form":1,"distractor":"pd","trial_type":"mars","trial_index":6,"time_elapsed":57642,"internal_node_id":"0.0-6.0"},{"stimulus":"../static/img/is3/tf1/tf1_20_M_ss1.jpeg","correct":0,"choice":0,"accuracy":1,"rt":4099.494999973103,"item_set":3,"test_form":1,"distractor":"pd","trial_type":"mars","trial_index":7,"time_elapsed":62494,"internal_node_id":"0.0-7.0"},{"stimulus":"../static/img/is3/tf1/tf1_11_M_ss1.jpeg","correct":0,"choice":3,"accuracy":0,"rt":6664.439999964088,"item_set":3,"test_form":1,"distractor":"pd","trial_type":"mars","trial_index":8,"time_elapsed":69910,"internal_node_id":"0.0-8.0"},{"stimulus":"../static/img/is3/tf1/tf1_18_M_ss2.jpeg","correct":0,"choice":0,"accuracy":1,"rt":10190.7600001432,"item_set":3,"test_form":1,"distractor":"pd","trial_type":"mars","trial_index":9,"time_elapsed":80854,"internal_node_id":"0.0-9.0"},{"stimulus":"../static/img/is3/tf1/tf1_16_M_ss3.jpeg","correct":0,"choice":0,"accuracy":1,"rt":7244.1300000064075,"item_set":3,"test_form":1,"distractor":"pd","trial_type":"mars","trial_index":10,"time_elapsed":88851,"internal_node_id":"0.0-10.0"},{"stimulus":"../static/img/is3/tf1/tf1_17_M_ss1.jpeg","correct":0,"choice":0,"accuracy":1,"rt":16272.200000006706,"item_set":3,"test_form":1,"distractor":"pd","trial_type":"mars","trial_index":11,"time_elapsed":105877,"internal_node_id":"0.0-11.0"},{"stimulus":"../static/img/is3/tf1/tf1_52_M_ss3.jpeg","correct":0,"choice":0,"accuracy":1,"rt":5873.444999800995,"item_set":3,"test_form":1,"distractor":"pd","trial_type":"mars","trial_index":12,"time_elapsed":112504,"internal_node_id":"0.0-12.0"},{"stimulus":"../static/img/is3/tf1/tf1_59_M_ss1.jpeg","correct":0,"choice":0,"accuracy":1,"rt":5521.120000164956,"item_set":3,"test_form":1,"distractor":"pd","trial_type":"mars","trial_index":13,"time_elapsed":118778,"internal_node_id":"0.0-13.0","interactions":"[{\"event\":\"blur\",\"trial\":3,\"time\":37632},{\"event\":\"focus\",\"trial\":3,\"time\":39341},{\"event\":\"blur\",\"trial\":11,\"time\":92170},{\"event\":\"focus\",\"trial\":11,\"time\":94154}]"}]