[{"rt":10163.369999994757,"responses":{"age":"28","gender-categorical":"Male","gender-free-response":"","ethnicity":"Not Hispanic or Latino","race":["White"],"education":"Bachelor degree"},"trial_type":"survey-demo","trial_index":0,"time_elapsed":10167,"internal_node_id":"0.0-0.0"},{"view_history":[{"page_index":0,"viewing_time":6616.604999995616},{"page_index":1,"viewing_time":7626.620000002731},{"page_index":2,"viewing_time":1361.9499999986147}],"rt":15605.43499999767,"trial_type":"instructions","trial_index":1,"time_elapsed":25774,"internal_node_id":"0.0-1.0"},{"stimulus":"../static/img/practice/pt1_M1.png","correct":0,"choice":0,"accuracy":1,"rt":3807.410000001255,"item_set":"practice","trial_type":"mars","trial_index":2,"time_elapsed":31584,"internal_node_id":"0.0-2.0-0.0"},{"stimulus":"../static/img/practice/pt2_M1.png","correct":0,"choice":0,"accuracy":1,"rt":2783.6349999997765,"item_set":"practice","trial_type":"mars","trial_index":3,"time_elapsed":36373,"internal_node_id":"0.0-3.0-0.0"},{"stimulus":"../static/img/practice/pt3_M1.png","correct":0,"choice":0,"accuracy":1,"rt":1764.2500000001746,"item_set":"practice","trial_type":"mars","trial_index":4,"time_elapsed":40139,"internal_node_id":"0.0-4.0-0.0"},{"view_history":[{"page_index":0,"viewing_time":1343.764999997802},{"page_index":1,"viewing_time":1872.2899999993388}],"rt":3216.229999998177,"trial_type":"instructions","trial_index":5,"time_elapsed":43356,"internal_node_id":"0.0-5.0"},{"stimulus":"../static/img/is3/tf1/tf1_1_M_ss3.jpeg","correct":0,"choice":0,"accuracy":1,"rt":2118.6450000022887,"item_set":3,"test_form":1,"distractor":"pd","trial_type":"mars","trial_index":6,"time_elapsed":46230,"internal_node_id":"0.0-6.0"},{"stimulus":"../static/img/is3/tf1/tf1_6_M_ss2.jpeg","correct":0,"choice":0,"accuracy":1,"rt":5009.719999994559,"item_set":3,"test_form":1,"distractor":"pd","trial_type":"mars","trial_index":7,"time_elapsed":51995,"internal_node_id":"0.0-7.0"},{"stimulus":"../static/img/is3/tf1/tf1_11_M_ss1.jpeg","correct":0,"choice":3,"accuracy":0,"rt":8680.49500000052,"item_set":3,"test_form":1,"distractor":"pd","trial_type":"mars","trial_index":8,"time_elapsed":61431,"internal_node_id":"0.0-8.0"},{"stimulus":"../static/img/is3/tf1/tf1_18_M_ss2.jpeg","correct":0,"choice":0,"accuracy":1,"rt":236.0499999995227,"item_set":3,"test_form":1,"distractor":"pd","trial_type":"mars","trial_index":9,"time_elapsed":62419,"internal_node_id":"0.0-9.0"},{"stimulus":"../static/img/is3/tf1/tf1_12_M_ss2.jpeg","correct":0,"choice":2,"accuracy":0,"rt":9050.015000000712,"item_set":3,"test_form":1,"distractor":"pd","trial_type":"mars","trial_index":10,"time_elapsed":72225,"internal_node_id":"0.0-10.0"},{"stimulus":"../static/img/is3/tf1/tf1_23_M_ss1.jpeg","correct":0,"choice":0,"accuracy":1,"rt":6195.099999997183,"item_set":3,"test_form":1,"distractor":"pd","trial_type":"mars","trial_index":11,"time_elapsed":79174,"internal_node_id":"0.0-11.0"},{"stimulus":"../static/img/is3/tf1/tf1_14_M_ss1.jpeg","correct":0,"choice":1,"accuracy":0,"rt":7304.60000000312,"item_set":3,"test_form":1,"distractor":"pd","trial_type":"mars","trial_index":12,"time_elapsed":87230,"internal_node_id":"0.0-12.0"},{"stimulus":"../static/img/is3/tf1/tf1_26_M_ss1.jpeg","correct":0,"choice":3,"accuracy":0,"rt":12985.690000001341,"item_set":3,"test_form":1,"distractor":"pd","trial_type":"mars","trial_index":13,"time_elapsed":100970,"internal_node_id":"0.0-13.0","interactions":"[{\"event\":\"blur\",\"trial\":1,\"time\":23546},{\"event\":\"focus\",\"trial\":1,\"time\":23547}]"}]