[{"rt":9997.179999947548,"responses":{"age":"36","gender-categorical":"Male","gender-free-response":"","ethnicity":"Not Hispanic or Latino","race":["White"],"education":"Bachelor degree"},"trial_type":"survey-demo","trial_index":0,"time_elapsed":10002,"internal_node_id":"0.0-0.0"},{"view_history":[{"page_index":0,"viewing_time":6978.149999980815},{"page_index":1,"viewing_time":1816.0650000208989},{"page_index":2,"viewing_time":1239.765000063926}],"rt":10034.910000045784,"trial_type":"instructions","trial_index":1,"time_elapsed":20038,"internal_node_id":"0.0-1.0"},{"stimulus":"../static/img/practice/pt1_M1.png","correct":0,"choice":0,"accuracy":1,"rt":3254.1150000179186,"item_set":"practice","trial_type":"mars","trial_index":2,"time_elapsed":25296,"internal_node_id":"0.0-2.0-0.0"},{"stimulus":"../static/img/practice/pt2_M1.png","correct":0,"choice":0,"accuracy":1,"rt":2589.0150000341237,"item_set":"practice","trial_type":"mars","trial_index":3,"time_elapsed":29899,"internal_node_id":"0.0-3.0-0.0"},{"stimulus":"../static/img/practice/pt3_M1.png","correct":0,"choice":0,"accuracy":1,"rt":1809.2850000830367,"item_set":"practice","trial_type":"mars","trial_index":4,"time_elapsed":33710,"internal_node_id":"0.0-4.0-0.0"},{"view_history":[{"page_index":0,"viewing_time":1311.1350000835955},{"page_index":1,"viewing_time":1071.4900000020862}],"rt":2382.9000000841916,"trial_type":"instructions","trial_index":5,"time_elapsed":36094,"internal_node_id":"0.0-5.0"},{"stimulus":"../static/img/is3/tf1/tf1_1_M_ss3.jpeg","correct":0,"choice":0,"accuracy":1,"rt":3286.9949999731034,"item_set":3,"test_form":1,"distractor":"pd","trial_type":"mars","trial_index":6,"time_elapsed":40132,"internal_node_id":"0.0-6.0"},{"stimulus":"../static/img/is3/tf1/tf1_6_M_ss2.jpeg","correct":0,"choice":0,"accuracy":1,"rt":9359.670000034384,"item_set":3,"test_form":1,"distractor":"pd","trial_type":"mars","trial_index":7,"time_elapsed":50244,"internal_node_id":"0.0-7.0"},{"stimulus":"../static/img/is3/tf1/tf1_11_M_ss1.jpeg","correct":0,"choice":0,"accuracy":1,"rt":8464.889999944717,"item_set":3,"test_form":1,"distractor":"pd","trial_type":"mars","trial_index":8,"time_elapsed":59461,"internal_node_id":"0.0-8.0"},{"stimulus":"../static/img/is3/tf1/tf1_18_M_ss2.jpeg","correct":0,"choice":0,"accuracy":1,"rt":7839.270000113174,"item_set":3,"test_form":1,"distractor":"pd","trial_type":"mars","trial_index":9,"time_elapsed":68054,"internal_node_id":"0.0-9.0"},{"stimulus":"../static/img/is3/tf1/tf1_16_M_ss3.jpeg","correct":0,"choice":0,"accuracy":1,"rt":6301.994999987073,"item_set":3,"test_form":1,"distractor":"pd","trial_type":"mars","trial_index":10,"time_elapsed":75108,"internal_node_id":"0.0-10.0"},{"stimulus":"../static/img/is3/tf1/tf1_17_M_ss1.jpeg","correct":0,"choice":1,"accuracy":0,"rt":9592.595000052825,"item_set":3,"test_form":1,"distractor":"pd","trial_type":"mars","trial_index":11,"time_elapsed":85452,"internal_node_id":"0.0-11.0"},{"stimulus":"../static/img/is3/tf1/tf1_52_M_ss3.jpeg","correct":0,"choice":0,"accuracy":1,"rt":12592.249999986961,"item_set":3,"test_form":1,"distractor":"pd","trial_type":"mars","trial_index":12,"time_elapsed":98796,"internal_node_id":"0.0-12.0"},{"stimulus":"../static/img/is3/tf1/tf1_59_M_ss1.jpeg","correct":0,"choice":1,"accuracy":0,"rt":14049.01499999687,"item_set":3,"test_form":1,"distractor":"pd","trial_type":"mars","trial_index":13,"time_elapsed":113597,"internal_node_id":"0.0-13.0","interactions":"[]"}]