[{"rt":6912.585000041872,"responses":{"age":"30","gender-categorical":"Male","gender-free-response":"","ethnicity":"Not Hispanic or Latino","race":["White"],"education":"Associate degree"},"trial_type":"survey-demo","trial_index":0,"time_elapsed":6915,"internal_node_id":"0.0-0.0"},{"view_history":[{"page_index":0,"viewing_time":4640.345000079833},{"page_index":1,"viewing_time":1683.8399999542162},{"page_index":2,"viewing_time":883.6900000460446}],"rt":7208.725000033155,"trial_type":"instructions","trial_index":1,"time_elapsed":14126,"internal_node_id":"0.0-1.0"},{"stimulus":"../static/img/practice/pt1_M1.png","correct":0,"choice":0,"accuracy":1,"rt":3459.305000025779,"item_set":"practice","trial_type":"mars","trial_index":2,"time_elapsed":19598,"internal_node_id":"0.0-2.0-0.0"},{"stimulus":"../static/img/practice/pt2_M1.png","correct":0,"choice":0,"accuracy":1,"rt":2420.2449999284,"item_set":"practice","trial_type":"mars","trial_index":3,"time_elapsed":24023,"internal_node_id":"0.0-3.0-0.0"},{"stimulus":"../static/img/practice/pt3_M1.png","correct":0,"choice":0,"accuracy":1,"rt":1612.4500000150874,"item_set":"practice","trial_type":"mars","trial_index":4,"time_elapsed":27646,"internal_node_id":"0.0-4.0-0.0"},{"view_history":[{"page_index":0,"viewing_time":1184.819999965839},{"page_index":1,"viewing_time":1103.899999987334}],"rt":2288.9049999648705,"trial_type":"instructions","trial_index":5,"time_elapsed":29938,"internal_node_id":"0.0-5.0"},{"stimulus":"../static/img/is3/tf1/tf1_19_M_ss3.jpeg","correct":0,"choice":0,"accuracy":1,"rt":4735.26500002481,"item_set":3,"test_form":1,"distractor":"pd","trial_type":"mars","trial_index":6,"time_elapsed":35426,"internal_node_id":"0.0-6.0"},{"stimulus":"../static/img/is3/tf1/tf1_20_M_ss1.jpeg","correct":0,"choice":1,"accuracy":0,"rt":5117.069999920204,"item_set":3,"test_form":1,"distractor":"pd","trial_type":"mars","trial_index":7,"time_elapsed":41296,"internal_node_id":"0.0-7.0"},{"stimulus":"../static/img/is3/tf1/tf1_11_M_ss1.jpeg","correct":0,"choice":0,"accuracy":1,"rt":6202.389999991283,"item_set":3,"test_form":1,"distractor":"pd","trial_type":"mars","trial_index":8,"time_elapsed":48253,"internal_node_id":"0.0-8.0"},{"stimulus":"../static/img/is3/tf1/tf1_18_M_ss2.jpeg","correct":0,"choice":0,"accuracy":1,"rt":7245.124999899417,"item_set":3,"test_form":1,"distractor":"pd","trial_type":"mars","trial_index":9,"time_elapsed":56252,"internal_node_id":"0.0-9.0"},{"stimulus":"../static/img/is3/tf1/tf1_16_M_ss3.jpeg","correct":0,"choice":0,"accuracy":1,"rt":3381.9899999070913,"item_set":3,"test_form":1,"distractor":"pd","trial_type":"mars","trial_index":10,"time_elapsed":60389,"internal_node_id":"0.0-10.0"},{"stimulus":"../static/img/is3/tf1/tf1_17_M_ss1.jpeg","correct":0,"choice":1,"accuracy":0,"rt":4106.130000087433,"item_set":3,"test_form":1,"distractor":"pd","trial_type":"mars","trial_index":11,"time_elapsed":65249,"internal_node_id":"0.0-11.0"},{"stimulus":"../static/img/is3/tf1/tf1_14_M_ss1.jpeg","correct":0,"choice":2,"accuracy":0,"rt":3613.704999908805,"item_set":3,"test_form":1,"distractor":"pd","trial_type":"mars","trial_index":12,"time_elapsed":69617,"internal_node_id":"0.0-12.0"},{"stimulus":"../static/img/is3/tf1/tf1_26_M_ss1.jpeg","correct":0,"choice":2,"accuracy":0,"rt":6133.574999985285,"item_set":3,"test_form":1,"distractor":"pd","trial_type":"mars","trial_index":13,"time_elapsed":76505,"internal_node_id":"0.0-13.0","interactions":"[{\"event\":\"blur\",\"trial\":3,\"time\":19891},{\"event\":\"focus\",\"trial\":3,\"time\":21923},{\"event\":\"blur\",\"trial\":9,\"time\":50498},{\"event\":\"focus\",\"trial\":9,\"time\":55408}]"}]