[{"rt":42797.49499994796,"responses":{"age":"30","gender-categorical":"Female","gender-free-response":"","ethnicity":"Not Hispanic or Latino","race":["White"],"education":"High school"},"trial_type":"survey-demo","trial_index":0,"time_elapsed":42802,"internal_node_id":"0.0-0.0"},{"view_history":[{"page_index":0,"viewing_time":30866.53999995906},{"page_index":1,"viewing_time":5399.5900000445545},{"page_index":2,"viewing_time":1192.534999921918}],"rt":37459.11499997601,"trial_type":"instructions","trial_index":1,"time_elapsed":80268,"internal_node_id":"0.0-1.0"},{"stimulus":"../static/img/practice/pt1_M1.png","correct":0,"choice":0,"accuracy":1,"rt":10110.46500003431,"item_set":"practice","trial_type":"mars","trial_index":2,"time_elapsed":92382,"internal_node_id":"0.0-2.0-0.0"},{"stimulus":"../static/img/practice/pt2_M1.png","correct":0,"choice":0,"accuracy":1,"rt":3251.44999998156,"item_set":"practice","trial_type":"mars","trial_index":3,"time_elapsed":97646,"internal_node_id":"0.0-3.0-0.0"},{"stimulus":"../static/img/practice/pt3_M1.png","correct":0,"choice":0,"accuracy":1,"rt":1981.9550000829622,"item_set":"practice","trial_type":"mars","trial_index":4,"time_elapsed":101651,"internal_node_id":"0.0-4.0-0.0"},{"view_history":[{"page_index":0,"viewing_time":1345.65500007011},{"page_index":1,"viewing_time":3333.509999909438}],"rt":4679.705000016838,"trial_type":"instructions","trial_index":5,"time_elapsed":106341,"internal_node_id":"0.0-5.0"},{"stimulus":"../static/img/is3/tf1/tf1_1_M_ss3.jpeg","correct":0,"choice":0,"accuracy":1,"rt":1952.709999983199,"item_set":3,"test_form":1,"distractor":"pd","trial_type":"mars","trial_index":6,"time_elapsed":109046,"internal_node_id":"0.0-6.0"},{"stimulus":"../static/img/is3/tf1/tf1_6_M_ss2.jpeg","correct":0,"choice":0,"accuracy":1,"rt":10374.49000007473,"item_set":3,"test_form":1,"distractor":"pd","trial_type":"mars","trial_index":7,"time_elapsed":120183,"internal_node_id":"0.0-7.0"},{"stimulus":"../static/img/is3/tf1/tf1_11_M_ss1.jpeg","correct":0,"choice":0,"accuracy":1,"rt":8731.610000017099,"item_set":3,"test_form":1,"distractor":"pd","trial_type":"mars","trial_index":8,"time_elapsed":129680,"internal_node_id":"0.0-8.0"},{"stimulus":"../static/img/is3/tf1/tf1_18_M_ss2.jpeg","correct":0,"choice":1,"accuracy":0,"rt":9287.699999986216,"item_set":3,"test_form":1,"distractor":"pd","trial_type":"mars","trial_index":9,"time_elapsed":139750,"internal_node_id":"0.0-9.0"},{"stimulus":"../static/img/is3/tf1/tf1_16_M_ss3.jpeg","correct":0,"choice":0,"accuracy":1,"rt":4497.255000052974,"item_set":3,"test_form":1,"distractor":"pd","trial_type":"mars","trial_index":10,"time_elapsed":145010,"internal_node_id":"0.0-10.0"},{"stimulus":"../static/img/is3/tf1/tf1_17_M_ss1.jpeg","correct":0,"choice":0,"accuracy":1,"rt":11386.805000016466,"item_set":3,"test_form":1,"distractor":"pd","trial_type":"mars","trial_index":11,"time_elapsed":157159,"internal_node_id":"0.0-11.0"},{"stimulus":"../static/img/is3/tf1/tf1_52_M_ss3.jpeg","correct":0,"choice":1,"accuracy":0,"rt":14035.634999978356,"item_set":3,"test_form":1,"distractor":"pd","trial_type":"mars","trial_index":12,"time_elapsed":171953,"internal_node_id":"0.0-12.0"},{"stimulus":"../static/img/is3/tf1/tf1_59_M_ss1.jpeg","correct":0,"choice":3,"accuracy":0,"rt":8169.305000104941,"item_set":3,"test_form":1,"distractor":"pd","trial_type":"mars","trial_index":13,"time_elapsed":180879,"internal_node_id":"0.0-13.0","interactions":"[]"}]