[{"view_history":[{"page_index":0,"viewing_time":3816}],"rt":3816.800000011921,"trial_type":"instructions","trial_index":0,"time_elapsed":3835,"internal_node_id":"0.0-0.0","experiment":"validation","task_version":"1.1","jspsych_version":"6.3.1"},{"rt":38566.5,"responses":{"age":"29","gender-categorical":"Female","gender-free-response":"","ethnicity":"Hispanic or Latino","race":["Rather not say"],"education":"Bachelor degree"},"survey":"demographics","trial_type":"survey-demo","trial_index":1,"time_elapsed":42403,"internal_node_id":"0.0-1.0","experiment":"validation","task_version":"1.1","jspsych_version":"6.3.1"},{"responses":{"Q06":"2","Q04":"2","Q08":"3","Q02":"3","Q01":"3","Q05":"1","Q11":"0","Q07":"4","Q09":"4","Q03":"3","Q10":"4"},"rt":39143,"item_order":[5,3,7,1,0,4,10,6,8,2,9],"radio_events":[3556.399999976158,6949.100000023842,10972.899999976158,14645.199999988079,16669.19999998808,19693,24341.69999998808,27813.69999998808,29421.600000023842,35461.30000001192,38102],"key_events":[],"mouse_events":[3556.399999976158,6949.100000023842,10972.899999976158,13940.899999976158,14645.199999988079,16669.19999998808,19693,24341.69999998808,27813.69999998808,29421.600000023842,35461.30000001192,38102,39141.5],"straightlining":0.36363636363636365,"zigzagging":0.1,"honeypot":0,"survey":"openness","trial_type":"survey-template","trial_index":2,"time_elapsed":81550,"internal_node_id":"0.0-2.0","experiment":"validation","task_version":"1.1","jspsych_version":"6.3.1","infrequency":0},{"responses":{"Q06":"4","Q10":"3","Q01":"3","Q09":"4","Q11":"4","Q07":"3","Q05":"3","Q02":"2","Q03":"2","Q08":"2","Q04":"2"},"rt":37077.90000003576,"item_order":[5,9,0,8,10,6,4,1,2,7,3],"radio_events":[2507.699999988079,5395.5,8035.300000011921,14939.699999988079,17756.19999998808,19148.30000001192,21363.400000035763,25499.69999998808,28044.5,31300.100000023842,34292.10000002384,36412.40000003576],"key_events":[],"mouse_events":[2507.699999988079,5395.5,8035.300000011921,10083.800000011921,10764.199999988079,14939.699999988079,17756.19999998808,19148.30000001192,21363.400000035763,25499.69999998808,28044.5,31300.100000023842,34292.10000002384,35988.69999998808,36412.40000003576,37076.60000002384],"straightlining":0.36363636363636365,"zigzagging":0.3,"honeypot":0,"survey":"neuroticism","trial_type":"survey-template","trial_index":3,"time_elapsed":118630,"internal_node_id":"0.0-3.0","experiment":"validation","task_version":"1.1","jspsych_version":"6.3.1","infrequency":0},{"responses":{"Q03":"2","Q05":"3","Q07":"2","Q01":"2","Q06":"2","Q02":"2","Q04":"2"},"rt":57398.59999996424,"item_order":[2,4,6,0,5,1,3],"radio_events":[31237,35172.5,38172.39999997616,42828.5,48540.89999997616,52621.09999996424,56117.799999952316],"key_events":[],"mouse_events":[31237,35172.5,38172.39999997616,42828.5,47452.89999997616,48092.799999952316,48540.89999997616,52621.09999996424,56117.799999952316,57397.5],"straightlining":0.8571428571428571,"zigzagging":0.3333333333333333,"honeypot":0,"survey":"nfc6","trial_type":"survey-template","trial_index":4,"time_elapsed":176031,"internal_node_id":"0.0-4.0","experiment":"validation","task_version":"1.1","jspsych_version":"6.3.1","infrequency":0},{"value":[0,1.5844155844155843,0.7333333333333334],"trial_type":"call-function","trial_index":5,"time_elapsed":176033,"internal_node_id":"0.0-5.0","experiment":"validation","task_version":"1.1","jspsych_version":"6.3.1","interactions":"[]"}]