[{"view_history":[{"page_index":0,"viewing_time":2726.900000002235}],"rt":2728.2000000029802,"trial_type":"instructions","trial_index":0,"time_elapsed":2761,"internal_node_id":"0.0-0.0","experiment":"validation","task_version":"1.1","jspsych_version":"6.3.1"},{"rt":17371.60000000149,"responses":{"age":"42","gender-categorical":"Female","gender-free-response":"","ethnicity":"Not Hispanic or Latino","race":["White"],"education":"Bachelor degree"},"survey":"demographics","trial_type":"survey-demo","trial_index":1,"time_elapsed":20144,"internal_node_id":"0.0-1.0","experiment":"validation","task_version":"1.1","jspsych_version":"6.3.1"},{"responses":{"Q10":"4","Q06":"2","Q11":"0","Q09":"4","Q07":"4","Q08":"1","Q05":"1","Q01":"4","Q04":"2","Q03":"3","Q02":"3"},"rt":29750.5,"item_order":[9,5,10,8,6,7,4,0,3,2,1],"radio_events":[6897.300000000745,9593.699999999255,11886.800000000745,14158.800000000745,15186.800000000745,16814.599999997765,21318.5,22292.099999997765,26303.099999997765,27328.800000000745,28903.300000000745],"key_events":[],"mouse_events":[6897.300000000745,9593.699999999255,11195.199999999255,11886.800000000745,13457,14158.800000000745,15186.800000000745,16814.599999997765,17449.599999997765,20703,21318.5,22292.099999997765,25444.599999997765,26303.099999997765,27328.800000000745,28265.199999999255,28903.300000000745,29741.5],"straightlining":0.36363636363636365,"zigzagging":0.2,"honeypot":0,"survey":"openness","trial_type":"survey-template","trial_index":2,"time_elapsed":49911,"internal_node_id":"0.0-2.0","experiment":"validation","task_version":"1.1","jspsych_version":"6.3.1","infrequency":0},{"responses":{"Q06":"3","Q05":"2","Q01":"2","Q02":"3","Q07":"2","Q04":"3","Q03":"4"},"rt":22993.5,"item_order":[5,4,0,1,6,3,2],"radio_events":[5679.300000000745,8232.699999999255,10725.39999999851,14137.800000000745,15313.300000000745,18910.5,22018.699999999255],"key_events":[],"mouse_events":[5679.300000000745,8232.699999999255,10725.39999999851,14137.800000000745,15313.300000000745,17805.199999999255,18438.099999997765,18910.5,21444.699999999255,22018.699999999255,22982.800000000745],"straightlining":0.42857142857142855,"zigzagging":0.8333333333333334,"honeypot":0,"survey":"nfc6","trial_type":"survey-template","trial_index":3,"time_elapsed":72915,"internal_node_id":"0.0-3.0","experiment":"validation","task_version":"1.1","jspsych_version":"6.3.1","infrequency":0},{"responses":{"Q09":"2","Q10":"2","Q02":"1","Q06":"1","Q05":"1","Q07":"1","Q04":"0","Q11":"4","Q03":"0","Q01":"0","Q08":"1"},"rt":25817.10000000149,"item_order":[8,9,1,5,4,6,3,10,2,0,7],"radio_events":[4115.60000000149,5796,7111.10000000149,10399.800000000745,11594.900000002235,13536.5,17553.400000002235,18659.199999999255,21364.800000000745,23831.699999999255,25091.800000000745],"key_events":[],"mouse_events":[2894.400000002235,4115.60000000149,5796,7111.10000000149,9578.300000000745,10399.800000000745,11594.900000002235,13536.5,14209.900000002235,16891.60000000149,17553.400000002235,18659.199999999255,20649.199999999255,21364.800000000745,22013.400000002235,22707,23297.199999999255,23831.699999999255,25091.800000000745,25810.5],"straightlining":0.2727272727272727,"zigzagging":0.3,"honeypot":0,"survey":"neuroticism","trial_type":"survey-template","trial_index":4,"time_elapsed":98747,"internal_node_id":"0.0-4.0","experiment":"validation","task_version":"1.1","jspsych_version":"6.3.1","infrequency":0},{"value":[0,1.0649350649350648,1.3333333333333335],"trial_type":"call-function","trial_index":5,"time_elapsed":98753,"internal_node_id":"0.0-5.0","experiment":"validation","task_version":"1.1","jspsych_version":"6.3.1","interactions":"[]"}]