[{"view_history":[{"page_index":0,"viewing_time":4936.299999952316}],"rt":4937.600000023842,"trial_type":"instructions","trial_index":0,"time_elapsed":4951,"internal_node_id":"0.0-0.0","experiment":"validation","task_version":"1.1","jspsych_version":"6.3.1"},{"rt":13546.899999976158,"responses":{"age":"48","gender-categorical":"Male","gender-free-response":"","ethnicity":"Not Hispanic or Latino","race":["White"],"education":"Some college"},"survey":"demographics","trial_type":"survey-demo","trial_index":1,"time_elapsed":18502,"internal_node_id":"0.0-1.0","experiment":"validation","task_version":"1.1","jspsych_version":"6.3.1"},{"responses":{"Q01":"1","Q07":"2","Q06":"3","Q03":"3","Q04":"3","Q02":"3","Q05":"3"},"rt":176728.59999990463,"item_order":[0,6,5,2,3,1,4],"radio_events":[65289.89999997616,68349.29999995232,116762.39999997616,121464.59999990463,151407.39999997616,169728.59999990463,171922.39999997616,176077.69999992847],"key_events":[],"mouse_events":[65289.89999997616,68349.29999995232,116762.39999997616,120243.89999997616,121464.59999990463,150502.79999995232,151407.39999997616,169728.59999990463,171922.39999997616,175250.5,176077.69999992847,176726.79999995232],"straightlining":0.42857142857142855,"zigzagging":0.3333333333333333,"honeypot":0,"survey":"nfc6","trial_type":"survey-template","trial_index":2,"time_elapsed":195236,"internal_node_id":"0.0-2.0","experiment":"validation","task_version":"1.1","jspsych_version":"6.3.1","infrequency":0},{"responses":{"Q08":"3","Q06":"1","Q02":"2","Q11":"0","Q09":"1","Q01":"2","Q05":"0","Q03":"4","Q10":"4","Q07":"2","Q04":"1"},"rt":64015.799999952316,"item_order":[7,5,1,10,8,0,4,2,9,6,3],"radio_events":[4883.100000023842,9504.600000023842,13956.5,17104.899999976158,21588.399999976158,26616.899999976158,41895.299999952316,49744.199999928474,56921.5,59475.60000002384,63335],"key_events":[],"mouse_events":[4883.100000023842,9504.600000023842,12208.600000023842,12841.100000023842,13364.799999952316,13956.5,17104.899999976158,21588.399999976158,25603.299999952316,26616.899999976158,41895.299999952316,49744.199999928474,56921.5,59475.60000002384,63335,64013.699999928474],"straightlining":0.2727272727272727,"zigzagging":0.4,"honeypot":0,"survey":"openness","trial_type":"survey-template","trial_index":3,"time_elapsed":259256,"internal_node_id":"0.0-3.0","experiment":"validation","task_version":"1.1","jspsych_version":"6.3.1","infrequency":0},{"responses":{"Q03":"0","Q07":"0","Q05":"0","Q02":"0","Q10":"1","Q06":"1","Q08":"0","Q01":"0","Q11":"4","Q09":"1","Q04":"1"},"rt":75362.5,"item_order":[2,6,4,1,9,5,7,0,10,8,3],"radio_events":[4216.799999952316,6511.299999952316,8364,9401.299999952316,34732.59999990463,38902.299999952316,64280.59999990463,65504.39999997616,69808.39999997616,71751.5,74150.5],"key_events":[],"mouse_events":[4216.799999952316,6511.299999952316,8364,9401.299999952316,34732.59999990463,38208.299999952316,38902.299999952316,64280.59999990463,65504.39999997616,69808.39999997616,71751.5,74150.5,75360.29999995232],"straightlining":0.36363636363636365,"zigzagging":0.6,"honeypot":0,"survey":"neuroticism","trial_type":"survey-template","trial_index":4,"time_elapsed":334624,"internal_node_id":"0.0-4.0","experiment":"validation","task_version":"1.1","jspsych_version":"6.3.1","infrequency":0},{"value":[0,1.064935064935065,1.3333333333333335],"trial_type":"call-function","trial_index":5,"time_elapsed":334625,"internal_node_id":"0.0-5.0","experiment":"validation","task_version":"1.1","jspsych_version":"6.3.1","interactions":"[]"}]