[{"success":true,"timeout":false,"failed_images":[],"failed_audio":[],"failed_video":[],"trial_type":"preload","trial_index":0,"time_elapsed":2092,"internal_node_id":"0.0-0.0","experiment":"validation","task_version":"1.1","jspsych_version":"6.3.1"},{"success":true,"trial_type":"fullscreen","trial_index":1,"time_elapsed":7639,"internal_node_id":"0.0-1.0","experiment":"validation","task_version":"1.1","jspsych_version":"6.3.1"},{"view_history":[{"page_index":0,"viewing_time":2078.000000000002},{"page_index":1,"viewing_time":10640.999999999998},{"page_index":2,"viewing_time":2607.0000000000036},{"page_index":3,"viewing_time":2115.9999999999964}],"rt":17442,"trial_type":"instructions","trial_index":2,"time_elapsed":25082,"internal_node_id":"0.0-3.0","experiment":"validation","task_version":"1.1","jspsych_version":"6.3.1"},{"item":5,"shape_set":1,"distractor":"pd","choice_order":[3,2,0,1],"correct":0,"choice":0,"accuracy":1,"rt":5166,"screen_resolution":[1440,900],"minimum_resolution":1,"all_loaded":true,"item_set":"practice","trial_type":"mars","trial_index":3,"time_elapsed":31001,"internal_node_id":"0.0-4.0-0.0","experiment":"validation","task_version":"1.1","jspsych_version":"6.3.1"},{"item":2,"shape_set":1,"distractor":"pd","choice_order":[3,0,2,1],"correct":0,"choice":0,"accuracy":1,"rt":4648,"screen_resolution":[1440,900],"minimum_resolution":1,"all_loaded":true,"item_set":"practice","trial_type":"mars","trial_index":4,"time_elapsed":36403,"internal_node_id":"0.0-5.0-0.0","experiment":"validation","task_version":"1.1","jspsych_version":"6.3.1"},{"item":8,"shape_set":1,"distractor":"pd","choice_order":[2,1,0,3],"correct":0,"choice":0,"accuracy":1,"rt":7764.000000000007,"screen_resolution":[1440,900],"minimum_resolution":1,"all_loaded":true,"item_set":"practice","trial_type":"mars","trial_index":5,"time_elapsed":44921,"internal_node_id":"0.0-6.0-0.0","experiment":"validation","task_version":"1.1","jspsych_version":"6.3.1"},{"view_history":[{"page_index":0,"viewing_time":1744},{"page_index":1,"viewing_time":8485.999999999993}],"rt":10229.999999999993,"trial_type":"instructions","trial_index":6,"time_elapsed":55153,"internal_node_id":"0.0-7.0","experiment":"validation","task_version":"1.1","jspsych_version":"6.3.1"},{"rt":null,"stimulus":"<div style=\"font-size:24px;\">Loading puzzle:<br>1 / 12</div>","response":null,"trial_type":"html-keyboard-response","trial_index":7,"time_elapsed":56358,"internal_node_id":"0.0-8.0-1.0","experiment":"validation","task_version":"1.1","jspsych_version":"6.3.1"},{"item":71,"shape_set":2,"distractor":"pd","choice_order":[1,3,2,0],"correct":0,"choice":0,"accuracy":1,"rt":8906,"screen_resolution":[1440,900],"minimum_resolution":1,"all_loaded":true,"item_set":3,"trial_type":"mars","trial_index":8,"time_elapsed":65267,"internal_node_id":"0.0-8.0-2.0","experiment":"validation","task_version":"1.1","jspsych_version":"6.3.1","browser_interactions":0},{"rt":null,"stimulus":"<div style=\"font-size:24px;\">Loading puzzle:<br>2 / 12</div>","response":null,"trial_type":"html-keyboard-response","trial_index":9,"time_elapsed":66471,"internal_node_id":"0.0-9.0-1.0","experiment":"validation","task_version":"1.1","jspsych_version":"6.3.1"},{"item":55,"shape_set":3,"distractor":"pd","choice_order":[2,1,3,0],"correct":0,"choice":0,"accuracy":1,"rt":21640.999999999985,"screen_resolution":[1440,900],"minimum_resolution":1,"all_loaded":true,"item_set":3,"trial_type":"mars","trial_index":10,"time_elapsed":88114,"internal_node_id":"0.0-9.0-2.0","experiment":"validation","task_version":"1.1","jspsych_version":"6.3.1","browser_interactions":0},{"rt":null,"stimulus":"<div style=\"font-size:24px;\">Loading puzzle:<br>3 / 12</div>","response":null,"trial_type":"html-keyboard-response","trial_index":11,"time_elapsed":89317,"internal_node_id":"0.0-10.0-1.0","experiment":"validation","task_version":"1.1","jspsych_version":"6.3.1"},{"item":30,"shape_set":1,"distractor":"pd","choice_order":[3,0,1,2],"correct":0,"choice":0,"accuracy":1,"rt":28075,"screen_resolution":[1440,900],"minimum_resolution":1,"all_loaded":true,"item_set":3,"trial_type":"mars","trial_index":12,"time_elapsed":117393,"internal_node_id":"0.0-10.0-2.0","experiment":"validation","task_version":"1.1","jspsych_version":"6.3.1","browser_interactions":0},{"rt":null,"stimulus":"<div style=\"font-size:24px;\">Loading puzzle:<br>4 / 12</div>","response":null,"trial_type":"html-keyboard-response","trial_index":13,"time_elapsed":118596,"internal_node_id":"0.0-11.0-1.0","experiment":"validation","task_version":"1.1","jspsych_version":"6.3.1"},{"item":45,"shape_set":2,"distractor":"pd","choice_order":[1,2,3,0],"correct":0,"choice":0,"accuracy":1,"rt":24221,"screen_resolution":[1440,900],"minimum_resolution":1,"all_loaded":true,"item_set":3,"trial_type":"mars","trial_index":14,"time_elapsed":142818,"internal_node_id":"0.0-11.0-2.0","experiment":"validation","task_version":"1.1","jspsych_version":"6.3.1","browser_interactions":0},{"rt":null,"stimulus":"<div style=\"font-size:24px;\">Loading puzzle:<br>5 / 12</div>","response":null,"trial_type":"html-keyboard-response","trial_index":15,"time_elapsed":144022,"internal_node_id":"0.0-12.0-1.0","experiment":"validation","task_version":"1.1","jspsych_version":"6.3.1"},{"item":11,"shape_set":3,"distractor":"pd","choice_order":[1,0,2,3],"correct":0,"choice":3,"accuracy":0,"rt":19927.00000000003,"screen_resolution":[1440,900],"minimum_resolution":1,"all_loaded":true,"item_set":3,"trial_type":"mars","trial_index":16,"time_elapsed":163951,"internal_node_id":"0.0-12.0-2.0","experiment":"validation","task_version":"1.1","jspsych_version":"6.3.1","browser_interactions":0},{"rt":null,"stimulus":"<div style=\"font-size:24px;\">Loading puzzle:<br>6 / 12</div>","response":null,"trial_type":"html-keyboard-response","trial_index":17,"time_elapsed":165155,"internal_node_id":"0.0-13.0-1.0","experiment":"validation","task_version":"1.1","jspsych_version":"6.3.1"},{"item":29,"shape_set":1,"distractor":"pd","choice_order":[3,2,0,1],"correct":0,"choice":1,"accuracy":0,"rt":9814,"screen_resolution":[1440,900],"minimum_resolution":1,"all_loaded":true,"item_set":3,"trial_type":"mars","trial_index":18,"time_elapsed":174971,"internal_node_id":"0.0-13.0-2.0","experiment":"validation","task_version":"1.1","jspsych_version":"6.3.1","browser_interactions":0},{"rt":null,"stimulus":"<div style=\"font-size:24px;\">Loading puzzle:<br>7 / 12</div>","response":null,"trial_type":"html-keyboard-response","trial_index":19,"time_elapsed":176173,"internal_node_id":"0.0-14.0-1.0","experiment":"validation","task_version":"1.1","jspsych_version":"6.3.1"},{"item":16,"shape_set":2,"distractor":"md","choice_order":[0,1,3,2],"correct":0,"choice":0,"accuracy":1,"rt":27304.99999999997,"screen_resolution":[1440,900],"minimum_resolution":1,"all_loaded":true,"item_set":3,"trial_type":"mars","trial_index":20,"time_elapsed":203480,"internal_node_id":"0.0-14.0-2.0","experiment":"validation","task_version":"1.1","jspsych_version":"6.3.1","browser_interactions":0},{"rt":null,"stimulus":"<div style=\"font-size:24px;\">Loading puzzle:<br>8 / 12</div>","response":null,"trial_type":"html-keyboard-response","trial_index":21,"time_elapsed":204683,"internal_node_id":"0.0-15.0-1.0","experiment":"validation","task_version":"1.1","jspsych_version":"6.3.1"},{"item":17,"shape_set":3,"distractor":"pd","choice_order":[3,2,0,1],"correct":0,"choice":1,"accuracy":0,"rt":9349,"screen_resolution":[1440,900],"minimum_resolution":1,"all_loaded":true,"item_set":3,"trial_type":"mars","trial_index":22,"time_elapsed":214035,"internal_node_id":"0.0-15.0-2.0","experiment":"validation","task_version":"1.1","jspsych_version":"6.3.1","browser_interactions":0},{"rt":null,"stimulus":"<div style=\"font-size:24px;\">Loading puzzle:<br>9 / 12</div>","response":null,"trial_type":"html-keyboard-response","trial_index":23,"time_elapsed":215237,"internal_node_id":"0.0-16.0-1.0","experiment":"validation","task_version":"1.1","jspsych_version":"6.3.1"},{"item":23,"shape_set":1,"distractor":"md","choice_order":[2,1,3,0],"correct":0,"choice":0,"accuracy":1,"rt":11264,"screen_resolution":[1440,900],"minimum_resolution":1,"all_loaded":true,"item_set":3,"trial_type":"mars","trial_index":24,"time_elapsed":226503,"internal_node_id":"0.0-16.0-2.0","experiment":"validation","task_version":"1.1","jspsych_version":"6.3.1","browser_interactions":0},{"rt":null,"stimulus":"<div style=\"font-size:24px;\">Loading puzzle:<br>10 / 12</div>","response":null,"trial_type":"html-keyboard-response","trial_index":25,"time_elapsed":227707,"internal_node_id":"0.0-17.0-1.0","experiment":"validation","task_version":"1.1","jspsych_version":"6.3.1"},{"item":58,"shape_set":2,"distractor":"md","choice_order":[2,1,0,3],"correct":0,"choice":0,"accuracy":1,"rt":28227,"screen_resolution":[1440,900],"minimum_resolution":1,"all_loaded":true,"item_set":3,"trial_type":"mars","trial_index":26,"time_elapsed":255936,"internal_node_id":"0.0-17.0-2.0","experiment":"validation","task_version":"1.1","jspsych_version":"6.3.1","browser_interactions":0},{"rt":null,"stimulus":"<div style=\"font-size:24px;\">Loading puzzle:<br>11 / 12</div>","response":null,"trial_type":"html-keyboard-response","trial_index":27,"time_elapsed":257139,"internal_node_id":"0.0-18.0-1.0","experiment":"validation","task_version":"1.1","jspsych_version":"6.3.1"},{"item":35,"shape_set":3,"distractor":"pd","choice_order":[0,3,2,1],"correct":0,"choice":3,"accuracy":0,"rt":14102,"screen_resolution":[1440,900],"minimum_resolution":1,"all_loaded":true,"item_set":3,"trial_type":"mars","trial_index":28,"time_elapsed":271243,"internal_node_id":"0.0-18.0-2.0","experiment":"validation","task_version":"1.1","jspsych_version":"6.3.1","browser_interactions":0},{"rt":null,"stimulus":"<div style=\"font-size:24px;\">Loading puzzle:<br>12 / 12</div>","response":null,"trial_type":"html-keyboard-response","trial_index":29,"time_elapsed":272445,"internal_node_id":"0.0-19.0-1.0","experiment":"validation","task_version":"1.1","jspsych_version":"6.3.1"},{"item":76,"shape_set":1,"distractor":"pd","choice_order":[1,2,0,3],"correct":0,"choice":1,"accuracy":0,"rt":16768,"screen_resolution":[1440,900],"minimum_resolution":1,"all_loaded":true,"item_set":3,"trial_type":"mars","trial_index":30,"time_elapsed":289215,"internal_node_id":"0.0-19.0-2.0","experiment":"validation","task_version":"1.1","jspsych_version":"6.3.1","browser_interactions":0},{"value":[0,0,0],"trial_type":"call-function","trial_index":31,"time_elapsed":289217,"internal_node_id":"0.0-20.0","experiment":"validation","task_version":"1.1","jspsych_version":"6.3.1"},{"view_history":[{"page_index":0,"viewing_time":2798}],"rt":2798,"trial_type":"instructions","trial_index":32,"time_elapsed":292016,"internal_node_id":"0.0-21.0","experiment":"validation","task_version":"1.1","jspsych_version":"6.3.1","interactions":"[{\"event\":\"fullscreenenter\",\"trial\":1,\"time\":6677}]"}]