[{"view_history":[{"page_index":0,"viewing_time":3707.5999999940395}],"rt":3707.9000000059605,"trial_type":"instructions","trial_index":0,"time_elapsed":3730,"internal_node_id":"0.0-0.0","experiment":"validation","task_version":"1.1","jspsych_version":"6.3.1"},{"rt":6903.0999999940395,"responses":{"age":"38","gender-categorical":"Male","gender-free-response":"","ethnicity":"Not Hispanic or Latino","race":["White"],"education":"Bachelor degree"},"survey":"demographics","trial_type":"survey-demo","trial_index":1,"time_elapsed":10636,"internal_node_id":"0.0-1.0","experiment":"validation","task_version":"1.1","jspsych_version":"6.3.1"},{"responses":{"Q09":"4","Q05":"0","Q04":"0","Q08":"4","Q07":"4","Q11":"0","Q06":"4","Q01":"4","Q03":"4","Q10":"4","Q02":"4"},"rt":20145.10000000894,"item_order":[8,4,3,7,6,10,5,0,2,9,1],"radio_events":[5877.20000000298,6243.4000000059605,7689.5,8827.5,9511.29999999702,10731.5,14166.60000000894,15080.90000000596,17301.40000000596,18633.5,19454.40000000596],"key_events":[],"mouse_events":[4688.600000008941,5270.4000000059605,5578.5,5877.20000000298,6243.4000000059605,6943.600000008941,7689.5,8827.5,9511.29999999702,10380.70000000298,10731.5,12582.70000000298,13781.20000000298,14166.60000000894,15080.90000000596,16920.70000000298,17301.40000000596,18176.60000000894,18458.20000000298,18633.5,19160.20000000298,19454.40000000596,20143.40000000596],"straightlining":0.5454545454545454,"zigzagging":0.5,"honeypot":0,"survey":"openness","trial_type":"survey-template","trial_index":2,"time_elapsed":30785,"internal_node_id":"0.0-2.0","experiment":"validation","task_version":"1.1","jspsych_version":"6.3.1","infrequency":0},{"responses":{"Q04":"1","Q10":"0","Q02":"0","Q07":"0","Q09":"3","Q11":"4","Q01":"0","Q05":"0","Q03":"0","Q08":"0","Q06":"3"},"rt":20013.29999999702,"item_order":[3,9,1,6,8,10,0,4,2,7,5],"radio_events":[5029.70000000298,6229.5,8071.399999991059,9316.39999999106,11496.89999999106,13428.5,14974.5,15427.70000000298,16123.29999999702,18023.5,19385.39999999106],"key_events":[],"mouse_events":[2819.3999999910593,3836.2999999970198,4689.5,5029.70000000298,6229.5,8071.399999991059,8578.79999999702,9316.39999999106,11496.89999999106,13113.09999999404,13428.5,14648.5,14974.5,15427.70000000298,16123.29999999702,17777.79999999702,18023.5,19385.39999999106,20011.79999999702],"straightlining":0.36363636363636365,"zigzagging":0.4,"honeypot":0,"survey":"neuroticism","trial_type":"survey-template","trial_index":3,"time_elapsed":50802,"internal_node_id":"0.0-3.0","experiment":"validation","task_version":"1.1","jspsych_version":"6.3.1","infrequency":0},{"responses":{"Q04":"2","Q07":"2","Q05":"4","Q02":"4","Q03":"4","Q06":"2","Q01":"2"},"rt":16067.29999999702,"item_order":[3,6,4,1,2,5,0],"radio_events":[5692.4000000059605,7064.4000000059605,9002.5,11582.10000000894,12625.5,14069.60000000894,15410.5],"key_events":[],"mouse_events":[698.2999999970198,2174.4000000059605,5692.4000000059605,7064.4000000059605,9002.5,10621.5,11582.10000000894,12625.5,13799.40000000596,14069.60000000894,15410.5,16066.29999999702],"straightlining":0.5714285714285714,"zigzagging":0.16666666666666666,"honeypot":0,"survey":"nfc6","trial_type":"survey-template","trial_index":4,"time_elapsed":66871,"internal_node_id":"0.0-4.0","experiment":"validation","task_version":"1.1","jspsych_version":"6.3.1","infrequency":0},{"value":[0,1.4805194805194803,1.0666666666666667],"trial_type":"call-function","trial_index":5,"time_elapsed":66873,"internal_node_id":"0.0-5.0","experiment":"validation","task_version":"1.1","jspsych_version":"6.3.1","interactions":"[{\"event\":\"blur\",\"trial\":0,\"time\":285},{\"event\":\"focus\",\"trial\":0,\"time\":2980},{\"event\":\"blur\",\"trial\":4,\"time\":51665},{\"event\":\"focus\",\"trial\":4,\"time\":52888}]"}]