[{"view_history":[{"page_index":0,"viewing_time":4382.399999976158}],"rt":4384.099999904633,"trial_type":"instructions","trial_index":0,"time_elapsed":4399,"internal_node_id":"0.0-0.0","experiment":"validation","task_version":"1.1","jspsych_version":"6.3.1"},{"rt":17912.599999904633,"responses":{"age":"41","gender-categorical":"Male","gender-free-response":"","ethnicity":"Not Hispanic or Latino","race":["White"],"education":"Bachelor degree"},"survey":"demographics","trial_type":"survey-demo","trial_index":1,"time_elapsed":22320,"internal_node_id":"0.0-1.0","experiment":"validation","task_version":"1.1","jspsych_version":"6.3.1"},{"responses":{"Q09":"2","Q10":"3","Q07":"2","Q04":"3","Q08":"2","Q02":"3","Q01":"2","Q06":"3","Q05":"1","Q03":"2","Q11":"4"},"rt":56557.700000047684,"item_order":[8,9,6,3,7,1,0,5,4,2,10],"radio_events":[5563.299999952316,8827.200000047684,12071.700000047684,14271,17563.5,19121.5,35594.299999952316,37769.700000047684,40852,44017.10000002384,47666.5,55241.5],"key_events":[],"mouse_events":[5563.299999952316,8827.200000047684,12071.700000047684,14271,17563.5,19121.5,35594.299999952316,37769.700000047684,40852,44017.10000002384,47666.5,55241.5,56551.700000047684],"straightlining":0.45454545454545453,"zigzagging":0.8,"honeypot":0,"survey":"neuroticism","trial_type":"survey-template","trial_index":2,"time_elapsed":78889,"internal_node_id":"0.0-2.0","experiment":"validation","task_version":"1.1","jspsych_version":"6.3.1","infrequency":0},{"responses":{"Q06":"2","Q05":"3","Q03":"1","Q01":"3","Q02":"3","Q04":"3","Q07":"2"},"rt":57815.89999997616,"item_order":[5,4,2,0,1,3,6],"radio_events":[15189.299999952316,22026.799999952316,27660.100000023842,32631.100000023842,38605.10000002384,51967.799999952316,56666],"key_events":[],"mouse_events":[15189.299999952316,22026.799999952316,27660.100000023842,32631.100000023842,38605.10000002384,51967.799999952316,56666,57812.200000047684],"straightlining":0.5714285714285714,"zigzagging":0.3333333333333333,"honeypot":0,"survey":"nfc6","trial_type":"survey-template","trial_index":3,"time_elapsed":136712,"internal_node_id":"0.0-3.0","experiment":"validation","task_version":"1.1","jspsych_version":"6.3.1","infrequency":0},{"responses":{"Q07":"3","Q02":"3","Q08":"3","Q03":"2","Q04":"1","Q05":"1","Q11":"0","Q06":"3","Q01":"2","Q10":"2","Q09":"3"},"rt":51449.799999952316,"item_order":[6,1,7,2,3,4,10,5,0,9,8],"radio_events":[5098,7829.299999952316,11047.5,14263.099999904633,18680.5,20650.5,28734.5,32107.299999952316,34723.39999997616,45114.39999997616,49833.5],"key_events":[],"mouse_events":[5098,7829.299999952316,11047.5,14263.099999904633,18680.5,20650.5,28734.5,32107.299999952316,34723.39999997616,45114.39999997616,49833.5,51443.799999952316],"straightlining":0.36363636363636365,"zigzagging":0.5,"honeypot":0,"survey":"openness","trial_type":"survey-template","trial_index":4,"time_elapsed":188178,"internal_node_id":"0.0-4.0","experiment":"validation","task_version":"1.1","jspsych_version":"6.3.1","infrequency":0},{"value":[0,1.3896103896103895,1.6333333333333333],"trial_type":"call-function","trial_index":5,"time_elapsed":188181,"internal_node_id":"0.0-5.0","experiment":"validation","task_version":"1.1","jspsych_version":"6.3.1","interactions":"[]"}]