[{"view_history":[{"page_index":0,"viewing_time":3750.1999999284744}],"rt":3750.899999976158,"trial_type":"instructions","trial_index":0,"time_elapsed":3758,"internal_node_id":"0.0-0.0","experiment":"validation","task_version":"1.1","jspsych_version":"6.3.1"},{"rt":9633.5,"responses":{"age":"38","gender-categorical":"Female","gender-free-response":"","ethnicity":"Not Hispanic or Latino","race":["White"],"education":"Bachelor degree"},"survey":"demographics","trial_type":"survey-demo","trial_index":1,"time_elapsed":13394,"internal_node_id":"0.0-1.0","experiment":"validation","task_version":"1.1","jspsych_version":"6.3.1"},{"responses":{"Q04":"1","Q05":"1","Q06":"2","Q03":"3","Q02":"2","Q07":"2","Q01":"2"},"rt":40793.90000009537,"item_order":[3,4,5,2,1,6,0],"radio_events":[5927.200000047684,17413.300000071526,22733.100000023842,27913.300000071526,28609,32491.200000047684,34289.5,36561.60000002384],"key_events":[],"mouse_events":[5927.200000047684,17413.300000071526,22733.100000023842,27913.300000071526,28609,32491.200000047684,34289.5,36561.60000002384,40790.300000071526],"straightlining":0.5714285714285714,"zigzagging":0.5,"honeypot":0,"survey":"nfc6","trial_type":"survey-template","trial_index":2,"time_elapsed":54192,"internal_node_id":"0.0-2.0","experiment":"validation","task_version":"1.1","jspsych_version":"6.3.1","infrequency":0},{"responses":{"Q05":"4","Q06":"3","Q01":"3","Q09":"2","Q10":"2","Q08":"3","Q02":"3","Q03":"2","Q07":"3","Q04":"2","Q11":"4"},"rt":31651.899999976158,"item_order":[4,5,0,8,9,7,1,2,6,3,10],"radio_events":[2833.2999999523163,4365,7075.299999952316,16981,18418.799999952316,20661.099999904633,22825.199999928474,24255.099999904633,25965.399999976158,27785.299999952316,29505.299999952316],"key_events":[],"mouse_events":[2833.2999999523163,4365,7075.299999952316,16981,18418.799999952316,20661.099999904633,22825.199999928474,24255.099999904633,25965.399999976158,27785.299999952316,29505.299999952316,31648],"straightlining":0.36363636363636365,"zigzagging":0.5,"honeypot":0,"survey":"neuroticism","trial_type":"survey-template","trial_index":3,"time_elapsed":85848,"internal_node_id":"0.0-3.0","experiment":"validation","task_version":"1.1","jspsych_version":"6.3.1","infrequency":0},{"responses":{"Q05":"1","Q03":"4","Q01":"4","Q11":"0","Q06":"1","Q09":"4","Q04":"2","Q07":"4","Q02":"4","Q10":"4","Q08":"2"},"rt":27260.799999952316,"item_order":[4,2,0,10,5,8,3,6,1,9,7],"radio_events":[3319,5201.100000023842,7334.399999976158,9351,14810.600000023842,16810.399999976158,19606.600000023842,21037.399999976158,22364.699999928474,24302.899999976158,26426.5],"key_events":[],"mouse_events":[3319,5201.100000023842,7334.399999976158,9351,14810.600000023842,16810.399999976158,19606.600000023842,21037.399999976158,22364.699999928474,24302.899999976158,26426.5,27257.199999928474],"straightlining":0.36363636363636365,"zigzagging":0.4,"honeypot":0,"survey":"openness","trial_type":"survey-template","trial_index":4,"time_elapsed":113111,"internal_node_id":"0.0-4.0","experiment":"validation","task_version":"1.1","jspsych_version":"6.3.1","infrequency":0},{"value":[0,1.2987012987012987,1.4],"trial_type":"call-function","trial_index":5,"time_elapsed":113112,"internal_node_id":"0.0-5.0","experiment":"validation","task_version":"1.1","jspsych_version":"6.3.1","interactions":"[]"}]