[{"view_history":[{"page_index":0,"viewing_time":2853.7000000476837}],"rt":2853.9000000953674,"trial_type":"instructions","trial_index":0,"time_elapsed":2857,"internal_node_id":"0.0-0.0","experiment":"validation","task_version":"1.1","jspsych_version":"6.3.1"},{"rt":11111.199999809265,"responses":{"age":"41","gender-categorical":"Female","gender-free-response":"","ethnicity":"Not Hispanic or Latino","race":["White"],"education":"Master degree or higher"},"survey":"demographics","trial_type":"survey-demo","trial_index":1,"time_elapsed":13969,"internal_node_id":"0.0-1.0","experiment":"validation","task_version":"1.1","jspsych_version":"6.3.1"},{"responses":{"Q08":"1","Q06":"3","Q09":"2","Q11":"4","Q03":"2","Q07":"3","Q10":"2","Q05":"1","Q04":"2","Q01":"2","Q02":"2"},"rt":29430.5,"item_order":[7,5,8,10,2,6,9,4,3,0,1],"radio_events":[6342.200000047684,10085.300000190735,11109.5,15069.5,18205.5,20005.5,22445.60000014305,23653.5,24933.400000095367,26165.5,27389.400000095367],"key_events":[],"mouse_events":[6342.200000047684,8117.600000143051,9541.5,10085.300000190735,11109.5,15069.5,15981.5,16925.400000095367,18205.5,20005.5,22445.60000014305,23653.5,24933.400000095367,26165.5,27389.400000095367,29429.5],"straightlining":0.5454545454545454,"zigzagging":0.5,"honeypot":0,"survey":"neuroticism","trial_type":"survey-template","trial_index":2,"time_elapsed":43402,"internal_node_id":"0.0-2.0","experiment":"validation","task_version":"1.1","jspsych_version":"6.3.1","infrequency":0},{"responses":{"Q02":"2","Q05":"2","Q06":"2","Q04":"2","Q01":"1","Q03":"2","Q07":"2"},"rt":33685.60000014305,"item_order":[1,4,5,3,0,2,6],"radio_events":[10173.299999952316,11053.299999952316,21309.299999952316,23197.299999952316,26549.200000047684,27349.299999952316,31181.400000095367],"key_events":[],"mouse_events":[8293.299999952316,8997.200000047684,10173.299999952316,11053.299999952316,19085.299999952316,20445.200000047684,21309.299999952316,23197.299999952316,24693.10000014305,25981.299999952316,26549.200000047684,27349.299999952316,30037.299999952316,30773.200000047684,31181.400000095367,33685.10000014305],"straightlining":0.8571428571428571,"zigzagging":0.3333333333333333,"honeypot":0,"survey":"nfc6","trial_type":"survey-template","trial_index":3,"time_elapsed":77090,"internal_node_id":"0.0-3.0","experiment":"validation","task_version":"1.1","jspsych_version":"6.3.1","infrequency":0},{"responses":{"Q04":"1","Q06":"1","Q09":"4","Q11":"0","Q08":"2","Q05":"1","Q07":"4","Q02":"2","Q03":"4","Q10":"4","Q01":"4"},"rt":25926.900000095367,"item_order":[3,5,8,10,7,4,6,1,2,9,0],"radio_events":[5470,8542.099999904633,10518.099999904633,11486,13878,15254,16982,18782,21422.299999952316,22829.599999904633,24493.900000095367],"key_events":[],"mouse_events":[5470,7382,8542.099999904633,9742,10518.099999904633,11486,13878,15254,16982,18782,21422.299999952316,22829.599999904633,24493.900000095367,25926],"straightlining":0.36363636363636365,"zigzagging":0.3,"honeypot":0,"survey":"openness","trial_type":"survey-template","trial_index":4,"time_elapsed":103018,"internal_node_id":"0.0-4.0","experiment":"validation","task_version":"1.1","jspsych_version":"6.3.1","infrequency":0},{"value":[0,1.7662337662337664,1.1333333333333333],"trial_type":"call-function","trial_index":5,"time_elapsed":103019,"internal_node_id":"0.0-5.0","experiment":"validation","task_version":"1.1","jspsych_version":"6.3.1","interactions":"[]"}]