[{"view_history":[{"page_index":0,"viewing_time":1247.4000000059605}],"rt":1247.5999999940395,"trial_type":"instructions","trial_index":0,"time_elapsed":1256,"internal_node_id":"0.0-0.0","experiment":"validation","task_version":"1.1","jspsych_version":"6.3.1"},{"rt":17156.40000000596,"responses":{"age":"21","gender-categorical":"Female","gender-free-response":"","ethnicity":"Not Hispanic or Latino","race":["White"],"education":"Bachelor degree"},"survey":"demographics","trial_type":"survey-demo","trial_index":1,"time_elapsed":18415,"internal_node_id":"0.0-1.0","experiment":"validation","task_version":"1.1","jspsych_version":"6.3.1"},{"responses":{"Q03":"3","Q02":"4","Q05":"1","Q11":"0","Q06":"2","Q09":"3","Q08":"3","Q07":"4","Q04":"2","Q10":"4","Q01":"4"},"rt":30106.20000001788,"item_order":[2,1,4,10,5,8,7,6,3,9,0],"radio_events":[3509.800000011921,5778,7205.4000000059605,12436.40000000596,15431.40000000596,17779.59999999404,21452.90000000596,22962.70000001788,25288.80000001192,28070.90000000596,29704],"key_events":[],"mouse_events":[3509.800000011921,5778,7205.4000000059605,12436.40000000596,15431.40000000596,17779.59999999404,21452.90000000596,22962.70000001788,24659.59999999404,25288.80000001192,28070.90000000596,29704,30103.59999999404],"straightlining":0.2727272727272727,"zigzagging":0.5,"honeypot":0,"survey":"openness","trial_type":"survey-template","trial_index":2,"time_elapsed":48524,"internal_node_id":"0.0-2.0","experiment":"validation","task_version":"1.1","jspsych_version":"6.3.1","infrequency":0},{"responses":{"Q02":"2","Q03":"2","Q05":"3","Q07":"2","Q06":"3","Q01":"2","Q04":"1"},"rt":45008.40000000596,"item_order":[1,2,4,6,5,0,3],"radio_events":[26112.30000001192,31441.30000001192,32675.09999999404,34347.19999998808,38699,41473.59999999404,44256.19999998808],"key_events":[],"mouse_events":[26112.30000001192,26962,28716,30658.09999999404,31441.30000001192,32267,32675.09999999404,34347.19999998808,38699,40950.59999999404,41473.59999999404,44256.19999998808,45006.90000000596],"straightlining":0.5714285714285714,"zigzagging":0.8333333333333334,"honeypot":0,"survey":"nfc6","trial_type":"survey-template","trial_index":3,"time_elapsed":93535,"internal_node_id":"0.0-3.0","experiment":"validation","task_version":"1.1","jspsych_version":"6.3.1","infrequency":0},{"responses":{"Q05":"1","Q08":"2","Q11":"4","Q06":"3","Q01":"2","Q02":"1","Q09":"3","Q03":"1","Q10":"2","Q07":"3","Q04":"1"},"rt":28703.40000000596,"item_order":[4,7,10,5,0,1,8,2,9,6,3],"radio_events":[5717.299999982119,8018.0999999940395,9544.699999988079,11659.5,13300,15961.09999999404,17673.69999998808,21019.19999998808,22481.90000000596,24416.79999998212,26382.29999998212,27755.5],"key_events":[],"mouse_events":[5717.299999982119,7023.9000000059605,8018.0999999940395,8990.40000000596,9544.699999988079,11659.5,13300,15961.09999999404,17673.69999998808,21019.19999998808,22481.90000000596,24416.79999998212,26382.29999998212,27755.5,28701],"straightlining":0.6363636363636364,"zigzagging":0.5,"honeypot":0,"survey":"neuroticism","trial_type":"survey-template","trial_index":4,"time_elapsed":122243,"internal_node_id":"0.0-4.0","experiment":"validation","task_version":"1.1","jspsych_version":"6.3.1","infrequency":0},{"value":[0,1.4805194805194803,1.8333333333333335],"trial_type":"call-function","trial_index":5,"time_elapsed":122245,"internal_node_id":"0.0-5.0","experiment":"validation","task_version":"1.1","jspsych_version":"6.3.1","interactions":"[]"}]