[{"view_history":[{"page_index":0,"viewing_time":2280.7999999998137}],"rt":2282.4999999990687,"trial_type":"instructions","trial_index":0,"time_elapsed":2324,"internal_node_id":"0.0-0.0","experiment":"validation","task_version":"1.1","jspsych_version":"6.3.1"},{"rt":10959.099999999627,"responses":{"age":"18","gender-categorical":"Female","gender-free-response":"","ethnicity":"Not Hispanic or Latino","race":["White"],"education":"High school"},"survey":"demographics","trial_type":"survey-demo","trial_index":1,"time_elapsed":13315,"internal_node_id":"0.0-1.0","experiment":"validation","task_version":"1.1","jspsych_version":"6.3.1"},{"responses":{"Q05":"2","Q02":"3","Q04":"2","Q11":"0","Q10":"4","Q06":"3","Q01":"4","Q03":"3","Q09":"4","Q08":"2","Q07":"4"},"rt":49916,"item_order":[4,1,3,10,9,5,0,2,8,7,6],"radio_events":[4210.300000000745,6283.5999999996275,8154.5,11286.900000000373,20240.800000000745,21861.800000000745,25100.199999999255,27506,30064.300000000745,32499.400000000373,40746.59999999963,45554.59999999963],"key_events":[],"mouse_events":[4210.300000000745,6283.5999999996275,8154.5,11286.900000000373,15684.300000000745,20240.800000000745,21861.800000000745,25100.199999999255,27506,30064.300000000745,32499.400000000373,40746.59999999963,42541.40000000037,45554.59999999963,49909.59999999963],"straightlining":0.36363636363636365,"zigzagging":0.4,"honeypot":0,"survey":"openness","trial_type":"survey-template","trial_index":2,"time_elapsed":63249,"internal_node_id":"0.0-2.0","experiment":"validation","task_version":"1.1","jspsych_version":"6.3.1","infrequency":0},{"responses":{"Q06":"2","Q02":"3","Q01":"3","Q04":"3","Q07":"2","Q05":"3","Q03":"3"},"rt":140381.59999999963,"item_order":[5,1,0,3,6,4,2],"radio_events":[73464.40000000037,77152,79402.40000000037,87235.69999999925,110383.69999999925,130821.90000000037,139309.40000000037],"key_events":[],"mouse_events":[73464.40000000037,77152,79402.40000000037,87235.69999999925,110383.69999999925,130821.90000000037,139309.40000000037,140378.19999999925],"straightlining":0.42857142857142855,"zigzagging":0.5,"honeypot":0,"survey":"nfc6","trial_type":"survey-template","trial_index":3,"time_elapsed":203644,"internal_node_id":"0.0-3.0","experiment":"validation","task_version":"1.1","jspsych_version":"6.3.1","infrequency":0},{"responses":{"Q08":"1","Q05":"2","Q03":"2","Q04":"2","Q02":"1","Q09":"2","Q11":"4","Q07":"3","Q10":"1","Q06":"2","Q01":"3"},"rt":107204.5,"item_order":[7,4,2,3,1,8,10,6,9,5,0],"radio_events":[6526.199999999255,66429.5,69337.19999999925,77485.19999999925,79020.19999999925,95689.29999999888,98244.59999999963,100358.5,102293.79999999888,104319.09999999963,106364],"key_events":[],"mouse_events":[6526.199999999255,66429.5,69337.19999999925,77485.19999999925,79020.19999999925,95689.29999999888,98244.59999999963,100358.5,102293.79999999888,104319.09999999963,106364,107200],"straightlining":0.45454545454545453,"zigzagging":0.5,"honeypot":0,"survey":"neuroticism","trial_type":"survey-template","trial_index":4,"time_elapsed":310869,"internal_node_id":"0.0-4.0","experiment":"validation","task_version":"1.1","jspsych_version":"6.3.1","infrequency":0},{"value":[0,1.2467532467532467,1.4],"trial_type":"call-function","trial_index":5,"time_elapsed":310877,"internal_node_id":"0.0-5.0","experiment":"validation","task_version":"1.1","jspsych_version":"6.3.1","interactions":"[]"}]