[{"view_history":[{"page_index":0,"viewing_time":2221}],"rt":2222,"trial_type":"instructions","trial_index":0,"time_elapsed":2225,"internal_node_id":"0.0-0.0","experiment":"validation","task_version":"1.1","jspsych_version":"6.3.1"},{"rt":13347,"responses":{"age":"18","gender-categorical":"Female","gender-free-response":"","ethnicity":"Not Hispanic or Latino","race":["White"],"education":"Some college"},"survey":"demographics","trial_type":"survey-demo","trial_index":1,"time_elapsed":15575,"internal_node_id":"0.0-1.0","experiment":"validation","task_version":"1.1","jspsych_version":"6.3.1"},{"responses":{"Q03":"2","Q01":"4","Q09":"0","Q05":"0","Q04":"0","Q07":"4","Q10":"2","Q02":"4","Q11":"0","Q06":"4","Q08":"4"},"rt":80457,"item_order":[2,0,8,4,3,6,9,1,10,5,7],"radio_events":[6619,7573.000000000004,8390,12012.000000000004,14642,17076,65670,67863.00000000001,69538,71762,73904,75611,79470.00000000001],"key_events":[],"mouse_events":[6619,7573.000000000004,8390,10372,12012.000000000004,12708,14642,17076,65670,67863.00000000001,69538,70419,71762,73904,75611,76785,79470.00000000001,80448],"straightlining":0.45454545454545453,"zigzagging":0.2,"honeypot":0,"survey":"openness","trial_type":"survey-template","trial_index":2,"time_elapsed":96041,"internal_node_id":"0.0-2.0","experiment":"validation","task_version":"1.1","jspsych_version":"6.3.1","infrequency":0},{"responses":{"Q07":"3","Q11":"4","Q03":"2","Q05":"2","Q06":"2","Q02":"2","Q01":"3","Q04":"3","Q08":"1","Q09":"2","Q10":"2"},"rt":33839,"item_order":[6,10,2,4,5,1,0,3,7,8,9],"radio_events":[5459,9049,10942,13343,15146,16886.000000000015,17799,26852,28435,29811,31290,32914.999999999985],"key_events":[],"mouse_events":[5459,8457,9049,10942,13343,15146,16886.000000000015,17799,26852,28435,29811,31290,32914.999999999985,33830.000000000015],"straightlining":0.5454545454545454,"zigzagging":0.2,"honeypot":0,"survey":"neuroticism","trial_type":"survey-template","trial_index":3,"time_elapsed":129885,"internal_node_id":"0.0-3.0","experiment":"validation","task_version":"1.1","jspsych_version":"6.3.1","infrequency":0},{"responses":{"Q01":"3","Q02":"3","Q06":"3","Q05":"2","Q07":"2","Q03":"3","Q04":"3"},"rt":53459.999999999985,"item_order":[0,1,5,4,6,2,3],"radio_events":[9866.999999999985,12308.999999999985,15245.999999999985,21552.999999999985,22564.999999999985,26939.999999999985,27982.999999999985,52101.999999999985],"key_events":[],"mouse_events":[9866.999999999985,12308.999999999985,13741.999999999985,15245.999999999985,21552.999999999985,22564.999999999985,25030.999999999985,26939.999999999985,27982.999999999985,52101.999999999985,53452.999999999985],"straightlining":0.42857142857142855,"zigzagging":0.3333333333333333,"honeypot":0,"survey":"nfc6","trial_type":"survey-template","trial_index":4,"time_elapsed":183348,"internal_node_id":"0.0-4.0","experiment":"validation","task_version":"1.1","jspsych_version":"6.3.1","infrequency":0},{"value":[0,1.4285714285714286,0.7333333333333334],"trial_type":"call-function","trial_index":5,"time_elapsed":183351,"internal_node_id":"0.0-5.0","experiment":"validation","task_version":"1.1","jspsych_version":"6.3.1","interactions":"[]"}]