[{"view_history":[{"page_index":0,"viewing_time":4482.099999904633}],"rt":4482.799999952316,"trial_type":"instructions","trial_index":0,"time_elapsed":4511,"internal_node_id":"0.0-0.0","experiment":"validation","task_version":"1.1","jspsych_version":"6.3.1"},{"rt":18281.200000047684,"responses":{"age":"24","gender-categorical":"Female","gender-free-response":"","ethnicity":"Not Hispanic or Latino","race":["White"],"education":"Bachelor degree"},"survey":"demographics","trial_type":"survey-demo","trial_index":1,"time_elapsed":22796,"internal_node_id":"0.0-1.0","experiment":"validation","task_version":"1.1","jspsych_version":"6.3.1"},{"responses":{"Q04":"0","Q06":"3","Q09":"2","Q08":"1","Q01":"1","Q07":"1","Q10":"2","Q02":"1","Q05":"2","Q03":"0","Q11":"4"},"rt":75745.20000004768,"item_order":[3,5,8,7,0,6,9,1,4,2,10],"radio_events":[7876.300000190735,11691.100000143051,18203.60000014305,24212,45097.10000014305,48680.200000047684,53470.700000047684,57486.60000014305,69101,71375.5,73680.30000019073],"key_events":[],"mouse_events":[7876.300000190735,11691.100000143051,18203.60000014305,24212,45097.10000014305,48680.200000047684,53470.700000047684,57486.60000014305,69101,71375.5,73680.30000019073,75743.80000019073],"straightlining":0.2727272727272727,"zigzagging":0.7,"honeypot":0,"survey":"neuroticism","trial_type":"survey-template","trial_index":2,"time_elapsed":98555,"internal_node_id":"0.0-2.0","experiment":"validation","task_version":"1.1","jspsych_version":"6.3.1","infrequency":0},{"responses":{"Q05":"3","Q07":"2","Q04":"3","Q02":"2","Q03":"3","Q01":"3","Q06":"2"},"rt":104404.30000019073,"item_order":[4,6,3,1,2,0,5],"radio_events":[7339,9875.300000190735,41122.800000190735,46336.800000190735,55556.300000190735,65016.800000190735,83011.80000019073,96492.70000004768],"key_events":[],"mouse_events":[7339,9875.300000190735,30343.200000047684,41122.800000190735,46336.800000190735,55556.300000190735,65016.800000190735,83011.80000019073,96492.70000004768,104403.40000009537],"straightlining":0.42857142857142855,"zigzagging":0.8333333333333334,"honeypot":0,"survey":"nfc6","trial_type":"survey-template","trial_index":3,"time_elapsed":202966,"internal_node_id":"0.0-3.0","experiment":"validation","task_version":"1.1","jspsych_version":"6.3.1","infrequency":0},{"responses":{"Q06":"4","Q04":"2","Q03":"4","Q02":"2","Q11":"0","Q08":"4","Q10":"4","Q07":"4","Q01":"4","Q05":"0","Q09":"3"},"rt":58962.40000009537,"item_order":[5,3,2,1,10,7,9,6,0,4,8],"radio_events":[6454.400000095367,11798.700000047684,15451.300000190735,19265.10000014305,23461.200000047684,27174.200000047684,41040.90000009537,42600.200000047684,44934.90000009537,49784.90000009537,53859.60000014305,56043.10000014305],"key_events":[],"mouse_events":[6454.400000095367,11798.700000047684,15451.300000190735,19265.10000014305,23461.200000047684,27174.200000047684,41040.90000009537,42600.200000047684,44934.90000009537,49784.90000009537,53859.60000014305,56043.10000014305,58961.300000190735],"straightlining":0.45454545454545453,"zigzagging":0.1,"honeypot":0,"survey":"openness","trial_type":"survey-template","trial_index":4,"time_elapsed":261934,"internal_node_id":"0.0-4.0","experiment":"validation","task_version":"1.1","jspsych_version":"6.3.1","infrequency":0},{"value":[0,1.155844155844156,1.6333333333333333],"trial_type":"call-function","trial_index":5,"time_elapsed":261940,"internal_node_id":"0.0-5.0","experiment":"validation","task_version":"1.1","jspsych_version":"6.3.1","interactions":"[]"}]