[{"view_history":[{"page_index":0,"viewing_time":2243.39999999851}],"rt":2243.5999999940395,"trial_type":"instructions","trial_index":0,"time_elapsed":2276,"internal_node_id":"0.0-0.0","experiment":"validation","task_version":"1.1","jspsych_version":"6.3.1"},{"rt":6398.70000000298,"responses":{"age":"27","gender-categorical":"Male","gender-free-response":"","ethnicity":"Not Hispanic or Latino","race":["White"],"education":"Bachelor degree"},"survey":"demographics","trial_type":"survey-demo","trial_index":1,"time_elapsed":8677,"internal_node_id":"0.0-1.0","experiment":"validation","task_version":"1.1","jspsych_version":"6.3.1"},{"responses":{"Q08":"4","Q10":"2","Q01":"3","Q11":"0","Q09":"3","Q04":"1","Q07":"4","Q06":"4","Q03":"2","Q05":"1","Q02":"3"},"rt":18173.5,"item_order":[7,9,0,10,8,3,6,5,2,4,1],"radio_events":[4003.7999999970198,4635.89999999851,6235.79999999702,8075.89999999851,9867.89999999851,10939.70000000298,12811.79999999702,13804,15091.79999999702,16195.89999999851,16619.79999999702],"key_events":[],"mouse_events":[2755.89999999851,3708.10000000149,4003.7999999970198,4635.89999999851,6235.79999999702,7380,7691.79999999702,8075.89999999851,9867.89999999851,10939.70000000298,12811.79999999702,13804,15091.79999999702,16195.89999999851,16619.79999999702,17044,18172.10000000149],"straightlining":0.36363636363636365,"zigzagging":0.3,"honeypot":0,"survey":"openness","trial_type":"survey-template","trial_index":2,"time_elapsed":26854,"internal_node_id":"0.0-2.0","experiment":"validation","task_version":"1.1","jspsych_version":"6.3.1","infrequency":0},{"responses":{"Q07":"3","Q01":"2","Q02":"2","Q11":"4","Q10":"2","Q09":"3","Q08":"1","Q03":"2","Q06":"3","Q05":"1","Q04":"2"},"rt":17084.60000000149,"item_order":[6,0,1,10,9,8,7,2,5,4,3],"radio_events":[4323.5,6051.5,6547.39999999851,7883.39999999851,8971.5,9907.39999999851,11371.39999999851,12203.39999999851,13963.39999999851,14731.39999999851,15915.39999999851],"key_events":[],"mouse_events":[2155.2999999970198,2803.2000000029802,4323.5,5275.5,6051.5,6547.39999999851,7643.60000000149,7883.39999999851,8971.5,9907.39999999851,11371.39999999851,12203.39999999851,13963.39999999851,14731.39999999851,15915.39999999851,17083.39999999851],"straightlining":0.45454545454545453,"zigzagging":0.5,"honeypot":0,"survey":"neuroticism","trial_type":"survey-template","trial_index":3,"time_elapsed":43942,"internal_node_id":"0.0-3.0","experiment":"validation","task_version":"1.1","jspsych_version":"6.3.1","infrequency":0},{"responses":{"Q05":"3","Q02":"2","Q03":"3","Q07":"2","Q04":"3","Q01":"3","Q06":"2"},"rt":34973.29999999702,"item_order":[4,1,2,6,3,0,5],"radio_events":[2556.5,4572.29999999702,5012.39999999851,7028.39999999851,29996.39999999851,31412.29999999702,32188.29999999702,33052.5,34508.29999999702],"key_events":[],"mouse_events":[2556.5,3972.5,4572.29999999702,5012.39999999851,5892.29999999702,6188.29999999702,7028.39999999851,29996.39999999851,31412.29999999702,32188.29999999702,33052.5,34508.29999999702,34972.39999999851],"straightlining":0.42857142857142855,"zigzagging":0.8333333333333334,"honeypot":0,"survey":"nfc6","trial_type":"survey-template","trial_index":4,"time_elapsed":78917,"internal_node_id":"0.0-4.0","experiment":"validation","task_version":"1.1","jspsych_version":"6.3.1","infrequency":0},{"value":[0,1.2467532467532467,1.6333333333333333],"trial_type":"call-function","trial_index":5,"time_elapsed":78919,"internal_node_id":"0.0-5.0","experiment":"validation","task_version":"1.1","jspsych_version":"6.3.1","interactions":"[]"}]