[{"view_history":[{"page_index":0,"viewing_time":1243.3000000715256}],"rt":1243.5,"trial_type":"instructions","trial_index":0,"time_elapsed":1263,"internal_node_id":"0.0-0.0","experiment":"validation","task_version":"1.1","jspsych_version":"6.3.1"},{"rt":9270.899999976158,"responses":{"age":"24","gender-categorical":"Male","gender-free-response":"","ethnicity":"Not Hispanic or Latino","race":["White"],"education":"Bachelor degree"},"survey":"demographics","trial_type":"survey-demo","trial_index":1,"time_elapsed":10536,"internal_node_id":"0.0-1.0","experiment":"validation","task_version":"1.1","jspsych_version":"6.3.1"},{"responses":{"Q07":"2","Q11":"4","Q05":"3","Q03":"2","Q02":"2","Q04":"2","Q10":"2","Q06":"3","Q08":"1","Q01":"2","Q09":"2"},"rt":31520.699999928474,"item_order":[6,10,4,2,1,3,9,5,7,0,8],"radio_events":[3738.7999999523163,6896.699999928474,10062.699999928474,12189,14670.599999904633,15932.899999976158,19042.899999976158,21600.699999928474,24138.699999928474,27156.799999952316,28352.899999976158,30856.599999904633],"key_events":[],"mouse_events":[2776.6999999284744,3738.7999999523163,6896.699999928474,9660.799999952316,10062.699999928474,12189,13790.799999952316,14670.599999904633,15932.899999976158,19042.899999976158,21600.699999928474,24138.699999928474,27156.799999952316,28352.899999976158,30406.599999904633,30856.599999904633,31518.899999976158],"straightlining":0.6363636363636364,"zigzagging":0.4,"honeypot":0,"survey":"neuroticism","trial_type":"survey-template","trial_index":2,"time_elapsed":42061,"internal_node_id":"0.0-2.0","experiment":"validation","task_version":"1.1","jspsych_version":"6.3.1","infrequency":0},{"responses":{"Q02":"4","Q01":"4","Q06":"4","Q07":"2","Q04":"3","Q03":"3","Q05":"4"},"rt":20889.300000071526,"item_order":[1,0,5,6,3,2,4],"radio_events":[4682.5,6398.399999976158,8288.600000023842,10314.5,14684.399999976158,16538.800000071526,20404.600000023842],"key_events":[],"mouse_events":[4682.5,6398.399999976158,8288.600000023842,10314.5,14068.600000023842,14684.399999976158,16538.800000071526,20404.600000023842,20888.600000023842],"straightlining":0.5714285714285714,"zigzagging":0.16666666666666666,"honeypot":0,"survey":"nfc6","trial_type":"survey-template","trial_index":3,"time_elapsed":62953,"internal_node_id":"0.0-3.0","experiment":"validation","task_version":"1.1","jspsych_version":"6.3.1","infrequency":0},{"responses":{"Q09":"3","Q03":"4","Q06":"4","Q02":"3","Q07":"3","Q11":"0","Q05":"0","Q10":"4","Q04":"1","Q01":"3","Q08":"2"},"rt":26792.199999928474,"item_order":[8,2,5,1,6,10,4,9,3,0,7],"radio_events":[2925.399999976158,6107.399999976158,7767.299999952316,9681.299999952316,11275.899999976158,13597.299999952316,16927.399999976158,18595.399999976158,20987.299999952316,22905.299999952316,26011.299999952316],"key_events":[],"mouse_events":[2925.399999976158,4947.399999976158,6107.399999976158,7767.299999952316,9681.299999952316,11275.899999976158,13597.299999952316,16927.399999976158,18595.399999976158,20987.299999952316,22905.299999952316,26011.299999952316,26791.299999952316],"straightlining":0.2727272727272727,"zigzagging":0.5,"honeypot":0,"survey":"openness","trial_type":"survey-template","trial_index":4,"time_elapsed":89748,"internal_node_id":"0.0-4.0","experiment":"validation","task_version":"1.1","jspsych_version":"6.3.1","infrequency":0},{"value":[0,1.4805194805194806,1.0666666666666667],"trial_type":"call-function","trial_index":5,"time_elapsed":89750,"internal_node_id":"0.0-5.0","experiment":"validation","task_version":"1.1","jspsych_version":"6.3.1","interactions":"[]"}]