[{"view_history":[{"page_index":0,"viewing_time":1997.2000000476837}],"rt":1997.5,"trial_type":"instructions","trial_index":0,"time_elapsed":2001,"internal_node_id":"0.0-0.0","experiment":"validation","task_version":"1.1","jspsych_version":"6.3.1"},{"rt":9815.100000023842,"responses":{"age":"39","gender-categorical":"Female","gender-free-response":"","ethnicity":"Not Hispanic or Latino","race":["White"],"education":"Bachelor degree"},"survey":"demographics","trial_type":"survey-demo","trial_index":1,"time_elapsed":11817,"internal_node_id":"0.0-1.0","experiment":"validation","task_version":"1.1","jspsych_version":"6.3.1"},{"responses":{"Q02":"3","Q01":"3","Q04":"3","Q05":"2","Q07":"2","Q03":"3","Q06":"3"},"rt":25332.199999928474,"item_order":[1,0,3,4,6,2,5],"radio_events":[5162.799999952316,8387.299999952316,9515.299999952316,12122.699999928474,13938.5,15203.199999928474,17987,24643.799999952316],"key_events":[],"mouse_events":[4594.899999976158,5162.799999952316,5843.5,6179.299999952316,8387.299999952316,9515.299999952316,11635.199999928474,12122.699999928474,13301,13627.299999952316,13938.5,15203.199999928474,17538.899999976158,17987,20747,24178.399999976158,24643.799999952316,25330.699999928474],"straightlining":0.42857142857142855,"zigzagging":0.3333333333333333,"honeypot":0,"survey":"nfc6","trial_type":"survey-template","trial_index":2,"time_elapsed":37154,"internal_node_id":"0.0-2.0","experiment":"validation","task_version":"1.1","jspsych_version":"6.3.1","infrequency":0},{"responses":{"Q06":"3","Q03":"2","Q04":"2","Q02":"2","Q09":"3","Q10":"3","Q07":"3","Q01":"3","Q08":"1","Q05":"0","Q11":"4"},"rt":23131.899999976158,"item_order":[5,2,3,1,8,9,6,0,7,4,10],"radio_events":[2811.2999999523163,5843.699999928474,8555.099999904633,8907.099999904633,10562.399999976158,11795.599999904633,13811.299999952316,15306.699999928474,16275.399999976158,17947.299999952316,18986.199999928474,20659,21010.899999976158],"key_events":[],"mouse_events":[2811.2999999523163,5843.699999928474,6770.799999952316,7939.599999904633,8243.099999904633,8555.099999904633,8907.099999904633,10562.399999976158,11795.599999904633,13218.599999904633,13499.5,13811.299999952316,14842.899999976158,15306.699999928474,16275.399999976158,17947.299999952316,18986.199999928474,20659,21010.899999976158,23131.099999904633],"straightlining":0.36363636363636365,"zigzagging":0.3,"honeypot":0,"survey":"neuroticism","trial_type":"survey-template","trial_index":3,"time_elapsed":60289,"internal_node_id":"0.0-3.0","experiment":"validation","task_version":"1.1","jspsych_version":"6.3.1","infrequency":0},{"responses":{"Q09":"3","Q02":"3","Q03":"0","Q04":"1","Q07":"4","Q10":"0","Q06":"4","Q11":"0","Q05":"1","Q08":"3","Q01":"4"},"rt":23771.899999976158,"item_order":[8,1,2,3,6,9,5,10,4,7,0],"radio_events":[2690.600000023842,4739.200000047684,6307.600000023842,10035,10835.299999952316,13667,16242.700000047684,17275.700000047684,19323.399999976158,20779.399999976158,23098.5],"key_events":[],"mouse_events":[2690.600000023842,4099.299999952316,4354.700000047684,4739.200000047684,6307.600000023842,7811.100000023842,8091.799999952316,8539.5,9482.899999976158,10035,10835.299999952316,12499.600000023842,12907.399999976158,13195.600000023842,13436,13667,16242.700000047684,17275.700000047684,18867.100000023842,19323.399999976158,20442.5,20779.399999976158,22611.700000047684,23098.5,23771.100000023842],"straightlining":0.36363636363636365,"zigzagging":0.2,"honeypot":0,"survey":"openness","trial_type":"survey-template","trial_index":4,"time_elapsed":84065,"internal_node_id":"0.0-4.0","experiment":"validation","task_version":"1.1","jspsych_version":"6.3.1","infrequency":0},{"value":[0,1.155844155844156,0.8333333333333333],"trial_type":"call-function","trial_index":5,"time_elapsed":84068,"internal_node_id":"0.0-5.0","experiment":"validation","task_version":"1.1","jspsych_version":"6.3.1","interactions":"[]"}]