[{"view_history":[{"page_index":0,"viewing_time":3032.5}],"rt":3033.300000011921,"trial_type":"instructions","trial_index":0,"time_elapsed":3051,"internal_node_id":"0.0-0.0","experiment":"validation","task_version":"1.1","jspsych_version":"6.3.1"},{"rt":12154.100000023842,"responses":{"age":"23","gender-categorical":"Female","gender-free-response":"","ethnicity":"Hispanic or Latino","race":["White"],"education":"Bachelor degree"},"survey":"demographics","trial_type":"survey-demo","trial_index":1,"time_elapsed":15209,"internal_node_id":"0.0-1.0","experiment":"validation","task_version":"1.1","jspsych_version":"6.3.1"},{"responses":{"Q10":"1","Q01":"3","Q11":"4","Q03":"3","Q04":"1","Q05":"3","Q08":"0","Q09":"3","Q07":"3","Q06":"0","Q02":"0"},"rt":35869.5,"item_order":[9,0,10,2,3,4,7,8,6,5,1],"radio_events":[7301.199999988079,9001.100000023842,10270.600000023842,13573,17531.600000023842,19450.600000023842,25319.80000001192,26845.900000035763,31099.19999998808,33222.90000003576,34680.10000002384],"key_events":[],"mouse_events":[7301.199999988079,7863.5,9001.100000023842,10270.600000023842,13573,17531.600000023842,19450.600000023842,23164,25319.80000001192,26234.80000001192,26845.900000035763,30333.5,31099.19999998808,33222.90000003576,34680.10000002384,35867.80000001192],"straightlining":0.36363636363636365,"zigzagging":0.4,"honeypot":0,"survey":"neuroticism","trial_type":"survey-template","trial_index":2,"time_elapsed":51087,"internal_node_id":"0.0-2.0","experiment":"validation","task_version":"1.1","jspsych_version":"6.3.1","infrequency":0},{"responses":{"Q04":"1","Q06":"3","Q10":"1","Q02":"4","Q03":"1","Q01":"4","Q05":"0","Q11":"0","Q07":"4","Q08":"3","Q09":"4"},"rt":36437.60000002384,"item_order":[3,5,9,1,2,0,4,10,6,7,8],"radio_events":[3099.899999976158,8340.399999976158,9538.699999988079,13346.199999988079,14948.199999988079,18757.100000023842,22583.5,25122.30000001192,27477.19999998808,29531.30000001192,34724.5],"key_events":[],"mouse_events":[3099.899999976158,5790.699999988079,8340.399999976158,9538.699999988079,11606.100000023842,13346.199999988079,14948.199999988079,17472,18194.899999976158,18757.100000023842,22583.5,25122.30000001192,27477.19999998808,29531.30000001192,34724.5,36436],"straightlining":0.2727272727272727,"zigzagging":0.4,"honeypot":0,"survey":"openness","trial_type":"survey-template","trial_index":3,"time_elapsed":87531,"internal_node_id":"0.0-3.0","experiment":"validation","task_version":"1.1","jspsych_version":"6.3.1","infrequency":0},{"responses":{"Q05":"3","Q04":"3","Q02":"3","Q07":"2","Q01":"2","Q06":"3","Q03":"3"},"rt":39974.30000001192,"item_order":[4,3,1,6,0,5,2],"radio_events":[5531.400000035763,9166.199999988079,12917.800000011921,17917.600000023842,23077.69999998808,34273.5,38963.19999998808],"key_events":[],"mouse_events":[5531.400000035763,8657.199999988079,9166.199999988079,12917.800000011921,17917.600000023842,22502.900000035763,23077.69999998808,34273.5,38385.10000002384,38963.19999998808,39973.30000001192],"straightlining":0.42857142857142855,"zigzagging":0.3333333333333333,"honeypot":0,"survey":"nfc6","trial_type":"survey-template","trial_index":4,"time_elapsed":127509,"internal_node_id":"0.0-4.0","experiment":"validation","task_version":"1.1","jspsych_version":"6.3.1","infrequency":0},{"value":[0,1.0649350649350648,1.1333333333333333],"trial_type":"call-function","trial_index":5,"time_elapsed":127513,"internal_node_id":"0.0-5.0","experiment":"validation","task_version":"1.1","jspsych_version":"6.3.1","interactions":"[]"}]