[{"view_history":[{"page_index":0,"viewing_time":2963.100000143051}],"rt":2963.7000000476837,"trial_type":"instructions","trial_index":0,"time_elapsed":2970,"internal_node_id":"0.0-0.0","experiment":"validation","task_version":"1.1","jspsych_version":"6.3.1"},{"rt":17494.60000014305,"responses":{"age":"26","gender-categorical":"Female","gender-free-response":"","ethnicity":"Not Hispanic or Latino","race":["White"],"education":"Master degree or higher"},"survey":"demographics","trial_type":"survey-demo","trial_index":1,"time_elapsed":20469,"internal_node_id":"0.0-1.0","experiment":"validation","task_version":"1.1","jspsych_version":"6.3.1"},{"responses":{"Q05":"3","Q02":"3","Q03":"3","Q06":"2","Q04":"2","Q01":"1","Q07":"2"},"rt":41247.200000047684,"item_order":[4,1,2,5,3,0,6],"radio_events":[6693,11482.400000095367,15673.800000190735,25216,32798.60000014305,37245.40000009537,39495.90000009537],"key_events":[],"mouse_events":[6693,11482.400000095367,15673.800000190735,25216,32798.60000014305,37245.40000009537,39495.90000009537,40847.300000190735,41244.200000047684],"straightlining":0.42857142857142855,"zigzagging":0.5,"honeypot":0,"survey":"nfc6","trial_type":"survey-template","trial_index":2,"time_elapsed":61725,"internal_node_id":"0.0-2.0","experiment":"validation","task_version":"1.1","jspsych_version":"6.3.1","infrequency":0},{"responses":{"Q03":"3","Q07":"4","Q11":"0","Q09":"3","Q06":"1","Q05":"0","Q02":"3","Q08":"0","Q01":"4","Q04":"2","Q10":"3"},"rt":43032.5,"item_order":[2,6,10,8,5,4,1,7,0,3,9],"radio_events":[7340.600000143051,9309.5,13593.700000047684,17197.900000095367,20221.400000095367,24084,28297.5,32848.700000047684,34327.5,36717.299999952316,40642.299999952316,42266.60000014305],"key_events":[],"mouse_events":[7340.600000143051,9309.5,13593.700000047684,17197.900000095367,20221.400000095367,24084,27539.10000014305,28297.5,32848.700000047684,34327.5,36717.299999952316,40642.299999952316,42266.60000014305,43029.5],"straightlining":0.2727272727272727,"zigzagging":0.5,"honeypot":0,"survey":"openness","trial_type":"survey-template","trial_index":3,"time_elapsed":104765,"internal_node_id":"0.0-3.0","experiment":"validation","task_version":"1.1","jspsych_version":"6.3.1","infrequency":0},{"responses":{"Q04":"3","Q01":"4","Q08":"4","Q06":"4","Q09":"4","Q05":"3","Q02":"3","Q07":"4","Q03":"3","Q10":"4","Q11":"4"},"rt":25616.5,"item_order":[3,0,7,5,8,4,1,6,2,9,10],"radio_events":[3478.399999856949,4562.5,6545.599999904633,10063.5,12729.099999904633,14201.899999856949,15981.799999952316,18806.699999809265,21290.699999809265,22713.099999904633,24922.299999952316],"key_events":[],"mouse_events":[3478.399999856949,4562.5,6545.599999904633,10063.5,12729.099999904633,14201.899999856949,15981.799999952316,18806.699999809265,21290.699999809265,22713.099999904633,24922.299999952316,25612.89999985695],"straightlining":0.45454545454545453,"zigzagging":0.3,"honeypot":0,"survey":"neuroticism","trial_type":"survey-template","trial_index":4,"time_elapsed":130388,"internal_node_id":"0.0-4.0","experiment":"validation","task_version":"1.1","jspsych_version":"6.3.1","infrequency":0},{"value":[0,1.155844155844156,1.3],"trial_type":"call-function","trial_index":5,"time_elapsed":130393,"internal_node_id":"0.0-5.0","experiment":"validation","task_version":"1.1","jspsych_version":"6.3.1","interactions":"[]"}]