[{"view_history":[{"page_index":0,"viewing_time":13428}],"rt":13428,"trial_type":"instructions","trial_index":0,"time_elapsed":13501,"internal_node_id":"0.0-0.0","experiment":"validation","task_version":"1.1","jspsych_version":"6.3.1"},{"rt":24242,"responses":{"age":"32","gender-categorical":"Male","gender-free-response":"","ethnicity":"Not Hispanic or Latino","race":["Black or African American"],"education":"Bachelor degree"},"survey":"demographics","trial_type":"survey-demo","trial_index":1,"time_elapsed":37761,"internal_node_id":"0.0-1.0","experiment":"validation","task_version":"1.1","jspsych_version":"6.3.1"},{"responses":{"Q06":"4","Q01":"3","Q10":"0","Q04":"0","Q08":"0","Q11":"0","Q03":"0","Q02":"3","Q07":"4","Q05":"1","Q09":"4"},"rt":531451,"item_order":[5,0,9,3,7,10,2,1,6,4,8],"radio_events":[442243,447023,449709,451970,456670,477169,484511,494507,497292,500143,505039,513249,528759],"key_events":[],"mouse_events":[389159,442243,447023,449709,451970,456670,477169,484511,494507,497292,500143,505039,513249,528759,531446],"straightlining":0.45454545454545453,"zigzagging":0.2,"honeypot":0,"survey":"openness","trial_type":"survey-template","trial_index":2,"time_elapsed":569222,"internal_node_id":"0.0-2.0","experiment":"validation","task_version":"1.1","jspsych_version":"6.3.1","infrequency":0},{"responses":{"Q08":"0","Q11":"4","Q02":"0","Q07":"0","Q01":"1","Q06":"4","Q10":"1","Q03":"3","Q09":"0","Q04":"1","Q05":"0"},"rt":247744,"item_order":[7,10,1,6,0,5,9,2,8,3,4],"radio_events":[9310,130017,187044,189731,195932,204491,215716,236551,237919,240118,246134],"key_events":[],"mouse_events":[9310,130017,187044,189731,195932,204491,215716,232285,235012,236551,237919,240118,246134,247739],"straightlining":0.36363636363636365,"zigzagging":0.5,"honeypot":0,"survey":"neuroticism","trial_type":"survey-template","trial_index":3,"time_elapsed":816975,"internal_node_id":"0.0-3.0","experiment":"validation","task_version":"1.1","jspsych_version":"6.3.1","infrequency":0},{"responses":{"Q06":"1","Q01":"1","Q04":"3","Q05":"1","Q02":"1","Q07":"2","Q03":"1"},"rt":423499,"item_order":[5,0,3,4,1,6,2],"radio_events":[161112,269641,277540,374390,409543,411194,419025],"key_events":[],"mouse_events":[158901,161112,269641,277540,374390,409543,411194,419025,423499],"straightlining":0.7142857142857143,"zigzagging":0.3333333333333333,"honeypot":0,"survey":"nfc6","trial_type":"survey-template","trial_index":4,"time_elapsed":1240485,"internal_node_id":"0.0-4.0","experiment":"validation","task_version":"1.1","jspsych_version":"6.3.1","infrequency":0},{"value":[0,1.5324675324675323,1.0333333333333332],"trial_type":"call-function","trial_index":5,"time_elapsed":1240490,"internal_node_id":"0.0-5.0","experiment":"validation","task_version":"1.1","jspsych_version":"6.3.1","interactions":"[{\"event\":\"blur\",\"trial\":2,\"time\":47164},{\"event\":\"focus\",\"trial\":2,\"time\":49263},{\"event\":\"blur\",\"trial\":2,\"time\":51670},{\"event\":\"focus\",\"trial\":2,\"time\":61127},{\"event\":\"blur\",\"trial\":2,\"time\":342524},{\"event\":\"focus\",\"trial\":2,\"time\":426922},{\"event\":\"blur\",\"trial\":3,\"time\":616377},{\"event\":\"focus\",\"trial\":3,\"time\":618768},{\"event\":\"blur\",\"trial\":4,\"time\":1037353},{\"event\":\"focus\",\"trial\":4,\"time\":1037898},{\"event\":\"focus\",\"trial\":4,\"time\":1037898},{\"event\":\"blur\",\"trial\":4,\"time\":1037975},{\"event\":\"focus\",\"trial\":4,\"time\":1038055},{\"event\":\"focus\",\"trial\":4,\"time\":1038055},{\"event\":\"blur\",\"trial\":4,\"time\":1038138},{\"event\":\"focus\",\"trial\":4,\"time\":1038215},{\"event\":\"focus\",\"trial\":4,\"time\":1038215},{\"event\":\"blur\",\"trial\":4,\"time\":1038295},{\"event\":\"focus\",\"trial\":4,\"time\":1038380},{\"event\":\"focus\",\"trial\":4,\"time\":1038380},{\"event\":\"blur\",\"trial\":4,\"time\":1038460},{\"event\":\"focus\",\"trial\":4,\"time\":1038541},{\"event\":\"focus\",\"trial\":4,\"time\":1038541},{\"event\":\"blur\",\"trial\":4,\"time\":1038619},{\"event\":\"focus\",\"trial\":4,\"time\":1038699},{\"event\":\"focus\",\"trial\":4,\"time\":1038699},{\"event\":\"blur\",\"trial\":4,\"time\":1038781},{\"event\":\"focus\",\"trial\":4,\"time\":1038862},{\"event\":\"focus\",\"trial\":4,\"time\":1038862},{\"event\":\"blur\",\"trial\":4,\"time\":1038943},{\"event\":\"focus\",\"trial\":4,\"time\":1039023},{\"event\":\"focus\",\"trial\":4,\"time\":1039023},{\"event\":\"blur\",\"trial\":4,\"time\":1039103},{\"event\":\"focus\",\"trial\":4,\"time\":1039183},{\"event\":\"focus\",\"trial\":4,\"time\":1039183},{\"event\":\"blur\",\"trial\":4,\"time\":1039260},{\"event\":\"focus\",\"trial\":4,\"time\":1039345},{\"event\":\"focus\",\"trial\":4,\"time\":1039345},{\"event\":\"blur\",\"trial\":4,\"time\":1039423},{\"event\":\"focus\",\"trial\":4,\"time\":1086422},{\"event\":\"focus\",\"trial\":4,\"time\":1086422}]"}]