[{"view_history":[{"page_index":0,"viewing_time":1542.2000000476837}],"rt":1542.3999998569489,"trial_type":"instructions","trial_index":0,"time_elapsed":1554,"internal_node_id":"0.0-0.0","experiment":"validation","task_version":"1.1","jspsych_version":"6.3.1"},{"rt":10420.399999856949,"responses":{"age":"25","gender-categorical":"Male","gender-free-response":"","ethnicity":"Not Hispanic or Latino","race":["White"],"education":"Master degree or higher"},"survey":"demographics","trial_type":"survey-demo","trial_index":1,"time_elapsed":11977,"internal_node_id":"0.0-1.0","experiment":"validation","task_version":"1.1","jspsych_version":"6.3.1"},{"responses":{"Q08":"1","Q06":"2","Q01":"2","Q04":"2","Q09":"2","Q07":"2","Q10":"2","Q03":"1","Q11":"4","Q05":"1","Q02":"1"},"rt":27543.89999985695,"item_order":[7,5,0,3,8,6,9,2,10,4,1],"radio_events":[3784.2000000476837,5466.099999904633,7107.399999856949,9031.700000047684,10721.599999904633,11869.700000047684,15343,17671.099999904633,19817.39999985695,23314.299999952316,25965.39999985695],"key_events":[],"mouse_events":[3784.2000000476837,5466.099999904633,7107.399999856949,9031.700000047684,10721.599999904633,11869.700000047684,15343,17671.099999904633,19817.39999985695,23314.299999952316,25965.39999985695,27541.89999985695],"straightlining":0.5454545454545454,"zigzagging":0.2,"honeypot":0,"survey":"neuroticism","trial_type":"survey-template","trial_index":2,"time_elapsed":39519,"internal_node_id":"0.0-2.0","experiment":"validation","task_version":"1.1","jspsych_version":"6.3.1","infrequency":0},{"responses":{"Q02":"3","Q05":"3","Q07":"2","Q01":"2","Q04":"3","Q06":"4","Q03":"3"},"rt":38804.5,"item_order":[1,4,6,0,3,5,2],"radio_events":[11720.700000047684,14664.5,16980.400000095367,21942.300000190735,27291,33398.60000014305,37889.90000009537],"key_events":[],"mouse_events":[11720.700000047684,14664.5,16980.400000095367,21942.300000190735,27291,33398.60000014305,37889.90000009537,38803.300000190735],"straightlining":0.2857142857142857,"zigzagging":0.3333333333333333,"honeypot":0,"survey":"nfc6","trial_type":"survey-template","trial_index":3,"time_elapsed":78320,"internal_node_id":"0.0-3.0","experiment":"validation","task_version":"1.1","jspsych_version":"6.3.1","infrequency":0},{"responses":{"Q08":"3","Q07":"4","Q02":"3","Q03":"4","Q04":"1","Q06":"4","Q01":"4","Q10":"4","Q09":"4","Q11":"0","Q05":"0"},"rt":30430.599999904633,"item_order":[7,6,1,2,3,5,0,9,8,10,4],"radio_events":[3732.7000000476837,4950.399999856949,6736,11356.799999952316,14380.399999856949,17440.89999985695,19251.299999952316,21867,24620.39999985695,27789.099999904633,29426.799999952316],"key_events":[],"mouse_events":[3732.7000000476837,4950.399999856949,6736,11356.799999952316,14380.399999856949,17440.89999985695,19251.299999952316,21867,24620.39999985695,27789.099999904633,29426.799999952316,30428.89999985695],"straightlining":0.45454545454545453,"zigzagging":0.6,"honeypot":0,"survey":"openness","trial_type":"survey-template","trial_index":4,"time_elapsed":108756,"internal_node_id":"0.0-4.0","experiment":"validation","task_version":"1.1","jspsych_version":"6.3.1","infrequency":0},{"value":[0,1.2857142857142856,1.1333333333333333],"trial_type":"call-function","trial_index":5,"time_elapsed":108761,"internal_node_id":"0.0-5.0","experiment":"validation","task_version":"1.1","jspsych_version":"6.3.1","interactions":"[]"}]