[{"view_history":[{"page_index":0,"viewing_time":1556.800000011921}],"rt":1557.0999999940395,"trial_type":"instructions","trial_index":0,"time_elapsed":1568,"internal_node_id":"0.0-0.0","experiment":"validation","task_version":"1.1","jspsych_version":"6.3.1"},{"rt":12374.40000000596,"responses":{"age":"23","gender-categorical":"Female","gender-free-response":"","ethnicity":"Not Hispanic or Latino","race":["White"],"education":"Bachelor degree"},"survey":"demographics","trial_type":"survey-demo","trial_index":1,"time_elapsed":13946,"internal_node_id":"0.0-1.0","experiment":"validation","task_version":"1.1","jspsych_version":"6.3.1"},{"responses":{"Q07":"2","Q04":"4","Q09":"3","Q08":"2","Q06":"4","Q01":"2","Q03":"2","Q05":"3","Q02":"2","Q10":"2","Q11":"4"},"rt":39377.30000001192,"item_order":[6,3,8,7,5,0,2,4,1,9,10],"radio_events":[13976.40000000596,16508.70000001788,19326.30000001192,20698.20000001788,23911.600000023842,27037.70000001788,29690.70000001788,31626.30000001192,32920.80000001192,35528.20000001788,37488.10000002384],"key_events":[],"mouse_events":[13976.40000000596,16508.70000001788,19326.30000001192,20698.20000001788,23911.600000023842,27037.70000001788,29690.70000001788,31626.30000001192,32920.80000001192,35528.20000001788,37488.10000002384,39374.60000002384],"straightlining":0.5454545454545454,"zigzagging":0.3,"honeypot":0,"survey":"neuroticism","trial_type":"survey-template","trial_index":2,"time_elapsed":53330,"internal_node_id":"0.0-2.0","experiment":"validation","task_version":"1.1","jspsych_version":"6.3.1","infrequency":0},{"responses":{"Q05":"3","Q02":"3","Q06":"3","Q01":"2","Q03":"2","Q07":"2","Q04":"3"},"rt":52188.5,"item_order":[4,1,5,0,2,6,3],"radio_events":[27681.40000000596,34771,36328.09999999404,39825.09999999404,41555.20000001788,45497.40000000596,51438],"key_events":[],"mouse_events":[27681.40000000596,34771,36328.09999999404,39825.09999999404,41555.20000001788,45497.40000000596,51438,52186.80000001192],"straightlining":0.42857142857142855,"zigzagging":0.3333333333333333,"honeypot":0,"survey":"nfc6","trial_type":"survey-template","trial_index":3,"time_elapsed":105524,"internal_node_id":"0.0-3.0","experiment":"validation","task_version":"1.1","jspsych_version":"6.3.1","infrequency":0},{"responses":{"Q05":"0","Q03":"4","Q07":"4","Q08":"3","Q01":"4","Q09":"4","Q06":"3","Q02":"4","Q11":"0","Q10":"4","Q04":"1"},"rt":35474.79999998212,"item_order":[4,2,6,7,0,8,5,1,10,9,3],"radio_events":[5054.0999999940395,7229.699999988079,9463.09999999404,12472.59999999404,14516.799999982119,17466.09999999404,23262.5,27068.90000000596,29447,32040.90000000596,34697.5],"key_events":[],"mouse_events":[5054.0999999940395,7229.699999988079,9463.09999999404,12472.59999999404,14516.799999982119,17466.09999999404,23262.5,24317.19999998808,27068.90000000596,29447,32040.90000000596,34697.5,35472.40000000596],"straightlining":0.36363636363636365,"zigzagging":0.5,"honeypot":0,"survey":"openness","trial_type":"survey-template","trial_index":4,"time_elapsed":141005,"internal_node_id":"0.0-4.0","experiment":"validation","task_version":"1.1","jspsych_version":"6.3.1","infrequency":0},{"value":[0,1.3376623376623376,1.1333333333333333],"trial_type":"call-function","trial_index":5,"time_elapsed":141010,"internal_node_id":"0.0-5.0","experiment":"validation","task_version":"1.1","jspsych_version":"6.3.1","interactions":"[]"}]