[{"view_history":[{"page_index":0,"viewing_time":1183.0999999642372}],"rt":1183.2999999523163,"trial_type":"instructions","trial_index":0,"time_elapsed":1194,"internal_node_id":"0.0-0.0","experiment":"validation","task_version":"1.1","jspsych_version":"6.3.1"},{"rt":9205,"responses":{"age":"27","gender-categorical":"Female","gender-free-response":"","ethnicity":"Not Hispanic or Latino","race":["White"],"education":"Master degree or higher"},"survey":"demographics","trial_type":"survey-demo","trial_index":1,"time_elapsed":10401,"internal_node_id":"0.0-1.0","experiment":"validation","task_version":"1.1","jspsych_version":"6.3.1"},{"responses":{"Q04":"0","Q10":"4","Q02":"4","Q09":"1","Q08":"2","Q01":"4","Q03":"4","Q06":"4","Q07":"4","Q05":"1","Q11":"0"},"rt":867850.1999999881,"item_order":[3,9,1,8,7,0,2,5,6,4,10],"radio_events":[848322.6000000238,850194.9000000358,851506.9000000358,854160.6000000238,855932.9000000358,857341,858586.6999999881,861397.4000000358,862406.9000000358,863543,864939.1999999881,866808.6000000238],"key_events":[],"mouse_events":[848322.6000000238,850194.9000000358,851506.9000000358,854160.6000000238,855932.9000000358,857341,858586.6999999881,860485.4000000358,860982.1999999881,861397.4000000358,862406.9000000358,863543,864939.1999999881,866808.6000000238,867848],"straightlining":0.36363636363636365,"zigzagging":0.5,"honeypot":0,"survey":"openness","trial_type":"survey-template","trial_index":2,"time_elapsed":878256,"internal_node_id":"0.0-2.0","experiment":"validation","task_version":"1.1","jspsych_version":"6.3.1","infrequency":0},{"responses":{"Q05":"4","Q06":"3","Q07":"2","Q01":"2","Q03":"3","Q04":"2","Q02":"2"},"rt":34428.700000047684,"item_order":[4,5,6,0,2,3,1],"radio_events":[5798.900000035763,10953.100000023842,13444.700000047684,17116.700000047684,20138.30000001192,25638.600000023842,28498.900000035763,31047.100000023842,33464.5],"key_events":[],"mouse_events":[3192.800000011921,5798.900000035763,10953.100000023842,13444.700000047684,17116.700000047684,19033.400000035763,19616.700000047684,20138.30000001192,25638.600000023842,27472.700000047684,27887.200000047684,28498.900000035763,31047.100000023842,33156.700000047684,33464.5,34427.10000002384],"straightlining":0.5714285714285714,"zigzagging":0.6666666666666666,"honeypot":0,"survey":"nfc6","trial_type":"survey-template","trial_index":3,"time_elapsed":912687,"internal_node_id":"0.0-3.0","experiment":"validation","task_version":"1.1","jspsych_version":"6.3.1","infrequency":0},{"responses":{"Q09":"3","Q02":"3","Q06":"3","Q01":"3","Q07":"3","Q05":"2","Q11":"4","Q04":"0","Q10":"3","Q08":"3","Q03":"2"},"rt":21076.200000047684,"item_order":[8,1,5,0,6,4,10,3,9,7,2],"radio_events":[5117.800000011921,6304.800000011921,7445.700000047684,9198.100000023842,10085.300000011921,12153.700000047684,14166,16357,17381.5,18187.80000001192,20163.5],"key_events":[],"mouse_events":[4043.800000011921,5117.800000011921,6304.800000011921,7445.700000047684,9198.100000023842,10085.300000011921,12153.700000047684,14166,15534,15966,16357,17381.5,18187.80000001192,19524.200000047684,19783.80000001192,20163.5,21074.100000023842],"straightlining":0.45454545454545453,"zigzagging":0.4,"honeypot":0,"survey":"neuroticism","trial_type":"survey-template","trial_index":4,"time_elapsed":933766,"internal_node_id":"0.0-4.0","experiment":"validation","task_version":"1.1","jspsych_version":"6.3.1","infrequency":0},{"value":[0,1.3896103896103895,1.5666666666666664],"trial_type":"call-function","trial_index":5,"time_elapsed":933768,"internal_node_id":"0.0-5.0","experiment":"validation","task_version":"1.1","jspsych_version":"6.3.1","interactions":"[{\"event\":\"blur\",\"trial\":2,\"time\":14215},{\"event\":\"focus\",\"trial\":2,\"time\":837843},{\"event\":\"blur\",\"trial\":2,\"time\":840107},{\"event\":\"focus\",\"trial\":2,\"time\":854095}]"}]