[{"view_history":[{"page_index":0,"viewing_time":4168}],"rt":4168.399999991059,"trial_type":"instructions","trial_index":0,"time_elapsed":4176,"internal_node_id":"0.0-0.0","experiment":"validation","task_version":"1.1","jspsych_version":"6.3.1"},{"rt":21015.79999999702,"responses":{"age":"51","gender-categorical":"Male","gender-free-response":"","ethnicity":"Not Hispanic or Latino","race":["White"],"education":"Bachelor degree"},"survey":"demographics","trial_type":"survey-demo","trial_index":1,"time_elapsed":25193,"internal_node_id":"0.0-1.0","experiment":"validation","task_version":"1.1","jspsych_version":"6.3.1"},{"responses":{"Q07":"1","Q06":"2","Q04":"1","Q01":"3","Q09":"3","Q03":"4","Q02":"4","Q10":"4","Q08":"4","Q05":"0","Q11":"0"},"rt":60570.5,"item_order":[6,5,3,0,8,2,1,9,7,4,10],"radio_events":[6266.0999999940395,12743.79999999702,16901.89999999106,20772.79999999702,25474.79999999702,29794.70000000298,33175.70000000298,37558.70000000298,45791.70000000298,49889.59999999404,53824.5],"key_events":[],"mouse_events":[6266.0999999940395,12743.79999999702,16901.89999999106,20772.79999999702,25474.79999999702,29794.70000000298,33175.70000000298,37558.70000000298,45791.70000000298,49889.59999999404,53824.5,60569.70000000298],"straightlining":0.2727272727272727,"zigzagging":0.5,"honeypot":0,"survey":"openness","trial_type":"survey-template","trial_index":2,"time_elapsed":85766,"internal_node_id":"0.0-2.0","experiment":"validation","task_version":"1.1","jspsych_version":"6.3.1","infrequency":0},{"responses":{"Q02":"3","Q07":"2","Q04":"3","Q01":"3","Q05":"3","Q03":"4","Q06":"4"},"rt":54212.70000000298,"item_order":[1,6,3,0,4,2,5],"radio_events":[12779.39999999106,19572.39999999106,27231.39999999106,32570.29999999702,37346.29999999702,43091.20000000298,53536.29999999702],"key_events":[],"mouse_events":[12779.39999999106,19572.39999999106,27231.39999999106,32570.29999999702,37346.29999999702,43091.20000000298,53536.29999999702,54212.20000000298],"straightlining":0.42857142857142855,"zigzagging":0.5,"honeypot":0,"survey":"nfc6","trial_type":"survey-template","trial_index":3,"time_elapsed":139980,"internal_node_id":"0.0-3.0","experiment":"validation","task_version":"1.1","jspsych_version":"6.3.1","infrequency":0},{"responses":{"Q03":"1","Q01":"1","Q04":"2","Q06":"4","Q09":"3","Q05":"0","Q02":"0","Q10":"1","Q07":"1","Q11":"4","Q08":"0"},"rt":67892.5,"item_order":[2,0,3,5,8,4,1,9,6,10,7],"radio_events":[9080.20000000298,11194.29999999702,15673.09999999404,20466.09999999404,26068.09999999404,28573.09999999404,35685,39414,58625.89999999106,63114.79999999702,66699.89999999106],"key_events":[],"mouse_events":[9080.20000000298,11194.29999999702,15673.09999999404,20466.09999999404,26068.09999999404,28573.09999999404,35685,39414,58625.89999999106,63114.79999999702,66699.89999999106,67891.89999999106],"straightlining":0.2727272727272727,"zigzagging":0.4,"honeypot":0,"survey":"neuroticism","trial_type":"survey-template","trial_index":4,"time_elapsed":207874,"internal_node_id":"0.0-4.0","experiment":"validation","task_version":"1.1","jspsych_version":"6.3.1","infrequency":0},{"value":[0,0.974025974025974,1.4],"trial_type":"call-function","trial_index":5,"time_elapsed":207875,"internal_node_id":"0.0-5.0","experiment":"validation","task_version":"1.1","jspsych_version":"6.3.1","interactions":"[]"}]