[{"view_history":[{"page_index":0,"viewing_time":3599.199999988079}],"rt":3600.899999976158,"trial_type":"instructions","trial_index":0,"time_elapsed":3629,"internal_node_id":"0.0-0.0","experiment":"validation","task_version":"1.1","jspsych_version":"6.3.1"},{"rt":13183.200000047684,"responses":{"age":"27","gender-categorical":"Male","gender-free-response":"","ethnicity":"Hispanic or Latino","race":["White"],"education":"Associate degree"},"survey":"demographics","trial_type":"survey-demo","trial_index":1,"time_elapsed":16820,"internal_node_id":"0.0-1.0","experiment":"validation","task_version":"1.1","jspsych_version":"6.3.1"},{"responses":{"Q05":"3","Q01":"3","Q03":"3","Q07":"2","Q02":"3","Q04":"3","Q06":"3"},"rt":78780.60000002384,"item_order":[4,0,2,6,1,3,5],"radio_events":[58746.69999998808,60044.30000001192,63279,65353.80000001192,69439.10000002384,72040.5,75454.5],"key_events":[],"mouse_events":[56400.40000003576,58746.69999998808,60044.30000001192,63279,65353.80000001192,69439.10000002384,72040.5,75454.5,78777],"straightlining":0.5714285714285714,"zigzagging":0.3333333333333333,"honeypot":0,"survey":"nfc6","trial_type":"survey-template","trial_index":2,"time_elapsed":95611,"internal_node_id":"0.0-2.0","experiment":"validation","task_version":"1.1","jspsych_version":"6.3.1","infrequency":0},{"responses":{"Q08":"0","Q03":"1","Q09":"1","Q06":"1","Q11":"0","Q02":"0","Q05":"1","Q10":"1","Q04":"1","Q01":"1","Q07":"1"},"rt":35706.89999997616,"item_order":[7,2,8,5,10,1,4,9,3,0,6],"radio_events":[7977.5,14330.199999988079,17418.30000001192,18512.5,19866.69999998808,21467.099999964237,23616.30000001192,25946.399999976158,29207.30000001192,31773.399999976158,34153.5],"key_events":[],"mouse_events":[7977.5,14330.199999988079,16204.300000011921,17418.30000001192,18512.5,19866.69999998808,21467.099999964237,23616.30000001192,25946.399999976158,29207.30000001192,30507,31773.399999976158,32963.30000001192,34153.5,35704.59999996424],"straightlining":0.36363636363636365,"zigzagging":0.1,"honeypot":0,"survey":"neuroticism","trial_type":"survey-template","trial_index":3,"time_elapsed":131325,"internal_node_id":"0.0-3.0","experiment":"validation","task_version":"1.1","jspsych_version":"6.3.1","infrequency":1},{"responses":{"Q07":"4","Q02":"4","Q08":"4","Q10":"4","Q05":"0","Q09":"4","Q01":"4","Q03":"4","Q11":"0","Q06":"4","Q04":"2"},"rt":30812.19999998808,"item_order":[6,1,7,9,4,8,0,2,10,5,3],"radio_events":[4334.199999988079,5772.100000023842,7819.199999988079,10918.5,12594,16008.300000011921,17846.100000023842,19200.899999976158,21934.899999976158,23808.19999998808,27495.69999998808],"key_events":[],"mouse_events":[3378.5,4334.199999988079,5772.100000023842,7819.199999988079,9928.800000011921,10918.5,12594,16008.300000011921,17846.100000023842,19200.899999976158,21934.899999976158,23808.19999998808,25963.899999976158,27495.69999998808,30808.5],"straightlining":0.5454545454545454,"zigzagging":0.6,"honeypot":0,"survey":"openness","trial_type":"survey-template","trial_index":4,"time_elapsed":162144,"internal_node_id":"0.0-4.0","experiment":"validation","task_version":"1.1","jspsych_version":"6.3.1","infrequency":0},{"value":[1,1.4805194805194803,1.0333333333333332],"trial_type":"call-function","trial_index":5,"time_elapsed":162148,"internal_node_id":"0.0-5.0","experiment":"validation","task_version":"1.1","jspsych_version":"6.3.1","interactions":"[]"}]