[{"view_history":[{"page_index":0,"viewing_time":1829.699999988079}],"rt":1829.8999999910593,"trial_type":"instructions","trial_index":0,"time_elapsed":1862,"internal_node_id":"0.0-0.0","experiment":"validation","task_version":"1.1","jspsych_version":"6.3.1"},{"rt":40939.59999999404,"responses":{"age":"34","gender-categorical":"Female","gender-free-response":"","ethnicity":"Not Hispanic or Latino","race":["Black or African American"],"education":"High school"},"survey":"demographics","trial_type":"survey-demo","trial_index":1,"time_elapsed":42805,"internal_node_id":"0.0-1.0","experiment":"validation","task_version":"1.1","jspsych_version":"6.3.1"},{"responses":{"Q04":"2","Q08":"2","Q05":"2","Q06":"2","Q10":"2","Q01":"2","Q09":"2","Q03":"2","Q11":"0","Q02":"2","Q07":"2"},"rt":62196.10000000894,"item_order":[3,7,4,5,9,0,8,2,10,1,6],"radio_events":[17722.80000001192,20802.30000001192,30610.20000000298,36178.10000000894,40098,41290.40000000596,46386.10000000894,49122.10000000894,56802,59674.10000000894,60522.20000000298],"key_events":[],"mouse_events":[17722.80000001192,20802.30000001192,30610.20000000298,36178.10000000894,40098,41290.40000000596,46386.10000000894,49122.10000000894,56802,59674.10000000894,60522.20000000298,62194.5],"straightlining":0.9090909090909091,"zigzagging":0,"honeypot":0,"survey":"openness","trial_type":"survey-template","trial_index":2,"time_elapsed":105016,"internal_node_id":"0.0-2.0","experiment":"validation","task_version":"1.1","jspsych_version":"6.3.1","infrequency":0},{"responses":{"Q02":"1","Q07":"2","Q05":"2","Q01":"2","Q06":"2","Q04":"3","Q03":"1"},"rt":59209.5,"item_order":[1,6,4,0,5,3,2],"radio_events":[13864.59999999404,15224.79999999702,31488.79999999702,33080.70000000298,39153,53209.29999999702,58352.90000000596],"key_events":[],"mouse_events":[13864.59999999404,15224.79999999702,31488.79999999702,33080.70000000298,39153,53209.29999999702,58352.90000000596,59208.70000000298],"straightlining":0.5714285714285714,"zigzagging":0.3333333333333333,"honeypot":0,"survey":"nfc6","trial_type":"survey-template","trial_index":3,"time_elapsed":164228,"internal_node_id":"0.0-3.0","experiment":"validation","task_version":"1.1","jspsych_version":"6.3.1","infrequency":0},{"responses":{"Q03":"0","Q07":"3","Q10":"0","Q02":"0","Q09":"0","Q05":"0","Q11":"0","Q06":"1","Q04":"0","Q08":"0","Q01":"0"},"rt":66318.29999999702,"item_order":[2,6,9,1,8,4,10,5,3,7,0],"radio_events":[4621,9980.5,13908.59999999404,16460.69999998808,19540.79999999702,20764.39999999106,22916.79999999702,27708.79999999702,61989.39999999106,64772.69999998808,65700.89999999106],"key_events":[],"mouse_events":[4621,9980.5,13908.59999999404,16460.69999998808,19540.79999999702,20764.39999999106,22916.79999999702,27708.79999999702,61989.39999999106,64772.69999998808,65700.89999999106,66317],"straightlining":0.5454545454545454,"zigzagging":0.6,"honeypot":0,"survey":"neuroticism","trial_type":"survey-template","trial_index":4,"time_elapsed":230549,"internal_node_id":"0.0-4.0","experiment":"validation","task_version":"1.1","jspsych_version":"6.3.1","infrequency":1},{"value":[1,2.0259740259740258,0.9333333333333333],"trial_type":"call-function","trial_index":5,"time_elapsed":230553,"internal_node_id":"0.0-5.0","experiment":"validation","task_version":"1.1","jspsych_version":"6.3.1","interactions":"[{\"event\":\"blur\",\"trial\":4,\"time\":202538},{\"event\":\"focus\",\"trial\":4,\"time\":226146}]"}]