[{"view_history":[{"page_index":0,"viewing_time":1860.5}],"rt":1861.8000001907349,"trial_type":"instructions","trial_index":0,"time_elapsed":1886,"internal_node_id":"0.0-0.0","experiment":"validation","task_version":"1.1","jspsych_version":"6.3.1"},{"rt":13170.89999961853,"responses":{"age":"25","gender-categorical":"Female","gender-free-response":"","ethnicity":"Not Hispanic or Latino","race":["White"],"education":"Some college"},"survey":"demographics","trial_type":"survey-demo","trial_index":1,"time_elapsed":15069,"internal_node_id":"0.0-1.0","experiment":"validation","task_version":"1.1","jspsych_version":"6.3.1"},{"responses":{"Q07":"4","Q02":"4","Q10":"4","Q08":"1","Q11":"0","Q04":"2","Q06":"1","Q01":"3","Q03":"4","Q05":"1","Q09":"4"},"rt":46706.89999961853,"item_order":[6,1,9,7,10,3,5,0,2,4,8],"radio_events":[8304.10000038147,10222.300000190735,12444.89999961853,14735.699999809265,17911,20712.800000190735,27150.699999809265,30335.300000190735,33070.89999961853,38109,45326.699999809265],"key_events":[],"mouse_events":[8304.10000038147,10222.300000190735,12444.89999961853,14735.699999809265,17911,20712.800000190735,27150.699999809265,30335.300000190735,33070.89999961853,38109,44239.199999809265,45326.699999809265,46697.5],"straightlining":0.36363636363636365,"zigzagging":0.5,"honeypot":0,"survey":"openness","trial_type":"survey-template","trial_index":2,"time_elapsed":61802,"internal_node_id":"0.0-2.0","experiment":"validation","task_version":"1.1","jspsych_version":"6.3.1","infrequency":0},{"responses":{"Q10":"4","Q07":"4","Q01":"4","Q08":"3","Q02":"3","Q11":"4","Q09":"4","Q05":"2","Q04":"4","Q03":"3","Q06":"4"},"rt":42080.5,"item_order":[9,6,0,7,1,10,8,4,3,2,5],"radio_events":[4625.5,6256.099999427795,8150.699999809265,10155.29999923706,12441.89999961853,14191.099999427795,17539.5,31821.5,34569.699999809265,36912.5,40646.599999427795],"key_events":[],"mouse_events":[381.5999994277954,4625.5,6256.099999427795,8150.699999809265,10155.29999923706,12441.89999961853,14191.099999427795,17539.5,29078.29999923706,31821.5,34569.699999809265,36912.5,38777.39999961853,39795.29999923706,40646.599999427795,42078.5],"straightlining":0.36363636363636365,"zigzagging":0.4,"honeypot":0,"survey":"neuroticism","trial_type":"survey-template","trial_index":3,"time_elapsed":103894,"internal_node_id":"0.0-3.0","experiment":"validation","task_version":"1.1","jspsych_version":"6.3.1","infrequency":0},{"responses":{"Q04":"2","Q06":"1","Q05":"3","Q02":"4","Q07":"2","Q01":"3","Q03":"3"},"rt":65154,"item_order":[3,5,4,1,6,0,2],"radio_events":[31073.800000190735,39578,46566.60000038147,49736.5,52226.10000038147,57571.10000038147,63907.699999809265],"key_events":[],"mouse_events":[31073.800000190735,39578,46566.60000038147,49736.5,52226.10000038147,57571.10000038147,63907.699999809265,65149],"straightlining":0.2857142857142857,"zigzagging":0.5,"honeypot":0,"survey":"nfc6","trial_type":"survey-template","trial_index":4,"time_elapsed":169054,"internal_node_id":"0.0-4.0","experiment":"validation","task_version":"1.1","jspsych_version":"6.3.1","infrequency":0},{"value":[0,1.012987012987013,1.4],"trial_type":"call-function","trial_index":5,"time_elapsed":169068,"internal_node_id":"0.0-5.0","experiment":"validation","task_version":"1.1","jspsych_version":"6.3.1","interactions":"[]"}]