[{"view_history":[{"page_index":0,"viewing_time":2537}],"rt":2537.2999999970198,"trial_type":"instructions","trial_index":0,"time_elapsed":2559,"internal_node_id":"0.0-0.0","experiment":"validation","task_version":"1.1","jspsych_version":"6.3.1"},{"rt":13066.10000000894,"responses":{"age":"34","gender-categorical":"Male","gender-free-response":"","ethnicity":"Not Hispanic or Latino","race":["White"],"education":"Bachelor degree"},"survey":"demographics","trial_type":"survey-demo","trial_index":1,"time_elapsed":15627,"internal_node_id":"0.0-1.0","experiment":"validation","task_version":"1.1","jspsych_version":"6.3.1"},{"responses":{"Q05":"0","Q07":"4","Q11":"0","Q03":"0","Q01":"4","Q10":"0","Q02":"3","Q06":"3","Q08":"3","Q09":"3","Q04":"1"},"rt":31449.29999999702,"item_order":[4,6,10,2,0,9,1,5,7,8,3],"radio_events":[3256.699999988079,5877.399999991059,7128.399999991059,10215.199999988079,11270.5,13838.29999999702,16227.39999999106,19287.5,21035.29999999702,22916.19999998808,27637.39999999106,29905.29999999702],"key_events":[],"mouse_events":[2363.5999999940395,2887.5,3256.699999988079,5240.399999991059,5877.399999991059,7128.399999991059,8878,10215.199999988079,11270.5,12660.59999999404,13132.39999999106,13838.29999999702,16227.39999999106,19287.5,21035.29999999702,22916.19999998808,25073.5,27025.5,27637.39999999106,29595.29999999702,29905.29999999702,31447.89999999106],"straightlining":0.2727272727272727,"zigzagging":0.3,"honeypot":0,"survey":"openness","trial_type":"survey-template","trial_index":2,"time_elapsed":47080,"internal_node_id":"0.0-2.0","experiment":"validation","task_version":"1.1","jspsych_version":"6.3.1","infrequency":0},{"responses":{"Q04":"3","Q02":"3","Q05":"3","Q01":"3","Q06":"3","Q07":"2","Q03":"4"},"rt":23708.29999999702,"item_order":[3,1,4,0,5,6,2],"radio_events":[3840.5999999940395,5276.0999999940395,9033.5,12608.39999999106,13269.39999999106,15809,18482.5,22274.5],"key_events":[],"mouse_events":[3840.5999999940395,5276.0999999940395,8374.59999999404,9033.5,12608.39999999106,13269.39999999106,15809,18482.5,22274.5,23707.5],"straightlining":0.5714285714285714,"zigzagging":0.16666666666666666,"honeypot":0,"survey":"nfc6","trial_type":"survey-template","trial_index":3,"time_elapsed":70790,"internal_node_id":"0.0-3.0","experiment":"validation","task_version":"1.1","jspsych_version":"6.3.1","infrequency":0},{"responses":{"Q07":"1","Q11":"4","Q01":"0","Q03":"0","Q09":"3","Q08":"1","Q05":"1","Q10":"1","Q04":"1","Q06":"3","Q02":"1"},"rt":25407.40000000596,"item_order":[6,10,0,2,8,7,4,9,3,5,1],"radio_events":[5556,6741.5,10776.09999999404,11511.20000000298,11909.20000000298,13404.20000000298,15229.09999999404,17802.20000000298,19443.20000000298,21730.29999999702,22989.09999999404,24325.09999999404],"key_events":[],"mouse_events":[3254.2000000029802,4015.2999999970198,4948.0999999940395,5556,6741.5,9235.70000000298,9992.40000000596,10776.09999999404,11511.20000000298,11909.20000000298,13404.20000000298,15229.09999999404,17802.20000000298,19443.20000000298,21309.09999999404,21730.29999999702,22989.09999999404,24325.09999999404,25406.29999999702],"straightlining":0.45454545454545453,"zigzagging":0.3,"honeypot":0,"survey":"neuroticism","trial_type":"survey-template","trial_index":4,"time_elapsed":96200,"internal_node_id":"0.0-4.0","experiment":"validation","task_version":"1.1","jspsych_version":"6.3.1","infrequency":0},{"value":[0,1.2987012987012987,0.7666666666666666],"trial_type":"call-function","trial_index":5,"time_elapsed":96201,"internal_node_id":"0.0-5.0","experiment":"validation","task_version":"1.1","jspsych_version":"6.3.1","interactions":"[]"}]