[{"view_history":[{"page_index":0,"viewing_time":7434.799999952316}],"rt":7435.399999976158,"trial_type":"instructions","trial_index":0,"time_elapsed":7440,"internal_node_id":"0.0-0.0","experiment":"validation","task_version":"1.1","jspsych_version":"6.3.1"},{"rt":17957.899999976158,"responses":{"age":"67","gender-categorical":"Female","gender-free-response":"","ethnicity":"Not Hispanic or Latino","race":["White"],"education":"Some college"},"survey":"demographics","trial_type":"survey-demo","trial_index":1,"time_elapsed":25401,"internal_node_id":"0.0-1.0","experiment":"validation","task_version":"1.1","jspsych_version":"6.3.1"},{"responses":{"Q06":"3","Q04":"4","Q01":"3","Q02":"3","Q03":"4","Q05":"3","Q07":"2"},"rt":98496.10000002384,"item_order":[5,3,0,1,2,4,6],"radio_events":[40185.700000047684,50883.800000071526,55641.700000047684,58701.40000009537,65586.20000004768,75379.60000002384,78199,82931.70000004768,89455.60000002384],"key_events":[],"mouse_events":[40185.700000047684,50883.800000071526,55641.700000047684,58701.40000009537,65586.20000004768,75379.60000002384,78199,82931.70000004768,89455.60000002384,98495.20000004768],"straightlining":0.5714285714285714,"zigzagging":0.16666666666666666,"honeypot":0,"survey":"nfc6","trial_type":"survey-template","trial_index":2,"time_elapsed":123904,"internal_node_id":"0.0-2.0","experiment":"validation","task_version":"1.1","jspsych_version":"6.3.1","infrequency":0},{"responses":{"Q04":"0","Q02":"0","Q06":"1","Q05":"0","Q08":"0","Q09":"0","Q01":"0","Q11":"4","Q07":"4","Q03":"0","Q10":"0"},"rt":45219.700000047684,"item_order":[3,1,5,4,7,8,0,10,6,2,9],"radio_events":[14128.5,15446.5,25190.200000047684,27942.100000023842,29436.399999976158,31140.600000023842,36276.5,38190,40166.5,42142.39999997616,44372.39999997616],"key_events":[],"mouse_events":[14128.5,15446.5,25190.200000047684,27942.100000023842,29436.399999976158,31140.600000023842,36276.5,38190,40166.5,41420.60000002384,42142.39999997616,44372.39999997616,45218.60000002384],"straightlining":0.5454545454545454,"zigzagging":0.5,"honeypot":0,"survey":"neuroticism","trial_type":"survey-template","trial_index":3,"time_elapsed":169128,"internal_node_id":"0.0-3.0","experiment":"validation","task_version":"1.1","jspsych_version":"6.3.1","infrequency":0},{"responses":{"Q09":"4","Q01":"4","Q02":"4","Q08":"4","Q04":"0","Q03":"2","Q07":"4","Q05":"0","Q11":"0","Q10":"2","Q06":"4"},"rt":43816.89999997616,"item_order":[8,0,1,7,3,2,6,4,10,9,5],"radio_events":[10593.399999976158,12507.300000071526,14265.300000071526,17961.399999976158,20609.100000023842,24607.100000023842,29629.399999976158,31875.399999976158,36981.39999997616,39103.60000002384,41561.300000071526],"key_events":[],"mouse_events":[10593.399999976158,12507.300000071526,14265.300000071526,17961.399999976158,20609.100000023842,24607.100000023842,29629.399999976158,31875.399999976158,36981.39999997616,39103.60000002384,41561.300000071526,43815.10000002384],"straightlining":0.45454545454545453,"zigzagging":0.5,"honeypot":0,"survey":"openness","trial_type":"survey-template","trial_index":4,"time_elapsed":212949,"internal_node_id":"0.0-4.0","experiment":"validation","task_version":"1.1","jspsych_version":"6.3.1","infrequency":0},{"value":[0,1.5714285714285714,1.1666666666666665],"trial_type":"call-function","trial_index":5,"time_elapsed":212951,"internal_node_id":"0.0-5.0","experiment":"validation","task_version":"1.1","jspsych_version":"6.3.1","interactions":"[]"}]