[{"view_history":[{"page_index":0,"viewing_time":2091.3999996185303}],"rt":2091.5999999046326,"trial_type":"instructions","trial_index":0,"time_elapsed":2111,"internal_node_id":"0.0-0.0","experiment":"validation","task_version":"1.1","jspsych_version":"6.3.1"},{"rt":8956,"responses":{"age":"41","gender-categorical":"Male","gender-free-response":"","ethnicity":"Not Hispanic or Latino","race":["White"],"education":"Bachelor degree"},"survey":"demographics","trial_type":"survey-demo","trial_index":1,"time_elapsed":11068,"internal_node_id":"0.0-1.0","experiment":"validation","task_version":"1.1","jspsych_version":"6.3.1"},{"responses":{"Q04":"3","Q07":"4","Q01":"4","Q09":"4","Q11":"4","Q05":"1","Q02":"4","Q06":"3","Q10":"4","Q03":"3","Q08":"3"},"rt":26876.199999809265,"item_order":[3,6,0,8,10,4,1,5,9,2,7],"radio_events":[5686.299999713898,7618.299999713898,9402.199999809265,12865.299999713898,14141.39999961853,15838.299999713898,17540.199999809265,19387.299999713898,21656.199999809265,24812.299999713898,26235.199999809265],"key_events":[],"mouse_events":[4902.199999809265,5686.299999713898,6671.299999713898,7618.299999713898,9402.199999809265,12865.299999713898,14141.39999961853,15838.299999713898,17540.199999809265,19387.299999713898,21656.199999809265,24812.299999713898,26235.199999809265,26875.299999713898],"straightlining":0.2727272727272727,"zigzagging":0.4,"honeypot":0,"survey":"neuroticism","trial_type":"survey-template","trial_index":2,"time_elapsed":37947,"internal_node_id":"0.0-2.0","experiment":"validation","task_version":"1.1","jspsych_version":"6.3.1","infrequency":0},{"responses":{"Q05":"0","Q08":"4","Q11":"0","Q04":"3","Q09":"1","Q07":"2","Q10":"4","Q02":"4","Q06":"4","Q03":"4","Q01":"2"},"rt":21891.900000095367,"item_order":[4,7,10,3,8,6,9,1,5,2,0],"radio_events":[2038.0999999046326,3413,6500,8149.099999904633,10173.099999904633,13290.199999809265,15220.099999904633,16639,18053,19408.199999809265,20999],"key_events":[],"mouse_events":[2038.0999999046326,3413,4460.099999904633,6009,6500,8149.099999904633,10173.099999904633,13290.199999809265,15220.099999904633,16639,18053,19408.199999809265,20999,21891.099999904633],"straightlining":0.36363636363636365,"zigzagging":0.6,"honeypot":0,"survey":"openness","trial_type":"survey-template","trial_index":3,"time_elapsed":59841,"internal_node_id":"0.0-3.0","experiment":"validation","task_version":"1.1","jspsych_version":"6.3.1","infrequency":0},{"responses":{"Q03":"4","Q02":"4","Q01":"4","Q07":"2","Q04":"4","Q06":"4","Q05":"3"},"rt":17720.900000095367,"item_order":[2,1,0,6,3,5,4],"radio_events":[2183.5,5882.5,7171.400000095367,8496.400000095367,13438.5,16449.400000095367,17161.400000095367],"key_events":[],"mouse_events":[2183.5,5882.5,7171.400000095367,8496.400000095367,13438.5,15099.400000095367,16449.400000095367,17161.400000095367,17720.400000095367],"straightlining":0.42857142857142855,"zigzagging":0.5,"honeypot":0,"survey":"nfc6","trial_type":"survey-template","trial_index":4,"time_elapsed":77563,"internal_node_id":"0.0-4.0","experiment":"validation","task_version":"1.1","jspsych_version":"6.3.1","infrequency":0},{"value":[0,1.0649350649350648,1.5],"trial_type":"call-function","trial_index":5,"time_elapsed":77565,"internal_node_id":"0.0-5.0","experiment":"validation","task_version":"1.1","jspsych_version":"6.3.1","interactions":"[]"}]