[{"view_history":[{"page_index":0,"viewing_time":52301.90000000596}],"rt":52306,"trial_type":"instructions","trial_index":0,"time_elapsed":52391,"internal_node_id":"0.0-0.0","experiment":"validation","task_version":"1.1","jspsych_version":"6.3.1"},{"rt":79002.5,"responses":{"age":"30","gender-categorical":"Male","gender-free-response":"","ethnicity":"Hispanic or Latino","race":["White"],"education":"Bachelor degree"},"survey":"demographics","trial_type":"survey-demo","trial_index":1,"time_elapsed":131408,"internal_node_id":"0.0-1.0","experiment":"validation","task_version":"1.1","jspsych_version":"6.3.1"},{"responses":{"Q10":"1","Q06":"1","Q02":"1","Q05":"1","Q04":"1","Q11":"0","Q07":"2","Q01":"2","Q09":"3","Q08":"2","Q03":"2"},"rt":116133.20000000298,"item_order":[9,5,1,4,3,10,6,0,8,7,2],"radio_events":[38167.90000000596,42003.80000001192,50203.20000000298,60742.30000001192,65065.60000000894,100101.60000000894,101631.40000000596,103700.60000000894,106172.40000000596,110346.10000000894,112331,113747.60000000894,115032.90000000596],"key_events":[],"mouse_events":[38167.90000000596,42003.80000001192,50203.20000000298,59861.60000000894,60742.30000001192,65065.60000000894,67110.5,98963.70000000298,100101.60000000894,101631.40000000596,103700.60000000894,106172.40000000596,107066.10000000894,108755.40000000596,110346.10000000894,112331,113747.60000000894,115032.90000000596,116123.20000000298],"straightlining":0.36363636363636365,"zigzagging":0.3,"honeypot":0,"survey":"neuroticism","trial_type":"survey-template","trial_index":2,"time_elapsed":247567,"internal_node_id":"0.0-2.0","experiment":"validation","task_version":"1.1","jspsych_version":"6.3.1","infrequency":1},{"responses":{"Q05":"2","Q04":"3","Q07":"2","Q01":"2","Q02":"3","Q03":"3","Q06":"2"},"rt":232493.29999999702,"item_order":[4,3,6,0,1,2,5],"radio_events":[175159.20000000298,186933.90000000596,191066.20000000298,193103.29999999702,208523.5,210187.90000000596,217476,220431.79999999702,231263.40000000596],"key_events":[],"mouse_events":[173837.29999999702,175159.20000000298,186933.90000000596,191066.20000000298,193103.29999999702,208523.5,210187.90000000596,217476,220431.79999999702,231263.40000000596,232487.90000000596],"straightlining":0.5714285714285714,"zigzagging":0.6666666666666666,"honeypot":0,"survey":"nfc6","trial_type":"survey-template","trial_index":3,"time_elapsed":480078,"internal_node_id":"0.0-3.0","experiment":"validation","task_version":"1.1","jspsych_version":"6.3.1","infrequency":0},{"responses":{"Q08":"2","Q11":"1","Q02":"3","Q06":"3","Q04":"1","Q10":"1","Q01":"3","Q05":"1","Q09":"1","Q03":"3","Q07":"3"},"rt":262703,"item_order":[7,10,1,5,3,9,0,4,8,2,6],"radio_events":[11168.70000000298,42363.79999999702,51718.60000000894,116507.90000000596,137021.40000000596,140275.70000000298,248588.29999999702,253796.60000000894,255399.79999999702,258605.5,259596.90000000596,261432.5],"key_events":[],"mouse_events":[11168.70000000298,42363.79999999702,51718.60000000894,116507.90000000596,137021.40000000596,140275.70000000298,239908.79999999702,247230.60000000894,248588.29999999702,253796.60000000894,255399.79999999702,256391.40000000596,258605.5,259596.90000000596,261432.5,262693.60000000894],"straightlining":0.6363636363636364,"zigzagging":0.1,"honeypot":0,"survey":"openness","trial_type":"survey-template","trial_index":4,"time_elapsed":742799,"internal_node_id":"0.0-4.0","experiment":"validation","task_version":"1.1","jspsych_version":"6.3.1","infrequency":0},{"value":[1,1.5714285714285714,1.0666666666666667],"trial_type":"call-function","trial_index":5,"time_elapsed":742809,"internal_node_id":"0.0-5.0","experiment":"validation","task_version":"1.1","jspsych_version":"6.3.1","interactions":"[{\"event\":\"blur\",\"trial\":3,\"time\":256762},{\"event\":\"focus\",\"trial\":3,\"time\":355418}]"}]