[{"view_history":[{"page_index":0,"viewing_time":4526.0999999940395}],"rt":4526.9000000059605,"trial_type":"instructions","trial_index":0,"time_elapsed":4534,"internal_node_id":"0.0-0.0","experiment":"validation","task_version":"1.1","jspsych_version":"6.3.1"},{"rt":9554.699999988079,"responses":{"age":"46","gender-categorical":"Male","gender-free-response":"","ethnicity":"Not Hispanic or Latino","race":["White"],"education":"Some college"},"survey":"demographics","trial_type":"survey-demo","trial_index":1,"time_elapsed":14091,"internal_node_id":"0.0-1.0","experiment":"validation","task_version":"1.1","jspsych_version":"6.3.1"},{"responses":{"Q09":"1","Q01":"4","Q10":"4","Q08":"4","Q11":"4","Q06":"3","Q02":"4","Q03":"4","Q04":"3","Q05":"0","Q07":"4"},"rt":32089.90000000596,"item_order":[8,0,9,7,10,5,1,2,3,4,6],"radio_events":[5227.699999988079,8134.199999988079,11352.699999988079,14410.199999988079,16032.300000011921,20323,22499.09999999404,24261.90000000596,27541.5,30073.69999998808,31008.09999999404],"key_events":[],"mouse_events":[5227.699999988079,7035.5,8134.199999988079,10120.199999988079,11352.699999988079,12664.40000000596,14410.199999988079,16032.300000011921,20323,22499.09999999404,24261.90000000596,25941.5,27541.5,30073.69999998808,31008.09999999404,32088.09999999404],"straightlining":0.36363636363636365,"zigzagging":0.4,"honeypot":0,"survey":"neuroticism","trial_type":"survey-template","trial_index":2,"time_elapsed":46186,"internal_node_id":"0.0-2.0","experiment":"validation","task_version":"1.1","jspsych_version":"6.3.1","infrequency":0},{"responses":{"Q02":"1","Q05":"1","Q01":"1","Q04":"1","Q06":"1","Q03":"1","Q07":"2"},"rt":38093.30000001192,"item_order":[1,4,0,3,5,2,6],"radio_events":[10141.09999999404,17189.69999998808,20548.09999999404,24110.59999999404,30045.09999999404,33315.5,36957.80000001192],"key_events":[],"mouse_events":[8502.90000000596,10141.09999999404,15427.800000011921,17189.69999998808,20548.09999999404,24110.59999999404,30045.09999999404,33315.5,36241.90000000596,36957.80000001192,38092.19999998808],"straightlining":0.5714285714285714,"zigzagging":0.16666666666666666,"honeypot":0,"survey":"nfc6","trial_type":"survey-template","trial_index":3,"time_elapsed":84284,"internal_node_id":"0.0-3.0","experiment":"validation","task_version":"1.1","jspsych_version":"6.3.1","infrequency":0},{"responses":{"Q05":"1","Q11":"0","Q07":"1","Q10":"2","Q03":"2","Q06":"1","Q09":"1","Q01":"1","Q04":"3","Q02":"3","Q08":"0"},"rt":38633.40000000596,"item_order":[4,10,6,9,2,5,8,0,3,1,7],"radio_events":[10402,12568.300000011921,16208.700000017881,17580.90000000596,18772.90000000596,22497.20000001788,25933.59999999404,27925.70000001788,33850.20000001788,35400.5,37716.80000001192],"key_events":[],"mouse_events":[7883.5999999940395,10402,12568.300000011921,14138.5,15534.40000000596,16208.700000017881,17580.90000000596,18772.90000000596,22497.20000001788,24925.30000001192,25933.59999999404,27925.70000001788,31956.09999999404,33850.20000001788,35400.5,37716.80000001192,38631.5],"straightlining":0.45454545454545453,"zigzagging":0.3,"honeypot":0,"survey":"openness","trial_type":"survey-template","trial_index":4,"time_elapsed":122921,"internal_node_id":"0.0-4.0","experiment":"validation","task_version":"1.1","jspsych_version":"6.3.1","infrequency":0},{"value":[0,1.3896103896103895,0.8666666666666667],"trial_type":"call-function","trial_index":5,"time_elapsed":122923,"internal_node_id":"0.0-5.0","experiment":"validation","task_version":"1.1","jspsych_version":"6.3.1","interactions":"[]"}]