[{"success":true,"timeout":false,"failed_images":[],"failed_audio":[],"failed_video":[],"trial_type":"preload","trial_index":0,"time_elapsed":5320,"internal_node_id":"0.0-0.0","experiment":"validation","task_version":"1.1","jspsych_version":"6.3.1"},{"success":true,"trial_type":"fullscreen","trial_index":1,"time_elapsed":11212,"internal_node_id":"0.0-1.0","experiment":"validation","task_version":"1.1","jspsych_version":"6.3.1"},{"view_history":[{"page_index":0,"viewing_time":4865},{"page_index":1,"viewing_time":23741},{"page_index":2,"viewing_time":12767},{"page_index":3,"viewing_time":4827}],"rt":46201.00000000001,"trial_type":"instructions","trial_index":2,"time_elapsed":57417,"internal_node_id":"0.0-3.0","experiment":"validation","task_version":"1.1","jspsych_version":"6.3.1"},{"item":5,"shape_set":1,"distractor":"pd","choice_order":[1,0,2,3],"correct":0,"choice":0,"accuracy":1,"rt":3421,"screen_resolution":[1194,834],"minimum_resolution":1,"all_loaded":true,"item_set":"practice","trial_type":"mars","trial_index":3,"time_elapsed":61598,"internal_node_id":"0.0-4.0-0.0","experiment":"validation","task_version":"1.1","jspsych_version":"6.3.1"},{"item":2,"shape_set":1,"distractor":"pd","choice_order":[3,1,2,0],"correct":0,"choice":0,"accuracy":1,"rt":5204.000000000015,"screen_resolution":[1194,834],"minimum_resolution":1,"all_loaded":true,"item_set":"practice","trial_type":"mars","trial_index":4,"time_elapsed":67565,"internal_node_id":"0.0-5.0-0.0","experiment":"validation","task_version":"1.1","jspsych_version":"6.3.1"},{"item":8,"shape_set":1,"distractor":"pd","choice_order":[1,3,2,0],"correct":0,"choice":0,"accuracy":1,"rt":5288.999999999985,"screen_resolution":[1194,834],"minimum_resolution":1,"all_loaded":true,"item_set":"practice","trial_type":"mars","trial_index":5,"time_elapsed":73615,"internal_node_id":"0.0-6.0-0.0","experiment":"validation","task_version":"1.1","jspsych_version":"6.3.1"},{"view_history":[{"page_index":0,"viewing_time":5210.000000000015},{"page_index":1,"viewing_time":20158.999999999985}],"rt":25369,"trial_type":"instructions","trial_index":6,"time_elapsed":98993,"internal_node_id":"0.0-7.0","experiment":"validation","task_version":"1.1","jspsych_version":"6.3.1"},{"rt":null,"stimulus":"<div style=\"font-size:24px;\">Loading puzzle:<br>1 / 12</div>","response":null,"trial_type":"html-keyboard-response","trial_index":7,"time_elapsed":100198,"internal_node_id":"0.0-8.0-1.0","experiment":"validation","task_version":"1.1","jspsych_version":"6.3.1"},{"item":71,"shape_set":1,"distractor":"pd","choice_order":[2,3,0,1],"correct":0,"choice":0,"accuracy":1,"rt":7634,"screen_resolution":[1194,834],"minimum_resolution":1,"all_loaded":true,"item_set":3,"trial_type":"mars","trial_index":8,"time_elapsed":107839,"internal_node_id":"0.0-8.0-2.0","experiment":"validation","task_version":"1.1","jspsych_version":"6.3.1","browser_interactions":0},{"rt":null,"stimulus":"<div style=\"font-size:24px;\">Loading puzzle:<br>2 / 12</div>","response":null,"trial_type":"html-keyboard-response","trial_index":9,"time_elapsed":109046,"internal_node_id":"0.0-9.0-1.0","experiment":"validation","task_version":"1.1","jspsych_version":"6.3.1"},{"item":55,"shape_set":2,"distractor":"pd","choice_order":[1,2,3,0],"correct":0,"choice":0,"accuracy":1,"rt":9347,"screen_resolution":[1194,834],"minimum_resolution":1,"all_loaded":true,"item_set":3,"trial_type":"mars","trial_index":10,"time_elapsed":118400,"internal_node_id":"0.0-9.0-2.0","experiment":"validation","task_version":"1.1","jspsych_version":"6.3.1","browser_interactions":0},{"rt":null,"stimulus":"<div style=\"font-size:24px;\">Loading puzzle:<br>3 / 12</div>","response":null,"trial_type":"html-keyboard-response","trial_index":11,"time_elapsed":119607,"internal_node_id":"0.0-10.0-1.0","experiment":"validation","task_version":"1.1","jspsych_version":"6.3.1"},{"item":30,"shape_set":3,"distractor":"pd","choice_order":[0,1,2,3],"correct":0,"choice":0,"accuracy":1,"rt":9717,"screen_resolution":[1194,834],"minimum_resolution":1,"all_loaded":true,"item_set":3,"trial_type":"mars","trial_index":12,"time_elapsed":129330,"internal_node_id":"0.0-10.0-2.0","experiment":"validation","task_version":"1.1","jspsych_version":"6.3.1","browser_interactions":0},{"rt":null,"stimulus":"<div style=\"font-size:24px;\">Loading puzzle:<br>4 / 12</div>","response":null,"trial_type":"html-keyboard-response","trial_index":13,"time_elapsed":130536,"internal_node_id":"0.0-11.0-1.0","experiment":"validation","task_version":"1.1","jspsych_version":"6.3.1"},{"item":45,"shape_set":1,"distractor":"pd","choice_order":[2,1,3,0],"correct":0,"choice":0,"accuracy":1,"rt":7774,"screen_resolution":[1194,834],"minimum_resolution":1,"all_loaded":true,"item_set":3,"trial_type":"mars","trial_index":14,"time_elapsed":138317,"internal_node_id":"0.0-11.0-2.0","experiment":"validation","task_version":"1.1","jspsych_version":"6.3.1","browser_interactions":0},{"rt":null,"stimulus":"<div style=\"font-size:24px;\">Loading puzzle:<br>5 / 12</div>","response":null,"trial_type":"html-keyboard-response","trial_index":15,"time_elapsed":139524,"internal_node_id":"0.0-12.0-1.0","experiment":"validation","task_version":"1.1","jspsych_version":"6.3.1"},{"item":11,"shape_set":2,"distractor":"pd","choice_order":[3,1,0,2],"correct":0,"choice":3,"accuracy":0,"rt":14669.99999999997,"screen_resolution":[1194,834],"minimum_resolution":1,"all_loaded":true,"item_set":3,"trial_type":"mars","trial_index":16,"time_elapsed":154201,"internal_node_id":"0.0-12.0-2.0","experiment":"validation","task_version":"1.1","jspsych_version":"6.3.1","browser_interactions":0},{"rt":null,"stimulus":"<div style=\"font-size:24px;\">Loading puzzle:<br>6 / 12</div>","response":null,"trial_type":"html-keyboard-response","trial_index":17,"time_elapsed":155408,"internal_node_id":"0.0-13.0-1.0","experiment":"validation","task_version":"1.1","jspsych_version":"6.3.1"},{"item":29,"shape_set":3,"distractor":"pd","choice_order":[0,3,1,2],"correct":0,"choice":0,"accuracy":1,"rt":11940,"screen_resolution":[1194,834],"minimum_resolution":1,"all_loaded":true,"item_set":3,"trial_type":"mars","trial_index":18,"time_elapsed":167355,"internal_node_id":"0.0-13.0-2.0","experiment":"validation","task_version":"1.1","jspsych_version":"6.3.1","browser_interactions":0},{"rt":null,"stimulus":"<div style=\"font-size:24px;\">Loading puzzle:<br>7 / 12</div>","response":null,"trial_type":"html-keyboard-response","trial_index":19,"time_elapsed":168562,"internal_node_id":"0.0-14.0-1.0","experiment":"validation","task_version":"1.1","jspsych_version":"6.3.1"},{"item":16,"shape_set":1,"distractor":"md","choice_order":[0,2,1,3],"correct":0,"choice":0,"accuracy":1,"rt":10333,"screen_resolution":[1194,834],"minimum_resolution":1,"all_loaded":true,"item_set":3,"trial_type":"mars","trial_index":20,"time_elapsed":178902,"internal_node_id":"0.0-14.0-2.0","experiment":"validation","task_version":"1.1","jspsych_version":"6.3.1","browser_interactions":0},{"rt":null,"stimulus":"<div style=\"font-size:24px;\">Loading puzzle:<br>8 / 12</div>","response":null,"trial_type":"html-keyboard-response","trial_index":21,"time_elapsed":180109,"internal_node_id":"0.0-15.0-1.0","experiment":"validation","task_version":"1.1","jspsych_version":"6.3.1"},{"item":17,"shape_set":2,"distractor":"pd","choice_order":[1,0,2,3],"correct":0,"choice":0,"accuracy":1,"rt":20144,"screen_resolution":[1194,834],"minimum_resolution":1,"all_loaded":true,"item_set":3,"trial_type":"mars","trial_index":22,"time_elapsed":200259,"internal_node_id":"0.0-15.0-2.0","experiment":"validation","task_version":"1.1","jspsych_version":"6.3.1","browser_interactions":0},{"rt":null,"stimulus":"<div style=\"font-size:24px;\">Loading puzzle:<br>9 / 12</div>","response":null,"trial_type":"html-keyboard-response","trial_index":23,"time_elapsed":201468,"internal_node_id":"0.0-16.0-1.0","experiment":"validation","task_version":"1.1","jspsych_version":"6.3.1"},{"item":23,"shape_set":3,"distractor":"md","choice_order":[3,0,1,2],"correct":0,"choice":3,"accuracy":0,"rt":14943.00000000003,"screen_resolution":[1194,834],"minimum_resolution":1,"all_loaded":true,"item_set":3,"trial_type":"mars","trial_index":24,"time_elapsed":216419,"internal_node_id":"0.0-16.0-2.0","experiment":"validation","task_version":"1.1","jspsych_version":"6.3.1","browser_interactions":0},{"rt":null,"stimulus":"<div style=\"font-size:24px;\">Loading puzzle:<br>10 / 12</div>","response":null,"trial_type":"html-keyboard-response","trial_index":25,"time_elapsed":217626,"internal_node_id":"0.0-17.0-1.0","experiment":"validation","task_version":"1.1","jspsych_version":"6.3.1"},{"item":58,"shape_set":1,"distractor":"md","choice_order":[2,1,3,0],"correct":0,"choice":0,"accuracy":1,"rt":13306,"screen_resolution":[1194,834],"minimum_resolution":1,"all_loaded":true,"item_set":3,"trial_type":"mars","trial_index":26,"time_elapsed":230940,"internal_node_id":"0.0-17.0-2.0","experiment":"validation","task_version":"1.1","jspsych_version":"6.3.1","browser_interactions":0},{"rt":null,"stimulus":"<div style=\"font-size:24px;\">Loading puzzle:<br>11 / 12</div>","response":null,"trial_type":"html-keyboard-response","trial_index":27,"time_elapsed":232146,"internal_node_id":"0.0-18.0-1.0","experiment":"validation","task_version":"1.1","jspsych_version":"6.3.1"},{"item":35,"shape_set":2,"distractor":"pd","choice_order":[0,3,1,2],"correct":0,"choice":0,"accuracy":1,"rt":22722,"screen_resolution":[1194,834],"minimum_resolution":1,"all_loaded":true,"item_set":3,"trial_type":"mars","trial_index":28,"time_elapsed":254875,"internal_node_id":"0.0-18.0-2.0","experiment":"validation","task_version":"1.1","jspsych_version":"6.3.1","browser_interactions":0},{"rt":null,"stimulus":"<div style=\"font-size:24px;\">Loading puzzle:<br>12 / 12</div>","response":null,"trial_type":"html-keyboard-response","trial_index":29,"time_elapsed":256082,"internal_node_id":"0.0-19.0-1.0","experiment":"validation","task_version":"1.1","jspsych_version":"6.3.1"},{"item":76,"shape_set":3,"distractor":"pd","choice_order":[2,3,0,1],"correct":0,"choice":0,"accuracy":1,"rt":17426.99999999997,"screen_resolution":[1194,834],"minimum_resolution":1,"all_loaded":true,"item_set":3,"trial_type":"mars","trial_index":30,"time_elapsed":273515,"internal_node_id":"0.0-19.0-2.0","experiment":"validation","task_version":"1.1","jspsych_version":"6.3.1","browser_interactions":0},{"value":[0,0,0],"trial_type":"call-function","trial_index":31,"time_elapsed":273521,"internal_node_id":"0.0-20.0","experiment":"validation","task_version":"1.1","jspsych_version":"6.3.1"},{"view_history":[{"page_index":0,"viewing_time":6094.000000000058}],"rt":6094.000000000058,"trial_type":"instructions","trial_index":32,"time_elapsed":279617,"internal_node_id":"0.0-21.0","experiment":"validation","task_version":"1.1","jspsych_version":"6.3.1","interactions":"[{\"event\":\"blur\",\"trial\":1,\"time\":10246},{\"event\":\"focus\",\"trial\":1,\"time\":10248},{\"event\":\"blur\",\"trial\":1,\"time\":10250},{\"event\":\"fullscreenenter\",\"trial\":1,\"time\":10263},{\"event\":\"focus\",\"trial\":1,\"time\":10478}]"}]