[{"view_history":[{"page_index":0,"viewing_time":9619.29999999702}],"rt":9620.09999999404,"trial_type":"instructions","trial_index":0,"time_elapsed":9632,"internal_node_id":"0.0-0.0","experiment":"validation","task_version":"1.1","jspsych_version":"6.3.1"},{"rt":11535.60000000894,"responses":{"age":"49","gender-categorical":"Female","gender-free-response":"","ethnicity":"Not Hispanic or Latino","race":["White"],"education":"Some college"},"survey":"demographics","trial_type":"survey-demo","trial_index":1,"time_elapsed":21170,"internal_node_id":"0.0-1.0","experiment":"validation","task_version":"1.1","jspsych_version":"6.3.1"},{"responses":{"Q07":"1","Q10":"4","Q02":"0","Q11":"0","Q08":"0","Q06":"4","Q09":"3","Q03":"4","Q05":"0","Q01":"4","Q04":"0"},"rt":39652.10000000894,"item_order":[6,9,1,10,7,5,8,2,4,0,3],"radio_events":[5592.5,8036.79999999702,9254,11416.10000000894,13124.20000000298,15584.29999999702,18604.20000000298,21102.20000000298,22704.10000000894,26146.40000000596,29596.10000000894,30790.40000000596,39144.10000000894],"key_events":[],"mouse_events":[5592.5,8036.79999999702,9254,11416.10000000894,13124.20000000298,15584.29999999702,18604.20000000298,21102.20000000298,22704.10000000894,26146.40000000596,29596.10000000894,30790.40000000596,39144.10000000894,39650.5],"straightlining":0.45454545454545453,"zigzagging":0.3,"honeypot":0,"survey":"openness","trial_type":"survey-template","trial_index":2,"time_elapsed":60826,"internal_node_id":"0.0-2.0","experiment":"validation","task_version":"1.1","jspsych_version":"6.3.1","infrequency":0},{"responses":{"Q01":"0","Q05":"3","Q06":"0","Q07":"2","Q04":"1","Q02":"0","Q03":"4"},"rt":40151.39999999106,"item_order":[0,4,5,6,3,1,2],"radio_events":[3834.3999999910593,8730.89999999106,12468.89999999106,14467.70000000298,18268.20000000298,20602.59999999404,26848.79999999702,33944.59999999404,38074.79999999702],"key_events":[],"mouse_events":[3834.3999999910593,8730.89999999106,12468.89999999106,14467.70000000298,18268.20000000298,19901.59999999404,20602.59999999404,26848.79999999702,32931,33944.59999999404,38074.79999999702,40150.70000000298],"straightlining":0.5714285714285714,"zigzagging":0.16666666666666666,"honeypot":0,"survey":"nfc6","trial_type":"survey-template","trial_index":3,"time_elapsed":100980,"internal_node_id":"0.0-3.0","experiment":"validation","task_version":"1.1","jspsych_version":"6.3.1","infrequency":0},{"responses":{"Q05":"4","Q04":"2","Q08":"3","Q06":"3","Q02":"4","Q11":"0","Q01":"4","Q10":"4","Q03":"4","Q07":"4","Q09":"4"},"rt":27551.80000001192,"item_order":[4,3,7,5,1,10,0,9,2,6,8],"radio_events":[5600.5,7770.300000011921,9518.20000000298,12282.300000011921,15146.60000000894,17348.20000000298,19198.20000000298,21156.5,22952.40000000596,25254.40000000596,26738.20000000298],"key_events":[],"mouse_events":[5600.5,7770.300000011921,9518.20000000298,12282.300000011921,15146.60000000894,17348.20000000298,19198.20000000298,21156.5,22952.40000000596,25254.40000000596,26738.20000000298,27550.30000001192],"straightlining":0.36363636363636365,"zigzagging":0.6,"honeypot":0,"survey":"neuroticism","trial_type":"survey-template","trial_index":4,"time_elapsed":128536,"internal_node_id":"0.0-4.0","experiment":"validation","task_version":"1.1","jspsych_version":"6.3.1","infrequency":1},{"value":[1,1.3896103896103895,1.0666666666666667],"trial_type":"call-function","trial_index":5,"time_elapsed":128538,"internal_node_id":"0.0-5.0","experiment":"validation","task_version":"1.1","jspsych_version":"6.3.1","interactions":"[]"}]