[{"view_history":[{"page_index":0,"viewing_time":1234.3000000044703}],"rt":1234.7000000029802,"trial_type":"instructions","trial_index":0,"time_elapsed":1251,"internal_node_id":"0.0-0.0","experiment":"validation","task_version":"1.1","jspsych_version":"6.3.1"},{"rt":36812.70000000298,"responses":{"age":"34","gender-categorical":"Female","gender-free-response":"","ethnicity":"Not Hispanic or Latino","race":["White"],"education":"Master degree or higher"},"survey":"demographics","trial_type":"survey-demo","trial_index":1,"time_elapsed":38068,"internal_node_id":"0.0-1.0","experiment":"validation","task_version":"1.1","jspsych_version":"6.3.1"},{"responses":{"Q04":"1","Q02":"4","Q05":"0","Q07":"1","Q06":"3","Q01":"4","Q03":"4","Q09":"2","Q10":"4","Q08":"4","Q11":"0"},"rt":21825.19999999553,"item_order":[3,1,4,6,5,0,2,8,9,7,10],"radio_events":[3611.1999999955297,6405.79999999702,6895.89999999851,11077,12303.60000000149,13118.5,15557.89999999851,16927.60000000149,18138.79999999702,18868,20783.29999999702],"key_events":[],"mouse_events":[3611.1999999955297,6405.79999999702,6895.89999999851,7752.10000000149,9294.89999999851,10237.29999999702,11077,11804.29999999702,12303.60000000149,13118.5,14829.29999999702,15557.89999999851,16927.60000000149,18138.79999999702,18868,20179.69999999553,20783.29999999702,21820.39999999851],"straightlining":0.36363636363636365,"zigzagging":0.2,"honeypot":0,"survey":"openness","trial_type":"survey-template","trial_index":2,"time_elapsed":59905,"internal_node_id":"0.0-2.0","experiment":"validation","task_version":"1.1","jspsych_version":"6.3.1","infrequency":0},{"responses":{"Q02":"1","Q01":"1","Q04":"1","Q07":"2","Q03":"3","Q06":"3","Q05":"2"},"rt":70190.89999999851,"item_order":[1,0,3,6,2,5,4],"radio_events":[57531.89999999851,58585.79999999702,62605.89999999851,63278.5,64506.29999999702,68431.09999999404,69439],"key_events":[],"mouse_events":[57531.89999999851,58585.79999999702,60382.5,62605.89999999851,63278.5,64506.29999999702,67080.79999999702,68431.09999999404,69040.5,69439,70189.59999999404],"straightlining":0.42857142857142855,"zigzagging":0.5,"honeypot":0,"survey":"nfc6","trial_type":"survey-template","trial_index":3,"time_elapsed":130102,"internal_node_id":"0.0-3.0","experiment":"validation","task_version":"1.1","jspsych_version":"6.3.1","infrequency":0},{"responses":{"Q03":"0","Q04":"0","Q07":"4","Q11":"4","Q02":"1","Q10":"1","Q01":"0","Q08":"2","Q05":"1","Q09":"1","Q06":"1"},"rt":20852.30000000447,"item_order":[2,3,6,10,1,9,0,7,4,8,5],"radio_events":[1862.2000000029802,3200.2000000029802,4214.10000000149,5495.4000000059605,7410.5,8970.80000000447,9668.20000000298,11172.90000000596,13864.90000000596,15328.70000000298,16063.90000000596,19430.70000000298],"key_events":[],"mouse_events":[1862.2000000029802,2630.4000000059605,3200.2000000029802,4214.10000000149,5495.4000000059605,6754.60000000149,7410.5,8386,8970.80000000447,9668.20000000298,11172.90000000596,12922.5,13864.90000000596,14489.30000000447,15328.70000000298,16063.90000000596,16610.5,17047,18726.5,19430.70000000298,20848.40000000596],"straightlining":0.36363636363636365,"zigzagging":0.2,"honeypot":0,"survey":"neuroticism","trial_type":"survey-template","trial_index":4,"time_elapsed":150960,"internal_node_id":"0.0-4.0","experiment":"validation","task_version":"1.1","jspsych_version":"6.3.1","infrequency":0},{"value":[0,1.155844155844156,0.8999999999999999],"trial_type":"call-function","trial_index":5,"time_elapsed":150966,"internal_node_id":"0.0-5.0","experiment":"validation","task_version":"1.1","jspsych_version":"6.3.1","interactions":"[{\"event\":\"blur\",\"trial\":3,\"time\":79334},{\"event\":\"focus\",\"trial\":3,\"time\":80090}]"}]