[{"view_history":[{"page_index":0,"viewing_time":1786.5999999940395}],"rt":1787.199999988079,"trial_type":"instructions","trial_index":0,"time_elapsed":1800,"internal_node_id":"0.0-0.0","experiment":"validation","task_version":"1.1","jspsych_version":"6.3.1"},{"rt":15924.399999976158,"responses":{"age":"20","gender-categorical":"Female","gender-free-response":"","ethnicity":"Not Hispanic or Latino","race":["White"],"education":"Associate degree"},"survey":"demographics","trial_type":"survey-demo","trial_index":1,"time_elapsed":17729,"internal_node_id":"0.0-1.0","experiment":"validation","task_version":"1.1","jspsych_version":"6.3.1"},{"responses":{"Q03":"4","Q07":"2","Q05":"1","Q10":"4","Q09":"3","Q02":"2","Q11":"0","Q01":"3","Q06":"3","Q04":"1","Q08":"3"},"rt":43098.59999999404,"item_order":[2,6,4,9,8,1,10,0,5,3,7],"radio_events":[4469.0999999940395,8211.899999976158,10671.699999988079,13409.799999982119,18133.29999998212,22203.59999999404,31154.29999998212,33622.09999999404,36267.89999997616,38725.89999997616,41905.59999999404],"key_events":[],"mouse_events":[3096.5999999940395,4469.0999999940395,8211.899999976158,10671.699999988079,13409.799999982119,18133.29999998212,22203.59999999404,31154.29999998212,33622.09999999404,36267.89999997616,38725.89999997616,41033.19999998808,41905.59999999404,43094.19999998808],"straightlining":0.2727272727272727,"zigzagging":0.3,"honeypot":0,"survey":"openness","trial_type":"survey-template","trial_index":2,"time_elapsed":60833,"internal_node_id":"0.0-2.0","experiment":"validation","task_version":"1.1","jspsych_version":"6.3.1","infrequency":0},{"responses":{"Q05":"3","Q04":"1","Q03":"3","Q01":"1","Q07":"2","Q06":"2","Q02":"3"},"rt":54016.59999999404,"item_order":[4,3,2,0,6,5,1],"radio_events":[20980.80000001192,28376.80000001192,35590.5,39360,42000.09999999404,44313.09999999404,50458.69999998808,52018.59999999404],"key_events":[],"mouse_events":[19713.40000000596,20980.80000001192,28376.80000001192,34830.59999999404,35590.5,39360,42000.09999999404,44313.09999999404,50458.69999998808,52018.59999999404,54013.90000000596],"straightlining":0.42857142857142855,"zigzagging":0.3333333333333333,"honeypot":0,"survey":"nfc6","trial_type":"survey-template","trial_index":3,"time_elapsed":114853,"internal_node_id":"0.0-3.0","experiment":"validation","task_version":"1.1","jspsych_version":"6.3.1","infrequency":0},{"responses":{"Q05":"4","Q02":"4","Q09":"3","Q07":"4","Q03":"4","Q10":"3","Q06":"3","Q11":"4","Q04":"3","Q08":"3","Q01":"4"},"rt":32952.5,"item_order":[4,1,8,6,2,9,5,10,3,7,0],"radio_events":[7219.700000017881,8527.40000000596,11388.40000000596,13782.90000000596,16020.700000017881,18752.90000000596,22396.09999999404,24570.30000001192,28461,31176.09999999404,32361.59999999404],"key_events":[],"mouse_events":[6507,7219.700000017881,8527.40000000596,10782.5,11388.40000000596,13782.90000000596,16020.700000017881,18752.90000000596,22396.09999999404,24570.30000001192,27185.90000000596,28461,30463.90000000596,31176.09999999404,32361.59999999404,32948.20000001788],"straightlining":0.45454545454545453,"zigzagging":0.3,"honeypot":0,"survey":"neuroticism","trial_type":"survey-template","trial_index":4,"time_elapsed":147810,"internal_node_id":"0.0-4.0","experiment":"validation","task_version":"1.1","jspsych_version":"6.3.1","infrequency":0},{"value":[0,1.155844155844156,0.9333333333333333],"trial_type":"call-function","trial_index":5,"time_elapsed":147812,"internal_node_id":"0.0-5.0","experiment":"validation","task_version":"1.1","jspsych_version":"6.3.1","interactions":"[]"}]