[{"view_history":[{"page_index":0,"viewing_time":3091.5}],"rt":3091.699999988079,"trial_type":"instructions","trial_index":0,"time_elapsed":3104,"internal_node_id":"0.0-0.0","experiment":"validation","task_version":"1.1","jspsych_version":"6.3.1"},{"rt":10282,"responses":{"age":"","gender-categorical":"Female","gender-free-response":"","ethnicity":"Not Hispanic or Latino","race":["White"],"education":"Some college"},"survey":"demographics","trial_type":"survey-demo","trial_index":1,"time_elapsed":13387,"internal_node_id":"0.0-1.0","experiment":"validation","task_version":"1.1","jspsych_version":"6.3.1"},{"responses":{"Q08":"3","Q06":"3","Q09":"2","Q11":"4","Q05":"3","Q01":"2","Q04":"1","Q10":"3","Q02":"3","Q03":"3","Q07":"2"},"rt":24866.600000023842,"item_order":[7,5,8,10,4,0,3,9,1,2,6],"radio_events":[2327.100000023842,3989.2000000178814,7225.600000023842,9493.700000017881,13203.90000000596,14360.200000017881,15840.40000000596,17416.600000023842,19478.80000001192,21794.90000000596,22937.100000023842,24449.5],"key_events":[2327.100000023842,3989.2000000178814,7225.600000023842,9493.700000017881,13203.90000000596,14360.200000017881,15840.40000000596,17416.600000023842,19478.80000001192,21794.90000000596,22937.100000023842,24449.5,24865.40000000596],"mouse_events":[],"straightlining":0.36363636363636365,"zigzagging":0.5,"honeypot":0,"survey":"neuroticism","trial_type":"survey-template","trial_index":2,"time_elapsed":38257,"internal_node_id":"0.0-2.0","experiment":"validation","task_version":"1.1","jspsych_version":"6.3.1","infrequency":0},{"responses":{"Q04":"1","Q06":"1","Q01":"4","Q05":"1","Q09":"3","Q02":"3","Q03":"3","Q07":"4","Q08":"1","Q10":"4","Q11":"0"},"rt":35001,"item_order":[3,5,0,4,8,1,2,6,7,9,10],"radio_events":[3028.9000000059605,5345,7249.4000000059605,11485.699999988079,14480.199999988079,16148.199999988079,16920.19999998808,19354.30000001192,21984.59999999404,24205,26977.30000001192,29441.59999999404,34364],"key_events":[3028.9000000059605,5345,7249.4000000059605,9501.40000000596,11187.5,11485.699999988079,14480.199999988079,16148.199999988079,16620.5,16920.19999998808,19354.30000001192,21274.59999999404,21660.59999999404,21984.59999999404,24205,26457.09999999404,26977.30000001192,28953.30000001192,29441.59999999404,31481.69999998808,34364,35000],"mouse_events":[],"straightlining":0.5454545454545454,"zigzagging":0.2,"honeypot":0,"survey":"openness","trial_type":"survey-template","trial_index":3,"time_elapsed":73260,"internal_node_id":"0.0-3.0","experiment":"validation","task_version":"1.1","jspsych_version":"6.3.1","infrequency":0},{"responses":{"Q05":"3","Q01":"3","Q03":"3","Q07":"2","Q04":"2","Q06":"3","Q02":"1"},"rt":46550.5,"item_order":[4,0,2,6,3,5,1],"radio_events":[4367.5999999940395,6809.899999976158,12880.399999976158,14660.699999988079,20253.19999998808,22709.59999999404,26891.79999998212,28112,35028.59999999404,40243.09999999404,44653.69999998808,45369.79999998212,46061.79999998212],"key_events":[3573.5,4367.5999999940395,6345.899999976158,6809.899999976158,12456.5,12880.399999976158,14234.59999999404,14660.699999988079,18489.09999999404,19095.5,19937.399999976158,20253.19999998808,22709.59999999404,26891.79999998212,27806,28112,34728.69999998808,35028.59999999404,40243.09999999404,44289.59999999404,44653.69999998808,45126,45369.79999998212,45763.79999998212,46061.79999998212,46549.79999998212],"mouse_events":[],"straightlining":0.42857142857142855,"zigzagging":0.3333333333333333,"honeypot":0,"survey":"nfc6","trial_type":"survey-template","trial_index":4,"time_elapsed":119812,"internal_node_id":"0.0-4.0","experiment":"validation","task_version":"1.1","jspsych_version":"6.3.1","infrequency":0},{"value":[0,1.3376623376623376,1.0333333333333332],"trial_type":"call-function","trial_index":5,"time_elapsed":119813,"internal_node_id":"0.0-5.0","experiment":"validation","task_version":"1.1","jspsych_version":"6.3.1","interactions":"[]"}]