[{"view_history":[{"page_index":0,"viewing_time":6139.5}],"rt":6141.800000000745,"trial_type":"instructions","trial_index":0,"time_elapsed":6179,"internal_node_id":"0.0-0.0","experiment":"validation","task_version":"1.1","jspsych_version":"6.3.1"},{"rt":35448,"responses":{"age":"42","gender-categorical":"Male","gender-free-response":"","ethnicity":"Not Hispanic or Latino","race":["White"],"education":"Master degree or higher"},"survey":"demographics","trial_type":"survey-demo","trial_index":1,"time_elapsed":41638,"internal_node_id":"0.0-1.0","experiment":"validation","task_version":"1.1","jspsych_version":"6.3.1"},{"responses":{"Q03":"0","Q10":"0","Q06":"4","Q11":"0","Q05":"0","Q09":"2","Q07":"4","Q02":"4","Q08":"4","Q01":"4","Q04":"0"},"rt":46099.5,"item_order":[2,9,5,10,4,8,6,1,7,0,3],"radio_events":[6765.10000000149,9949.5,13381.199999999255,16741.5,20493.900000002235,26782.10000000149,29757.5,33133.199999999255,38061.10000000149,42765.10000000149,45173.900000002235],"key_events":[],"mouse_events":[3774.10000000149,6765.10000000149,9949.5,13381.199999999255,16741.5,19805,20493.900000002235,26782.10000000149,29757.5,33133.199999999255,37023,38061.10000000149,42765.10000000149,45173.900000002235,46093.5],"straightlining":0.45454545454545453,"zigzagging":0.6,"honeypot":0,"survey":"openness","trial_type":"survey-template","trial_index":2,"time_elapsed":87754,"internal_node_id":"0.0-2.0","experiment":"validation","task_version":"1.1","jspsych_version":"6.3.1","infrequency":0},{"responses":{"Q05":"0","Q03":"0","Q07":"2","Q09":"0","Q04":"0","Q10":"0","Q01":"3","Q08":"0","Q06":"0","Q02":"0","Q11":"4"},"rt":46975.39999999851,"item_order":[4,2,6,8,3,9,0,7,5,1,10],"radio_events":[3452.5,7508.800000000745,9492.60000000149,14363.800000000745,17467.5,23003.39999999851,25139.300000000745,32228,33668,38316.800000000745,45579.60000000149],"key_events":[],"mouse_events":[3452.5,7508.800000000745,9492.60000000149,14363.800000000745,17467.5,19555.39999999851,23003.39999999851,25139.300000000745,26860.10000000149,29291.699999999255,32228,33668,38316.800000000745,40948.300000000745,45579.60000000149,46971.300000000745],"straightlining":0.45454545454545453,"zigzagging":0.6,"honeypot":0,"survey":"neuroticism","trial_type":"survey-template","trial_index":3,"time_elapsed":134744,"internal_node_id":"0.0-3.0","experiment":"validation","task_version":"1.1","jspsych_version":"6.3.1","infrequency":0},{"responses":{"Q02":"3","Q03":"4","Q04":"2","Q06":"3","Q01":"3","Q05":"3","Q07":"2"},"rt":59735,"item_order":[1,2,3,5,0,4,6],"radio_events":[17964.10000000149,22235.60000000149,25763.5,29803.20000000298,31947.5,32115.10000000149,35459.10000000149,41067.10000000149,51746.800000000745,53835.400000002235,54995.5,56011.300000000745],"key_events":[],"mouse_events":[17964.10000000149,22235.60000000149,25763.5,29803.20000000298,31947.5,32115.10000000149,35459.10000000149,41067.10000000149,51746.800000000745,53835.400000002235,54995.5,56011.300000000745,59731.5],"straightlining":0.5714285714285714,"zigzagging":0.3333333333333333,"honeypot":0,"survey":"nfc6","trial_type":"survey-template","trial_index":4,"time_elapsed":194490,"internal_node_id":"0.0-4.0","experiment":"validation","task_version":"1.1","jspsych_version":"6.3.1","infrequency":0},{"value":[0,1.4805194805194803,1.5333333333333332],"trial_type":"call-function","trial_index":5,"time_elapsed":194496,"internal_node_id":"0.0-5.0","experiment":"validation","task_version":"1.1","jspsych_version":"6.3.1","interactions":"[]"}]