[{"view_history":[{"page_index":0,"viewing_time":1813.5}],"rt":1814.3999999999069,"trial_type":"instructions","trial_index":0,"time_elapsed":1833,"internal_node_id":"0.0-0.0","experiment":"validation","task_version":"1.1","jspsych_version":"6.3.1"},{"rt":14001.80000000028,"responses":{"age":"56","gender-categorical":"Female","gender-free-response":"","ethnicity":"Not Hispanic or Latino","race":["White"],"education":"Master degree or higher"},"survey":"demographics","trial_type":"survey-demo","trial_index":1,"time_elapsed":15849,"internal_node_id":"0.0-1.0","experiment":"validation","task_version":"1.1","jspsych_version":"6.3.1"},{"responses":{"Q05":"2","Q07":"2","Q02":"3","Q03":"3","Q06":"3","Q04":"1","Q01":"3"},"rt":29598.299999999814,"item_order":[4,6,1,2,5,3,0],"radio_events":[10458.899999999907,11700.100000000093,14114.100000000093,18755.69999999972,21584.19999999972,27576.100000000093,28749.5],"key_events":[],"mouse_events":[10458.899999999907,11700.100000000093,14114.100000000093,18755.69999999972,21584.19999999972,27576.100000000093,28749.5,29592.899999999907],"straightlining":0.5714285714285714,"zigzagging":0.16666666666666666,"honeypot":0,"survey":"nfc6","trial_type":"survey-template","trial_index":2,"time_elapsed":45460,"internal_node_id":"0.0-2.0","experiment":"validation","task_version":"1.1","jspsych_version":"6.3.1","infrequency":0},{"responses":{"Q03":"2","Q05":"2","Q09":"4","Q06":"3","Q08":"1","Q07":"4","Q02":"1","Q01":"3","Q11":"0","Q10":"4","Q04":"2"},"rt":34944.09999999963,"item_order":[2,4,8,5,7,6,1,0,10,9,3],"radio_events":[7318.0999999996275,10661.099999999627,12786.399999999907,15653.399999999907,18809.099999999627,20396,23449.5,26232.19999999972,29240.099999999627,31934.19999999972,34130.19999999972],"key_events":[],"mouse_events":[7318.0999999996275,10661.099999999627,12786.399999999907,15653.399999999907,18809.099999999627,20396,23449.5,26232.19999999972,29240.099999999627,31934.19999999972,34130.19999999972,34933.69999999972],"straightlining":0.36363636363636365,"zigzagging":0.2,"honeypot":0,"survey":"openness","trial_type":"survey-template","trial_index":3,"time_elapsed":80417,"internal_node_id":"0.0-3.0","experiment":"validation","task_version":"1.1","jspsych_version":"6.3.1","infrequency":0},{"responses":{"Q08":"0","Q11":"4","Q05":"1","Q10":"1","Q01":"0","Q06":"3","Q02":"0","Q03":"1","Q09":"2","Q04":"1","Q07":"1"},"rt":26135.099999999627,"item_order":[7,10,4,9,0,5,1,2,8,3,6],"radio_events":[3740.5,5998.699999999721,8154.5999999996275,9696.099999999627,11515.5,13609.69999999972,17077.19999999972,18663.5,22233.5,23343.799999999814,25257.799999999814],"key_events":[],"mouse_events":[3740.5,5998.699999999721,8154.5999999996275,9696.099999999627,11515.5,13609.69999999972,17077.19999999972,18663.5,22233.5,23343.799999999814,25257.799999999814,26125.799999999814],"straightlining":0.36363636363636365,"zigzagging":0.5,"honeypot":0,"survey":"neuroticism","trial_type":"survey-template","trial_index":4,"time_elapsed":106566,"internal_node_id":"0.0-4.0","experiment":"validation","task_version":"1.1","jspsych_version":"6.3.1","infrequency":0},{"value":[0,1.2987012987012987,0.8666666666666667],"trial_type":"call-function","trial_index":5,"time_elapsed":106572,"internal_node_id":"0.0-5.0","experiment":"validation","task_version":"1.1","jspsych_version":"6.3.1","interactions":"[]"}]