[{"view_history":[{"page_index":0,"viewing_time":4438}],"rt":4438.899999976158,"trial_type":"instructions","trial_index":0,"time_elapsed":4455,"internal_node_id":"0.0-0.0","experiment":"validation","task_version":"1.1","jspsych_version":"6.3.1"},{"rt":19161.69999998808,"responses":{"age":"55","gender-categorical":"Female","gender-free-response":"","ethnicity":"Not Hispanic or Latino","race":["White"],"education":"Bachelor degree"},"survey":"demographics","trial_type":"survey-demo","trial_index":1,"time_elapsed":23622,"internal_node_id":"0.0-1.0","experiment":"validation","task_version":"1.1","jspsych_version":"6.3.1"},{"responses":{"Q01":"4","Q04":"4","Q06":"4","Q03":"4","Q05":"3","Q07":"2","Q02":"4"},"rt":30356,"item_order":[0,3,5,2,4,6,1],"radio_events":[4902,9558.199999988079,15579.09999999404,18066.899999976158,21832.69999998808,24284,28866.59999999404],"key_events":[],"mouse_events":[4902,9558.199999988079,15579.09999999404,18066.899999976158,21832.69999998808,24284,28866.59999999404,30354.29999998212],"straightlining":0.42857142857142855,"zigzagging":0.6666666666666666,"honeypot":0,"survey":"nfc6","trial_type":"survey-template","trial_index":2,"time_elapsed":53988,"internal_node_id":"0.0-2.0","experiment":"validation","task_version":"1.1","jspsych_version":"6.3.1","infrequency":0},{"responses":{"Q08":"0","Q09":"1","Q11":"4","Q06":"0","Q02":"0","Q01":"1","Q07":"1","Q05":"0","Q04":"0","Q10":"2","Q03":"0"},"rt":35037.09999999404,"item_order":[7,8,10,5,1,0,6,4,3,9,2],"radio_events":[6620.199999988079,9240.40000000596,10850.299999982119,12776.199999988079,15226.40000000596,18261,20772.09999999404,22625.40000000596,24563.79999998212,31037,33645.69999998808],"key_events":[],"mouse_events":[6620.199999988079,9240.40000000596,10850.299999982119,12776.199999988079,15226.40000000596,18261,20772.09999999404,22625.40000000596,24563.79999998212,31037,33645.69999998808,35035.40000000596],"straightlining":0.36363636363636365,"zigzagging":0.4,"honeypot":0,"survey":"neuroticism","trial_type":"survey-template","trial_index":3,"time_elapsed":89034,"internal_node_id":"0.0-3.0","experiment":"validation","task_version":"1.1","jspsych_version":"6.3.1","infrequency":0},{"responses":{"Q04":"1","Q11":"0","Q07":"4","Q05":"1","Q09":"4","Q03":"4","Q02":"4","Q10":"3","Q06":"4","Q01":"4","Q08":"4"},"rt":32917.59999999404,"item_order":[3,10,6,4,8,2,1,9,5,0,7],"radio_events":[4097.5999999940395,7378,9583.799999982119,12009.59999999404,14471.799999982119,17556.09999999404,20055.79999998212,22676.29999998212,24955.40000000596,29294.69999998808,31537.69999998808],"key_events":[],"mouse_events":[4097.5999999940395,7378,9583.799999982119,12009.59999999404,14471.799999982119,17556.09999999404,20055.79999998212,22676.29999998212,24955.40000000596,29294.69999998808,31537.69999998808,32915.90000000596],"straightlining":0.45454545454545453,"zigzagging":0.4,"honeypot":0,"survey":"openness","trial_type":"survey-template","trial_index":4,"time_elapsed":121960,"internal_node_id":"0.0-4.0","experiment":"validation","task_version":"1.1","jspsych_version":"6.3.1","infrequency":0},{"value":[0,1.2467532467532467,1.4666666666666668],"trial_type":"call-function","trial_index":5,"time_elapsed":121967,"internal_node_id":"0.0-5.0","experiment":"validation","task_version":"1.1","jspsych_version":"6.3.1","interactions":"[]"}]