[{"view_history":[{"page_index":0,"viewing_time":6621.799999999814}],"rt":6624.699999999255,"trial_type":"instructions","trial_index":0,"time_elapsed":6780,"internal_node_id":"0.0-0.0","experiment":"validation","task_version":"1.1","jspsych_version":"6.3.1"},{"rt":14889.100000000559,"responses":{"age":"36","gender-categorical":"Male","gender-free-response":"","ethnicity":"Not Hispanic or Latino","race":["White"],"education":"Bachelor degree"},"survey":"demographics","trial_type":"survey-demo","trial_index":1,"time_elapsed":21676,"internal_node_id":"0.0-1.0","experiment":"validation","task_version":"1.1","jspsych_version":"6.3.1"},{"responses":{"Q08":"0","Q02":"0","Q01":"0","Q09":"1","Q05":"0","Q04":"0","Q03":"0","Q06":"1","Q11":"4","Q07":"0","Q10":"0"},"rt":63455,"item_order":[7,1,0,8,4,3,2,5,10,6,9],"radio_events":[20364.200000000186,21106.799999999814,25683.700000000186,31274.60000000056,32291.60000000056,41427.40000000037,42250.40000000037,44875.60000000056,49787.40000000037,51411.200000000186,62523.299999999814],"key_events":[],"mouse_events":[20364.200000000186,21106.799999999814,24883.799999999814,25683.700000000186,28035.900000000373,30922.400000000373,31274.60000000056,31770.60000000056,32291.60000000056,40627.60000000056,41427.40000000037,42250.40000000037,44875.60000000056,47163.60000000056,47595.299999999814,49290.299999999814,49787.40000000037,50115.299999999814,50954.10000000056,51411.200000000186,51899.5,56067.10000000056,62107.200000000186,62523.299999999814,63450.799999999814],"straightlining":0.45454545454545453,"zigzagging":0.2,"honeypot":0,"survey":"neuroticism","trial_type":"survey-template","trial_index":2,"time_elapsed":85143,"internal_node_id":"0.0-2.0","experiment":"validation","task_version":"1.1","jspsych_version":"6.3.1","infrequency":0},{"responses":{"Q01":"3","Q05":"4","Q02":"3","Q07":"2","Q04":"3","Q06":"3","Q03":"4"},"rt":45467.799999999814,"item_order":[0,4,1,6,3,5,2],"radio_events":[10632.399999999441,15112.899999999441,29793.39999999944,33041.39999999944,37633.09999999963,43880.799999999814,44713.199999999255],"key_events":[],"mouse_events":[10105.399999999441,10632.399999999441,15112.899999999441,29440.39999999944,29793.39999999944,33041.39999999944,37633.09999999963,43880.799999999814,44713.199999999255,45465.299999999814],"straightlining":0.42857142857142855,"zigzagging":0.6666666666666666,"honeypot":0,"survey":"nfc6","trial_type":"survey-template","trial_index":3,"time_elapsed":130620,"internal_node_id":"0.0-3.0","experiment":"validation","task_version":"1.1","jspsych_version":"6.3.1","infrequency":0},{"responses":{"Q03":"0","Q10":"1","Q11":"0","Q05":"0","Q01":"4","Q07":"4","Q09":"4","Q08":"4","Q04":"1","Q06":"3","Q02":"3"},"rt":41754,"item_order":[2,9,10,4,0,6,8,7,3,5,1],"radio_events":[11430,12398.400000000373,16174.5,19318.700000000186,22390.400000000373,23254.299999999814,27013.599999999627,29310.5,32885.40000000037,36406.299999999814,41246.09999999963],"key_events":[],"mouse_events":[10709.900000000373,11430,12398.400000000373,15757.900000000373,16174.5,19318.700000000186,22390.400000000373,23254.299999999814,27013.599999999627,29310.5,32469.5,32885.40000000037,36038.200000000186,36406.299999999814,40717.59999999963,41246.09999999963,41750.59999999963],"straightlining":0.45454545454545453,"zigzagging":0.2,"honeypot":0,"survey":"openness","trial_type":"survey-template","trial_index":4,"time_elapsed":172380,"internal_node_id":"0.0-4.0","experiment":"validation","task_version":"1.1","jspsych_version":"6.3.1","infrequency":0},{"value":[0,1.3376623376623376,1.0666666666666667],"trial_type":"call-function","trial_index":5,"time_elapsed":172385,"internal_node_id":"0.0-5.0","experiment":"validation","task_version":"1.1","jspsych_version":"6.3.1","interactions":"[]"}]