[{"view_history":[{"page_index":0,"viewing_time":1871.5}],"rt":1872.5,"trial_type":"instructions","trial_index":0,"time_elapsed":1904,"internal_node_id":"0.0-0.0","experiment":"validation","task_version":"1.1","jspsych_version":"6.3.1"},{"rt":17307.600000023842,"responses":{"age":"30","gender-categorical":"Male","gender-free-response":"","ethnicity":"Not Hispanic or Latino","race":["White"],"education":"Master degree or higher"},"survey":"demographics","trial_type":"survey-demo","trial_index":1,"time_elapsed":19225,"internal_node_id":"0.0-1.0","experiment":"validation","task_version":"1.1","jspsych_version":"6.3.1"},{"responses":{"Q03":"3","Q01":"2","Q02":"3","Q05":"1","Q06":"2","Q08":"2","Q09":"2","Q04":"1","Q11":"0","Q10":"3","Q07":"2"},"rt":30341.400000035763,"item_order":[2,0,1,4,5,7,8,3,10,9,6],"radio_events":[5323.200000047684,7247.600000023842,8297.200000047684,10521.800000011921,11736.200000047684,13735.200000047684,16056.200000047684,19270.30000001192,21239.900000035763,24405.700000047684,27275],"key_events":[],"mouse_events":[5323.200000047684,7247.600000023842,8297.200000047684,10521.800000011921,11736.200000047684,13735.200000047684,16056.200000047684,17513.100000023842,19270.30000001192,21239.900000035763,23704.200000047684,24405.700000047684,26630,27275,28242.80000001192,30333.100000023842],"straightlining":0.45454545454545453,"zigzagging":0.6,"honeypot":0,"survey":"openness","trial_type":"survey-template","trial_index":2,"time_elapsed":49595,"internal_node_id":"0.0-2.0","experiment":"validation","task_version":"1.1","jspsych_version":"6.3.1","infrequency":0},{"responses":{"Q01":"3","Q04":"1","Q02":"3","Q07":"2","Q05":"3","Q06":"3","Q03":"3"},"rt":16941,"item_order":[0,3,1,6,4,5,2],"radio_events":[6431.099999964237,8409.199999988079,9203.5,10867,12511,14301.399999976158,16163],"key_events":[],"mouse_events":[6431.099999964237,8409.199999988079,9203.5,10867,12511,14301.399999976158,16163,16936.099999964237],"straightlining":0.7142857142857143,"zigzagging":0.3333333333333333,"honeypot":0,"survey":"nfc6","trial_type":"survey-template","trial_index":3,"time_elapsed":66552,"internal_node_id":"0.0-3.0","experiment":"validation","task_version":"1.1","jspsych_version":"6.3.1","infrequency":0},{"responses":{"Q08":"1","Q11":"4","Q04":"2","Q06":"1","Q01":"2","Q05":"1","Q07":"2","Q09":"1","Q10":"1","Q02":"1","Q03":"1"},"rt":50551.89999997616,"item_order":[7,10,3,5,0,4,6,8,9,1,2],"radio_events":[3634.399999976158,4561.199999988079,6115.199999988079,30817.69999998808,33231,34138.19999998808,38877.299999952316,41648.69999998808,44253.89999997616,47765.89999997616,48526.59999996424,49760.69999998808],"key_events":[],"mouse_events":[2855.599999964237,3634.399999976158,4561.199999988079,6115.199999988079,30817.69999998808,33231,34138.19999998808,35999,38877.299999952316,41648.69999998808,44253.89999997616,45808,46485.09999996424,47181.09999996424,47765.89999997616,48526.59999996424,49760.69999998808,50544.89999997616],"straightlining":0.36363636363636365,"zigzagging":0.6,"honeypot":0,"survey":"neuroticism","trial_type":"survey-template","trial_index":4,"time_elapsed":117128,"internal_node_id":"0.0-4.0","experiment":"validation","task_version":"1.1","jspsych_version":"6.3.1","infrequency":0},{"value":[0,1.5324675324675323,1.5333333333333332],"trial_type":"call-function","trial_index":5,"time_elapsed":117136,"internal_node_id":"0.0-5.0","experiment":"validation","task_version":"1.1","jspsych_version":"6.3.1","interactions":"[{\"event\":\"blur\",\"trial\":4,\"time\":73830},{\"event\":\"focus\",\"trial\":4,\"time\":93766}]"}]