[{"view_history":[{"page_index":0,"viewing_time":5972.299999952316}],"rt":5972.900000095367,"trial_type":"instructions","trial_index":0,"time_elapsed":5994,"internal_node_id":"0.0-0.0","experiment":"validation","task_version":"1.1","jspsych_version":"6.3.1"},{"rt":50907.59999990463,"responses":{"age":"67","gender-categorical":"Male","gender-free-response":"","ethnicity":"Hispanic or Latino","race":["White"],"education":"Bachelor degree"},"survey":"demographics","trial_type":"survey-demo","trial_index":1,"time_elapsed":56907,"internal_node_id":"0.0-1.0","experiment":"validation","task_version":"1.1","jspsych_version":"6.3.1"},{"responses":{"Q01":"3","Q06":"3","Q03":"4","Q02":"3","Q04":"3","Q05":"2","Q07":"2"},"rt":52169.299999952316,"item_order":[0,5,2,1,3,4,6],"radio_events":[9030.700000047684,24064.299999952316,27380.89999985695,32281.299999952316,39014.09999990463,46063,50287.59999990463],"key_events":[],"mouse_events":[9030.700000047684,24064.299999952316,27380.89999985695,32281.299999952316,39014.09999990463,46063,49215.5,50287.59999990463,52168.200000047684],"straightlining":0.42857142857142855,"zigzagging":0.16666666666666666,"honeypot":0,"survey":"nfc6","trial_type":"survey-template","trial_index":2,"time_elapsed":109083,"internal_node_id":"0.0-2.0","experiment":"validation","task_version":"1.1","jspsych_version":"6.3.1","infrequency":0},{"responses":{"Q06":"0","Q02":"2","Q09":"1","Q05":"0","Q07":"3","Q04":"2","Q11":"4","Q08":"1","Q01":"2","Q10":"2","Q03":"1"},"rt":36254.699999809265,"item_order":[5,1,8,4,6,3,10,7,0,9,2],"radio_events":[7277.599999904633,9797.799999952316,12910.199999809265,15778.599999904633,19679,24871.89999985695,26755.799999952316,28676.199999809265,30744.699999809265,32586,35025],"key_events":[],"mouse_events":[7277.599999904633,9797.799999952316,12910.199999809265,15778.599999904633,19679,22767.5,24871.89999985695,26755.799999952316,28676.199999809265,30744.699999809265,32586,35025,36253.199999809265],"straightlining":0.36363636363636365,"zigzagging":0.6,"honeypot":0,"survey":"neuroticism","trial_type":"survey-template","trial_index":3,"time_elapsed":145344,"internal_node_id":"0.0-3.0","experiment":"validation","task_version":"1.1","jspsych_version":"6.3.1","infrequency":0},{"responses":{"Q03":"3","Q02":"2","Q06":"2","Q05":"2","Q08":"1","Q09":"3","Q01":"4","Q11":"0","Q04":"2","Q10":"3","Q07":"4"},"rt":32477.699999809265,"item_order":[2,1,5,4,7,8,0,10,3,9,6],"radio_events":[6333.099999904633,8240.899999856949,10525.399999856949,11853.799999952316,14461.899999856949,18354.299999952316,21362.799999952316,23835,27191.39999985695,29451.599999904633,31487.89999985695],"key_events":[],"mouse_events":[6333.099999904633,8240.899999856949,10525.399999856949,11853.799999952316,14461.899999856949,18354.299999952316,21362.799999952316,23835,27191.39999985695,29451.599999904633,31487.89999985695,32476.199999809265],"straightlining":0.36363636363636365,"zigzagging":0.5,"honeypot":0,"survey":"openness","trial_type":"survey-template","trial_index":4,"time_elapsed":177829,"internal_node_id":"0.0-4.0","experiment":"validation","task_version":"1.1","jspsych_version":"6.3.1","infrequency":0},{"value":[0,1.155844155844156,1.2666666666666666],"trial_type":"call-function","trial_index":5,"time_elapsed":177833,"internal_node_id":"0.0-5.0","experiment":"validation","task_version":"1.1","jspsych_version":"6.3.1","interactions":"[{\"event\":\"blur\",\"trial\":1,\"time\":17342},{\"event\":\"focus\",\"trial\":1,\"time\":45764}]"}]