[{"view_history":[{"page_index":0,"viewing_time":4319}],"rt":4319.800000071526,"trial_type":"instructions","trial_index":0,"time_elapsed":4345,"internal_node_id":"0.0-0.0","experiment":"validation","task_version":"1.1","jspsych_version":"6.3.1"},{"rt":12105.199999928474,"responses":{"age":"35","gender-categorical":"Male","gender-free-response":"","ethnicity":"Not Hispanic or Latino","race":["White"],"education":"High school"},"survey":"demographics","trial_type":"survey-demo","trial_index":1,"time_elapsed":16454,"internal_node_id":"0.0-1.0","experiment":"validation","task_version":"1.1","jspsych_version":"6.3.1"},{"responses":{"Q10":"0","Q09":"1","Q04":"1","Q08":"2","Q05":"3","Q06":"3","Q11":"4","Q02":"2","Q07":"3","Q03":"2","Q01":"2"},"rt":48320,"item_order":[9,8,3,7,4,5,10,1,6,2,0],"radio_events":[9890.399999976158,10968.200000047684,13182.299999952316,15468.299999952316,17582.700000047684,20022.399999976158,22524.899999976158,28855.700000047684,32680.899999976158,38348.700000047684,43162.10000002384,46185.799999952316,46572.799999952316],"key_events":[],"mouse_events":[9890.399999976158,10968.200000047684,13182.299999952316,15468.299999952316,17582.700000047684,20022.399999976158,22524.899999976158,28855.700000047684,31026.700000047684,32680.899999976158,38348.700000047684,43162.10000002384,46185.799999952316,46572.799999952316,48318.299999952316],"straightlining":0.36363636363636365,"zigzagging":0.5,"honeypot":0,"survey":"neuroticism","trial_type":"survey-template","trial_index":2,"time_elapsed":64783,"internal_node_id":"0.0-2.0","experiment":"validation","task_version":"1.1","jspsych_version":"6.3.1","infrequency":0},{"responses":{"Q05":"4","Q01":"3","Q07":"2","Q04":"3","Q06":"3","Q02":"3","Q03":"4"},"rt":51341,"item_order":[4,0,6,3,5,1,2],"radio_events":[6414.300000071526,11887.300000071526,18480.899999976158,26775,33179.200000047684,39995.60000002384,48053.800000071526,50243.800000071526],"key_events":[],"mouse_events":[6414.300000071526,11887.300000071526,18480.899999976158,26775,33179.200000047684,37191.89999997616,37835.89999997616,39995.60000002384,44865.10000002384,45654.60000002384,48053.800000071526,50243.800000071526,51337.200000047684],"straightlining":0.42857142857142855,"zigzagging":0.5,"honeypot":0,"survey":"nfc6","trial_type":"survey-template","trial_index":3,"time_elapsed":116135,"internal_node_id":"0.0-3.0","experiment":"validation","task_version":"1.1","jspsych_version":"6.3.1","infrequency":0},{"responses":{"Q08":"1","Q01":"4","Q06":"0","Q09":"4","Q02":"3","Q07":"4","Q04":"3","Q03":"4","Q11":"0","Q10":"4","Q05":"0"},"rt":38546.5,"item_order":[7,0,5,8,1,6,3,2,10,9,4],"radio_events":[13278.200000047684,16508.299999952316,17880.100000023842,20306.200000047684,23327.100000023842,25018.200000047684,29189,31200.200000047684,33627.5,36022.10000002384,37496.799999952316],"key_events":[],"mouse_events":[12246.100000023842,13278.200000047684,14251,16508.299999952316,17880.100000023842,20306.200000047684,23327.100000023842,25018.200000047684,29189,31200.200000047684,33627.5,36022.10000002384,37496.799999952316,38545.10000002384],"straightlining":0.36363636363636365,"zigzagging":0.5,"honeypot":0,"survey":"openness","trial_type":"survey-template","trial_index":4,"time_elapsed":154692,"internal_node_id":"0.0-4.0","experiment":"validation","task_version":"1.1","jspsych_version":"6.3.1","infrequency":0},{"value":[0,1.155844155844156,1.5],"trial_type":"call-function","trial_index":5,"time_elapsed":154698,"internal_node_id":"0.0-5.0","experiment":"validation","task_version":"1.1","jspsych_version":"6.3.1","interactions":"[]"}]