[{"view_history":[{"page_index":0,"viewing_time":4232.299999713898}],"rt":4234,"trial_type":"instructions","trial_index":0,"time_elapsed":4247,"internal_node_id":"0.0-0.0","experiment":"validation","task_version":"1.1","jspsych_version":"6.3.1"},{"rt":10226.800000190735,"responses":{"age":"25","gender-categorical":"Male","gender-free-response":"","ethnicity":"Not Hispanic or Latino","race":["White"],"education":"Bachelor degree"},"survey":"demographics","trial_type":"survey-demo","trial_index":1,"time_elapsed":14478,"internal_node_id":"0.0-1.0","experiment":"validation","task_version":"1.1","jspsych_version":"6.3.1"},{"responses":{"Q05":"0","Q01":"3","Q07":"2","Q10":"2","Q06":"3","Q09":"3","Q02":"4","Q03":"2","Q08":"3","Q04":"1","Q11":"0"},"rt":37101.59999990463,"item_order":[4,0,6,9,5,8,1,2,7,3,10],"radio_events":[3335,6709.39999961853,7991.89999961853,9838.89999961853,13522.699999809265,16556.39999961853,21001.699999809265,22412.099999904633,25674.39999961853,27648,32720.299999713898],"key_events":[],"mouse_events":[3335,6709.39999961853,7991.89999961853,9838.89999961853,13522.699999809265,16556.39999961853,21001.699999809265,22412.099999904633,25674.39999961853,27648,31101.39999961853,32720.299999713898,37097.5],"straightlining":0.2727272727272727,"zigzagging":0.4,"honeypot":0,"survey":"openness","trial_type":"survey-template","trial_index":2,"time_elapsed":51587,"internal_node_id":"0.0-2.0","experiment":"validation","task_version":"1.1","jspsych_version":"6.3.1","infrequency":0},{"responses":{"Q02":"4","Q05":"4","Q04":"3","Q06":"3","Q01":"3","Q03":"3","Q07":"2"},"rt":46264.90000009537,"item_order":[1,4,3,5,0,2,6],"radio_events":[7374.300000190735,11333.800000190735,15715.700000286102,27127.5,34148.90000009537,38914.300000190735,41595.800000190735,45537.800000190735],"key_events":[],"mouse_events":[7374.300000190735,11333.800000190735,15715.700000286102,27127.5,34148.90000009537,38914.300000190735,41595.800000190735,44812.800000190735,45537.800000190735,46263.60000038147],"straightlining":0.2857142857142857,"zigzagging":0.16666666666666666,"honeypot":0,"survey":"nfc6","trial_type":"survey-template","trial_index":3,"time_elapsed":97856,"internal_node_id":"0.0-3.0","experiment":"validation","task_version":"1.1","jspsych_version":"6.3.1","infrequency":0},{"responses":{"Q08":"0","Q03":"0","Q07":"1","Q10":"0","Q04":"0","Q11":"4","Q09":"1","Q01":"0","Q06":"4","Q05":"0","Q02":"0"},"rt":23057.599999904633,"item_order":[7,2,6,9,3,10,8,0,5,4,1],"radio_events":[3093.9000000953674,5664.400000095367,8206.699999809265,11011.900000095367,12158.799999713898,13721.099999904633,16558.199999809265,18223.799999713898,20192.699999809265,21272.699999809265,22238.799999713898],"key_events":[],"mouse_events":[3093.9000000953674,5664.400000095367,8206.699999809265,10356.799999713898,11011.900000095367,12158.799999713898,13721.099999904633,16558.199999809265,18223.799999713898,19630.299999713898,20192.699999809265,21272.699999809265,22238.799999713898,23056.599999904633],"straightlining":0.5454545454545454,"zigzagging":0.5,"honeypot":0,"survey":"neuroticism","trial_type":"survey-template","trial_index":4,"time_elapsed":120921,"internal_node_id":"0.0-4.0","experiment":"validation","task_version":"1.1","jspsych_version":"6.3.1","infrequency":0},{"value":[0,1.103896103896104,1.0666666666666667],"trial_type":"call-function","trial_index":5,"time_elapsed":120924,"internal_node_id":"0.0-5.0","experiment":"validation","task_version":"1.1","jspsych_version":"6.3.1","interactions":"[]"}]