[{"view_history":[{"page_index":0,"viewing_time":10416.400000035763}],"rt":10419.800000011921,"trial_type":"instructions","trial_index":0,"time_elapsed":10434,"internal_node_id":"0.0-0.0","experiment":"validation","task_version":"1.1","jspsych_version":"6.3.1"},{"rt":62427.19999998808,"responses":{"age":"30","gender-categorical":"Male","gender-free-response":"","ethnicity":"Not Hispanic or Latino","race":["Black or African American"],"education":"Associate degree"},"survey":"demographics","trial_type":"survey-demo","trial_index":1,"time_elapsed":72876,"internal_node_id":"0.0-1.0","experiment":"validation","task_version":"1.1","jspsych_version":"6.3.1"},{"responses":{"Q02":"2","Q05":"3","Q07":"2","Q01":"3","Q06":"3","Q04":"2","Q03":"1"},"rt":52135.59999996424,"item_order":[1,4,6,0,5,3,2],"radio_events":[10902.299999952316,15912.5,31979.399999976158,38572.19999998808,39669.39999997616,43737.59999996424,44471.89999997616],"key_events":[],"mouse_events":[10902.299999952316,15912.5,31979.399999976158,34836.09999996424,36370.799999952316,36850.39999997616,37861.59999996424,38572.19999998808,39227,39669.39999997616,43737.59999996424,44471.89999997616,52129.59999996424],"straightlining":0.5714285714285714,"zigzagging":0.8333333333333334,"honeypot":0,"survey":"nfc6","trial_type":"survey-template","trial_index":2,"time_elapsed":125030,"internal_node_id":"0.0-2.0","experiment":"validation","task_version":"1.1","jspsych_version":"6.3.1","infrequency":0},{"responses":{"Q06":"3","Q10":"3","Q09":"1","Q03":"2","Q01":"3","Q02":"3","Q08":"1","Q11":"2","Q07":"1","Q05":"2","Q04":"2"},"rt":21415.30000001192,"item_order":[5,9,8,2,0,1,7,10,6,4,3],"radio_events":[3541.900000035763,3973.800000011921,5994.400000035763,7250.400000035763,8462,9637.700000047684,10903.800000011921,13532.700000047684,14274.5,14663.200000047684,16593.100000023842],"key_events":[],"mouse_events":[3541.900000035763,3973.800000011921,5994.400000035763,7250.400000035763,8462,9637.700000047684,10903.800000011921,11248.100000023842,12071.900000035763,13532.700000047684,14274.5,14663.200000047684,15822.300000011921,16593.100000023842,21402.30000001192],"straightlining":0.45454545454545453,"zigzagging":0.5,"honeypot":0,"survey":"openness","trial_type":"survey-template","trial_index":3,"time_elapsed":146467,"internal_node_id":"0.0-3.0","experiment":"validation","task_version":"1.1","jspsych_version":"6.3.1","infrequency":1},{"responses":{"Q07":"1","Q09":"1","Q06":"1","Q02":"0","Q01":"3","Q03":"4","Q10":"4","Q08":"4","Q05":"0","Q11":"4","Q04":"3"},"rt":64618.40000003576,"item_order":[6,8,5,1,0,2,9,7,4,10,3],"radio_events":[29935.5,34616.30000001192,41107.69999998808,44529.30000001192,45158.5,49353.80000001192,52145,55594.10000002384,57415.10000002384,59876.60000002384,63763.10000002384],"key_events":[],"mouse_events":[29935.5,30485.30000001192,30994,31510.69999998808,34616.30000001192,38077.10000002384,39616.60000002384,41107.69999998808,44529.30000001192,45158.5,49353.80000001192,52145,54725,55594.10000002384,57415.10000002384,59876.60000002384,63763.10000002384,64614],"straightlining":0.45454545454545453,"zigzagging":0.4,"honeypot":0,"survey":"neuroticism","trial_type":"survey-template","trial_index":4,"time_elapsed":211106,"internal_node_id":"0.0-4.0","experiment":"validation","task_version":"1.1","jspsych_version":"6.3.1","infrequency":0},{"value":[1,1.4805194805194806,1.7333333333333334],"trial_type":"call-function","trial_index":5,"time_elapsed":211112,"internal_node_id":"0.0-5.0","experiment":"validation","task_version":"1.1","jspsych_version":"6.3.1","interactions":"[]"}]