[{"view_history":[{"page_index":0,"viewing_time":5551.4000000059605}],"rt":5552.5,"trial_type":"instructions","trial_index":0,"time_elapsed":5627,"internal_node_id":"0.0-0.0","experiment":"validation","task_version":"1.1","jspsych_version":"6.3.1"},{"rt":17772.79999998212,"responses":{"age":"31","gender-categorical":"Male","gender-free-response":"","ethnicity":"Not Hispanic or Latino","race":["Black or African American"],"education":"Bachelor degree"},"survey":"demographics","trial_type":"survey-demo","trial_index":1,"time_elapsed":23529,"internal_node_id":"0.0-1.0","experiment":"validation","task_version":"1.1","jspsych_version":"6.3.1"},{"responses":{"Q03":"3","Q04":"1","Q05":"3","Q06":"3","Q07":"2","Q02":"3","Q01":"2"},"rt":50209.70000001788,"item_order":[2,3,4,5,6,1,0],"radio_events":[26527.100000023842,30174.40000000596,37495.90000000596,38878.70000001788,41231.5,45088,49080.10000002384],"key_events":[],"mouse_events":[25510.80000001192,26527.100000023842,29185,30174.40000000596,31223.80000001192,34671,35774,37046.60000002384,37495.90000000596,38878.70000001788,41231.5,45088,48430.5,49080.10000002384,50206.70000001788],"straightlining":0.5714285714285714,"zigzagging":0.5,"honeypot":0,"survey":"nfc6","trial_type":"survey-template","trial_index":2,"time_elapsed":73751,"internal_node_id":"0.0-2.0","experiment":"validation","task_version":"1.1","jspsych_version":"6.3.1","infrequency":0},{"responses":{"Q03":"1","Q09":"3","Q11":"0","Q04":"1","Q05":"1","Q01":"3","Q10":"1","Q06":"2","Q02":"3","Q07":"4","Q08":"1"},"rt":79887.19999998808,"item_order":[2,8,10,3,4,0,9,5,1,6,7],"radio_events":[5236.0999999940395,8308,12517.09999999404,16628.19999998808,19636.19999998808,21236.5,62243.90000000596,65068.09999999404,69844,71533.30000001192,76949,79044.59999999404],"key_events":[],"mouse_events":[412.40000000596046,5236.0999999940395,8308,12517.09999999404,16628.19999998808,18620.09999999404,19636.19999998808,20516.09999999404,21236.5,62243.90000000596,65068.09999999404,69844,71533.30000001192,74596.19999998808,76949,79044.59999999404,79883.69999998808],"straightlining":0.5454545454545454,"zigzagging":0.3,"honeypot":0,"survey":"openness","trial_type":"survey-template","trial_index":3,"time_elapsed":153646,"internal_node_id":"0.0-3.0","experiment":"validation","task_version":"1.1","jspsych_version":"6.3.1","infrequency":0},{"responses":{"Q04":"3","Q08":"1","Q07":"2","Q01":"2","Q02":"0","Q09":"2","Q10":"1","Q03":"3","Q11":"3","Q06":"2","Q05":"2"},"rt":37561.40000000596,"item_order":[3,7,6,0,1,8,9,2,10,5,4],"radio_events":[6646.5999999940395,7589.800000011921,10230.200000017881,12542.09999999404,16006,19022.40000000596,22214.09999999404,23326.20000001788,24686.09999999404,26287.5,29990.40000000596,32157.90000000596,34702.80000001192],"key_events":[],"mouse_events":[6646.5999999940395,7589.800000011921,10230.200000017881,12542.09999999404,16006,18089.5,19022.40000000596,22214.09999999404,23326.20000001788,24686.09999999404,26287.5,29990.40000000596,31559.70000001788,32157.90000000596,33422.40000000596,34112.90000000596,34702.80000001192,36005.90000000596,37558.30000001192],"straightlining":0.45454545454545453,"zigzagging":0.3,"honeypot":0,"survey":"neuroticism","trial_type":"survey-template","trial_index":4,"time_elapsed":191215,"internal_node_id":"0.0-4.0","experiment":"validation","task_version":"1.1","jspsych_version":"6.3.1","infrequency":0},{"value":[0,1.5714285714285714,1.1],"trial_type":"call-function","trial_index":5,"time_elapsed":191219,"internal_node_id":"0.0-5.0","experiment":"validation","task_version":"1.1","jspsych_version":"6.3.1","interactions":"[{\"event\":\"blur\",\"trial\":2,\"time\":27023},{\"event\":\"focus\",\"trial\":2,\"time\":45744},{\"event\":\"blur\",\"trial\":3,\"time\":97353},{\"event\":\"focus\",\"trial\":3,\"time\":129068}]"}]