[{"view_history":[{"page_index":0,"viewing_time":2827.7000000029802}],"rt":2828.2000000029802,"trial_type":"instructions","trial_index":0,"time_elapsed":3002,"internal_node_id":"0.0-0.0","experiment":"validation","task_version":"1.1","jspsych_version":"6.3.1"},{"rt":23045.09999999404,"responses":{"age":"54","gender-categorical":"Male","gender-free-response":"","ethnicity":"Not Hispanic or Latino","race":["White"],"education":"High school"},"survey":"demographics","trial_type":"survey-demo","trial_index":1,"time_elapsed":26050,"internal_node_id":"0.0-1.0","experiment":"validation","task_version":"1.1","jspsych_version":"6.3.1"},{"responses":{"Q04":"3","Q01":"3","Q07":"2","Q02":"3","Q03":"3","Q06":"3","Q05":"4"},"rt":27101.09999999404,"item_order":[3,0,6,1,2,5,4],"radio_events":[5316.4000000059605,8212,11428,15963.70000000298,18404.20000000298,22564,25868],"key_events":[],"mouse_events":[5316.4000000059605,8212,11428,15963.70000000298,18404.20000000298,22564,24620.90000000596,25868,27099.59999999404],"straightlining":0.42857142857142855,"zigzagging":0.5,"honeypot":0,"survey":"nfc6","trial_type":"survey-template","trial_index":2,"time_elapsed":53171,"internal_node_id":"0.0-2.0","experiment":"validation","task_version":"1.1","jspsych_version":"6.3.1","infrequency":0},{"responses":{"Q08":"1","Q05":"1","Q03":"1","Q11":"4","Q07":"1","Q09":"1","Q04":"2","Q02":"2","Q01":"1","Q10":"1","Q06":"4"},"rt":35254.40000000596,"item_order":[7,4,2,10,6,8,3,1,0,9,5],"radio_events":[5477.5,8965.59999999404,9877.5,12445.20000000298,16029.59999999404,20013.40000000596,22325.40000000596,23309.40000000596,29205.5,30349.29999999702,33917.59999999404],"key_events":[],"mouse_events":[5477.5,6461.4000000059605,8965.59999999404,9877.5,12445.20000000298,16029.59999999404,20013.40000000596,22325.40000000596,23309.40000000596,25085.29999999702,29205.5,30349.29999999702,33917.59999999404,35253.09999999404],"straightlining":0.36363636363636365,"zigzagging":0.3,"honeypot":0,"survey":"neuroticism","trial_type":"survey-template","trial_index":3,"time_elapsed":88435,"internal_node_id":"0.0-3.0","experiment":"validation","task_version":"1.1","jspsych_version":"6.3.1","infrequency":0},{"responses":{"Q10":"0","Q11":"0","Q06":"3","Q01":"2","Q05":"1","Q02":"3","Q04":"2","Q08":"3","Q09":"3","Q03":"0","Q07":"4"},"rt":29612.29999999702,"item_order":[9,10,5,0,4,1,3,7,8,2,6],"radio_events":[4803,5859.20000000298,9219,11075.20000000298,14483.10000000894,17467.10000000894,19787.10000000894,22675.10000000894,25171.10000000894,27267.20000000298,28371.90000000596],"key_events":[],"mouse_events":[4803,5859.20000000298,9219,11075.20000000298,14483.10000000894,17467.10000000894,19787.10000000894,22675.10000000894,25171.10000000894,27267.20000000298,28371.90000000596,29611.10000000894],"straightlining":0.2727272727272727,"zigzagging":0.7,"honeypot":0,"survey":"openness","trial_type":"survey-template","trial_index":4,"time_elapsed":118051,"internal_node_id":"0.0-4.0","experiment":"validation","task_version":"1.1","jspsych_version":"6.3.1","infrequency":0},{"value":[0,1.0649350649350648,1.5],"trial_type":"call-function","trial_index":5,"time_elapsed":118059,"internal_node_id":"0.0-5.0","experiment":"validation","task_version":"1.1","jspsych_version":"6.3.1","interactions":"[]"}]