[{"view_history":[{"page_index":0,"viewing_time":8284.699999809265}],"rt":8286.89999961853,"trial_type":"instructions","trial_index":0,"time_elapsed":8316,"internal_node_id":"0.0-0.0","experiment":"validation","task_version":"1.1","jspsych_version":"6.3.1"},{"rt":20034.10000038147,"responses":{"age":"27","gender-categorical":"Male","gender-free-response":"","ethnicity":"Not Hispanic or Latino","race":["White"],"education":"Some college"},"survey":"demographics","trial_type":"survey-demo","trial_index":1,"time_elapsed":28352,"internal_node_id":"0.0-1.0","experiment":"validation","task_version":"1.1","jspsych_version":"6.3.1"},{"responses":{"Q06":"2","Q11":"0","Q02":"3","Q01":"3","Q04":"2","Q07":"2","Q05":"1","Q09":"2","Q10":"3","Q03":"3","Q08":"2"},"rt":54959.800000190735,"item_order":[5,10,1,0,3,6,4,8,9,2,7],"radio_events":[16427.89999961853,19006.199999809265,21999.800000190735,23813.10000038147,27440.699999809265,32306.5,36283.39999961853,41945.699999809265,43469.699999809265,48185.89999961853,49896.199999809265,53246.800000190735],"key_events":[],"mouse_events":[2405.300000190735,16427.89999961853,19006.199999809265,21999.800000190735,23813.10000038147,27440.699999809265,32306.5,33474.699999809265,36283.39999961853,41945.699999809265,43469.699999809265,48185.89999961853,49896.199999809265,53246.800000190735,54953.39999961853],"straightlining":0.45454545454545453,"zigzagging":0.5,"honeypot":0,"survey":"openness","trial_type":"survey-template","trial_index":2,"time_elapsed":83322,"internal_node_id":"0.0-2.0","experiment":"validation","task_version":"1.1","jspsych_version":"6.3.1","infrequency":0},{"responses":{"Q03":"3","Q02":"4","Q06":"3","Q05":"3","Q07":"2","Q04":"3","Q01":"3"},"rt":66371.19999980927,"item_order":[2,1,5,4,6,3,0],"radio_events":[14892.599999427795,20765.800000190735,32562.599999427795,37986.599999427795,42948.300000190735,59777.199999809265,64878.89999961853],"key_events":[],"mouse_events":[14892.599999427795,20765.800000190735,32562.599999427795,37986.599999427795,42948.300000190735,44216.599999427795,59777.199999809265,64878.89999961853,66366],"straightlining":0.42857142857142855,"zigzagging":0.5,"honeypot":0,"survey":"nfc6","trial_type":"survey-template","trial_index":3,"time_elapsed":149711,"internal_node_id":"0.0-3.0","experiment":"validation","task_version":"1.1","jspsych_version":"6.3.1","infrequency":0},{"responses":{"Q04":"3","Q11":"4","Q09":"3","Q10":"1","Q06":"3","Q08":"1","Q05":"3","Q03":"1","Q02":"0","Q01":"0","Q07":"0"},"rt":69152.69999980927,"item_order":[3,10,8,9,5,7,4,2,1,0,6],"radio_events":[5119.60000038147,9884.10000038147,24530.300000190735,27240.5,30022.800000190735,32095.5,35567.699999809265,38782.60000038147,41220.699999809265,43579.800000190735,45024.699999809265,53579.699999809265,54602.699999809265,66998.69999980927,68075.89999961853],"key_events":[],"mouse_events":[5119.60000038147,9884.10000038147,10931.60000038147,24530.300000190735,27240.5,30022.800000190735,32095.5,33132,35567.699999809265,38782.60000038147,41220.699999809265,43579.800000190735,45024.699999809265,53579.699999809265,54602.699999809265,66998.69999980927,68075.89999961853,69146.10000038147],"straightlining":0.36363636363636365,"zigzagging":0.3,"honeypot":0,"survey":"neuroticism","trial_type":"survey-template","trial_index":4,"time_elapsed":218867,"internal_node_id":"0.0-4.0","experiment":"validation","task_version":"1.1","jspsych_version":"6.3.1","infrequency":0},{"value":[0,1.2467532467532467,1.3],"trial_type":"call-function","trial_index":5,"time_elapsed":218873,"internal_node_id":"0.0-5.0","experiment":"validation","task_version":"1.1","jspsych_version":"6.3.1","interactions":"[]"}]