[{"view_history":[{"page_index":0,"viewing_time":5498.60000000149}],"rt":5499.20000000298,"trial_type":"instructions","trial_index":0,"time_elapsed":5512,"internal_node_id":"0.0-0.0","experiment":"validation","task_version":"1.1","jspsych_version":"6.3.1"},{"rt":9621.69999999553,"responses":{"age":"35","gender-categorical":"Male","gender-free-response":"","ethnicity":"Not Hispanic or Latino","race":["White"],"education":"Bachelor degree"},"survey":"demographics","trial_type":"survey-demo","trial_index":1,"time_elapsed":15136,"internal_node_id":"0.0-1.0","experiment":"validation","task_version":"1.1","jspsych_version":"6.3.1"},{"responses":{"Q05":"4","Q06":"4","Q04":"3","Q03":"3","Q01":"3","Q02":"3","Q07":"2"},"rt":37431.30000000447,"item_order":[4,5,3,2,0,1,6],"radio_events":[3871.7000000029802,5506.10000000149,10021.60000000149,23709.5,28393.89999999851,29837.60000000149,31786,34361.70000000298,36833.60000000149],"key_events":[],"mouse_events":[3871.7000000029802,5506.10000000149,10021.60000000149,23709.5,27929.70000000298,28393.89999999851,29837.60000000149,31786,34361.70000000298,36833.60000000149,37430.20000000298],"straightlining":0.2857142857142857,"zigzagging":0.16666666666666666,"honeypot":0,"survey":"nfc6","trial_type":"survey-template","trial_index":2,"time_elapsed":52573,"internal_node_id":"0.0-2.0","experiment":"validation","task_version":"1.1","jspsych_version":"6.3.1","infrequency":0},{"responses":{"Q03":"1","Q01":"1","Q10":"1","Q02":"1","Q09":"1","Q04":"0","Q11":"4","Q05":"1","Q07":"1","Q08":"1","Q06":"1"},"rt":38370.19999999553,"item_order":[2,0,9,1,8,3,10,4,6,7,5],"radio_events":[4118.79999999702,4721.19999999553,6841.10000000149,8209,9612.79999999702,11776.79999999702,16463,18124.89999999851,22644.89999999851,23466.89999999851,37174.89999999851],"key_events":[],"mouse_events":[4118.79999999702,4721.19999999553,5752.79999999702,6841.10000000149,8209,9612.79999999702,11776.79999999702,16463,18124.89999999851,22644.89999999851,23466.89999999851,24007.29999999702,27053.10000000149,27757.39999999851,32999.29999999702,33403.19999999553,33559.19999999553,37174.89999999851,38369],"straightlining":0.45454545454545453,"zigzagging":0.1,"honeypot":0,"survey":"neuroticism","trial_type":"survey-template","trial_index":3,"time_elapsed":90948,"internal_node_id":"0.0-3.0","experiment":"validation","task_version":"1.1","jspsych_version":"6.3.1","infrequency":0},{"responses":{"Q08":"1","Q06":"1","Q09":"2","Q10":"3","Q05":"1","Q07":"3","Q01":"3","Q04":"3","Q02":"3","Q03":"3","Q11":"0"},"rt":23848.79999999702,"item_order":[7,5,8,9,4,6,0,3,1,2,10],"radio_events":[3801.89999999851,6037.39999999851,7561.89999999851,9040.79999999702,10462,11897.39999999851,15656.20000000298,16995.89999999851,19257.79999999702,20239.5,22396],"key_events":[],"mouse_events":[3801.89999999851,6037.39999999851,7561.89999999851,9040.79999999702,10462,11897.39999999851,13467.79999999702,15656.20000000298,16995.89999999851,19257.79999999702,20239.5,22396,23847.60000000149],"straightlining":0.5454545454545454,"zigzagging":0.2,"honeypot":0,"survey":"openness","trial_type":"survey-template","trial_index":4,"time_elapsed":114802,"internal_node_id":"0.0-4.0","experiment":"validation","task_version":"1.1","jspsych_version":"6.3.1","infrequency":0},{"value":[0,1.2857142857142856,0.4666666666666667],"trial_type":"call-function","trial_index":5,"time_elapsed":114806,"internal_node_id":"0.0-5.0","experiment":"validation","task_version":"1.1","jspsych_version":"6.3.1","interactions":"[{\"event\":\"blur\",\"trial\":3,\"time\":81821},{\"event\":\"focus\",\"trial\":3,\"time\":84457}]"}]