[{"success":true,"timeout":false,"failed_images":[],"failed_audio":[],"failed_video":[],"trial_type":"preload","trial_index":0,"time_elapsed":2029,"internal_node_id":"0.0-0.0","experiment":"validation","task_version":"1.1","jspsych_version":"6.3.1"},{"success":true,"trial_type":"fullscreen","trial_index":1,"time_elapsed":7393,"internal_node_id":"0.0-1.0","experiment":"validation","task_version":"1.1","jspsych_version":"6.3.1"},{"view_history":[{"page_index":0,"viewing_time":3268.2999999970198},{"page_index":1,"viewing_time":5841.9000000059605},{"page_index":2,"viewing_time":4797.89999999851},{"page_index":3,"viewing_time":3194}],"rt":17103.20000000298,"trial_type":"instructions","trial_index":2,"time_elapsed":24498,"internal_node_id":"0.0-3.0","experiment":"validation","task_version":"1.1","jspsych_version":"6.3.1"},{"item":5,"shape_set":1,"distractor":"pd","choice_order":[2,0,1,3],"correct":0,"choice":0,"accuracy":1,"rt":2392.8000000044703,"screen_resolution":[1920,937],"minimum_resolution":1,"all_loaded":true,"item_set":"practice","trial_type":"mars","trial_index":3,"time_elapsed":27645,"internal_node_id":"0.0-4.0-0.0","experiment":"validation","task_version":"1.1","jspsych_version":"6.3.1"},{"item":2,"shape_set":1,"distractor":"pd","choice_order":[3,2,1,0],"correct":0,"choice":0,"accuracy":1,"rt":4008.7999999970198,"screen_resolution":[1920,937],"minimum_resolution":1,"all_loaded":true,"item_set":"practice","trial_type":"mars","trial_index":4,"time_elapsed":32415,"internal_node_id":"0.0-5.0-0.0","experiment":"validation","task_version":"1.1","jspsych_version":"6.3.1"},{"item":8,"shape_set":1,"distractor":"pd","choice_order":[2,0,3,1],"correct":0,"choice":2,"accuracy":0,"rt":13158.89999999851,"screen_resolution":[1920,937],"minimum_resolution":1,"all_loaded":true,"item_set":"practice","trial_type":"mars","trial_index":5,"time_elapsed":46337,"internal_node_id":"0.0-6.0-0.0","experiment":"validation","task_version":"1.1","jspsych_version":"6.3.1"},{"item":8,"shape_set":1,"distractor":"pd","choice_order":[1,2,3,0],"correct":0,"choice":0,"accuracy":1,"rt":7050.70000000298,"screen_resolution":[1920,937],"minimum_resolution":1,"all_loaded":true,"item_set":"practice","trial_type":"mars","trial_index":6,"time_elapsed":54151,"internal_node_id":"0.0-6.1-0.1","experiment":"validation","task_version":"1.1","jspsych_version":"6.3.1"},{"view_history":[{"page_index":0,"viewing_time":1359},{"page_index":1,"viewing_time":6900.20000000298}],"rt":8259.40000000596,"trial_type":"instructions","trial_index":7,"time_elapsed":62420,"internal_node_id":"0.0-7.0","experiment":"validation","task_version":"1.1","jspsych_version":"6.3.1"},{"rt":null,"stimulus":"<div style=\"font-size:24px;\">Loading puzzle:<br>1 / 12</div>","response":null,"trial_type":"html-keyboard-response","trial_index":8,"time_elapsed":63625,"internal_node_id":"0.0-8.0-1.0","experiment":"validation","task_version":"1.1","jspsych_version":"6.3.1"},{"item":71,"shape_set":1,"distractor":"pd","choice_order":[2,3,0,1],"correct":0,"choice":0,"accuracy":1,"rt":10515.5,"screen_resolution":[1920,937],"minimum_resolution":1,"all_loaded":true,"item_set":3,"trial_type":"mars","trial_index":9,"time_elapsed":74151,"internal_node_id":"0.0-8.0-2.0","experiment":"validation","task_version":"1.1","jspsych_version":"6.3.1","browser_interactions":0},{"rt":null,"stimulus":"<div style=\"font-size:24px;\">Loading puzzle:<br>2 / 12</div>","response":null,"trial_type":"html-keyboard-response","trial_index":10,"time_elapsed":75358,"internal_node_id":"0.0-9.0-1.0","experiment":"validation","task_version":"1.1","jspsych_version":"6.3.1"},{"item":55,"shape_set":2,"distractor":"pd","choice_order":[0,1,3,2],"correct":0,"choice":0,"accuracy":1,"rt":11012.79999999702,"screen_resolution":[1920,937],"minimum_resolution":1,"all_loaded":true,"item_set":3,"trial_type":"mars","trial_index":11,"time_elapsed":86382,"internal_node_id":"0.0-9.0-2.0","experiment":"validation","task_version":"1.1","jspsych_version":"6.3.1","browser_interactions":0},{"rt":null,"stimulus":"<div style=\"font-size:24px;\">Loading puzzle:<br>3 / 12</div>","response":null,"trial_type":"html-keyboard-response","trial_index":12,"time_elapsed":87588,"internal_node_id":"0.0-10.0-1.0","experiment":"validation","task_version":"1.1","jspsych_version":"6.3.1"},{"item":30,"shape_set":3,"distractor":"pd","choice_order":[0,1,2,3],"correct":0,"choice":0,"accuracy":1,"rt":15296.70000000298,"screen_resolution":[1920,937],"minimum_resolution":1,"all_loaded":true,"item_set":3,"trial_type":"mars","trial_index":13,"time_elapsed":102897,"internal_node_id":"0.0-10.0-2.0","experiment":"validation","task_version":"1.1","jspsych_version":"6.3.1","browser_interactions":0},{"rt":null,"stimulus":"<div style=\"font-size:24px;\">Loading puzzle:<br>4 / 12</div>","response":null,"trial_type":"html-keyboard-response","trial_index":14,"time_elapsed":104107,"internal_node_id":"0.0-11.0-1.0","experiment":"validation","task_version":"1.1","jspsych_version":"6.3.1"},{"item":45,"shape_set":1,"distractor":"pd","choice_order":[2,1,0,3],"correct":0,"choice":0,"accuracy":1,"rt":8705.80000000447,"screen_resolution":[1920,937],"minimum_resolution":1,"all_loaded":true,"item_set":3,"trial_type":"mars","trial_index":15,"time_elapsed":112822,"internal_node_id":"0.0-11.0-2.0","experiment":"validation","task_version":"1.1","jspsych_version":"6.3.1","browser_interactions":0},{"rt":null,"stimulus":"<div style=\"font-size:24px;\">Loading puzzle:<br>5 / 12</div>","response":null,"trial_type":"html-keyboard-response","trial_index":16,"time_elapsed":114033,"internal_node_id":"0.0-12.0-1.0","experiment":"validation","task_version":"1.1","jspsych_version":"6.3.1"},{"item":11,"shape_set":2,"distractor":"pd","choice_order":[0,3,1,2],"correct":0,"choice":0,"accuracy":1,"rt":13449.19999999553,"screen_resolution":[1920,937],"minimum_resolution":1,"all_loaded":true,"item_set":3,"trial_type":"mars","trial_index":17,"time_elapsed":127494,"internal_node_id":"0.0-12.0-2.0","experiment":"validation","task_version":"1.1","jspsych_version":"6.3.1","browser_interactions":0},{"rt":null,"stimulus":"<div style=\"font-size:24px;\">Loading puzzle:<br>6 / 12</div>","response":null,"trial_type":"html-keyboard-response","trial_index":18,"time_elapsed":128700,"internal_node_id":"0.0-13.0-1.0","experiment":"validation","task_version":"1.1","jspsych_version":"6.3.1"},{"item":29,"shape_set":3,"distractor":"pd","choice_order":[2,1,3,0],"correct":0,"choice":0,"accuracy":1,"rt":11565.10000000149,"screen_resolution":[1920,937],"minimum_resolution":1,"all_loaded":true,"item_set":3,"trial_type":"mars","trial_index":19,"time_elapsed":140272,"internal_node_id":"0.0-13.0-2.0","experiment":"validation","task_version":"1.1","jspsych_version":"6.3.1","browser_interactions":0},{"rt":null,"stimulus":"<div style=\"font-size:24px;\">Loading puzzle:<br>7 / 12</div>","response":null,"trial_type":"html-keyboard-response","trial_index":20,"time_elapsed":141486,"internal_node_id":"0.0-14.0-1.0","experiment":"validation","task_version":"1.1","jspsych_version":"6.3.1"},{"item":16,"shape_set":1,"distractor":"md","choice_order":[2,0,3,1],"correct":0,"choice":0,"accuracy":1,"rt":10842.70000000298,"screen_resolution":[1920,937],"minimum_resolution":1,"all_loaded":true,"item_set":3,"trial_type":"mars","trial_index":21,"time_elapsed":152342,"internal_node_id":"0.0-14.0-2.0","experiment":"validation","task_version":"1.1","jspsych_version":"6.3.1","browser_interactions":0},{"rt":null,"stimulus":"<div style=\"font-size:24px;\">Loading puzzle:<br>8 / 12</div>","response":null,"trial_type":"html-keyboard-response","trial_index":22,"time_elapsed":153547,"internal_node_id":"0.0-15.0-1.0","experiment":"validation","task_version":"1.1","jspsych_version":"6.3.1"},{"item":17,"shape_set":2,"distractor":"pd","choice_order":[2,3,0,1],"correct":0,"choice":0,"accuracy":1,"rt":27209.10000000149,"screen_resolution":[1920,937],"minimum_resolution":1,"all_loaded":true,"item_set":3,"trial_type":"mars","trial_index":23,"time_elapsed":180768,"internal_node_id":"0.0-15.0-2.0","experiment":"validation","task_version":"1.1","jspsych_version":"6.3.1","browser_interactions":0},{"rt":null,"stimulus":"<div style=\"font-size:24px;\">Loading puzzle:<br>9 / 12</div>","response":null,"trial_type":"html-keyboard-response","trial_index":24,"time_elapsed":181977,"internal_node_id":"0.0-16.0-1.0","experiment":"validation","task_version":"1.1","jspsych_version":"6.3.1"},{"item":23,"shape_set":3,"distractor":"md","choice_order":[0,2,1,3],"correct":0,"choice":0,"accuracy":1,"rt":24449.29999999702,"screen_resolution":[1920,937],"minimum_resolution":1,"all_loaded":true,"item_set":3,"trial_type":"mars","trial_index":25,"time_elapsed":206436,"internal_node_id":"0.0-16.0-2.0","experiment":"validation","task_version":"1.1","jspsych_version":"6.3.1","browser_interactions":0},{"rt":null,"stimulus":"<div style=\"font-size:24px;\">Loading puzzle:<br>10 / 12</div>","response":null,"trial_type":"html-keyboard-response","trial_index":26,"time_elapsed":207645,"internal_node_id":"0.0-17.0-1.0","experiment":"validation","task_version":"1.1","jspsych_version":"6.3.1"},{"item":58,"shape_set":1,"distractor":"md","choice_order":[1,2,0,3],"correct":0,"choice":0,"accuracy":1,"rt":18450.10000000149,"screen_resolution":[1920,937],"minimum_resolution":1,"all_loaded":true,"item_set":3,"trial_type":"mars","trial_index":27,"time_elapsed":226106,"internal_node_id":"0.0-17.0-2.0","experiment":"validation","task_version":"1.1","jspsych_version":"6.3.1","browser_interactions":0},{"rt":null,"stimulus":"<div style=\"font-size:24px;\">Loading puzzle:<br>11 / 12</div>","response":null,"trial_type":"html-keyboard-response","trial_index":28,"time_elapsed":227311,"internal_node_id":"0.0-18.0-1.0","experiment":"validation","task_version":"1.1","jspsych_version":"6.3.1"},{"item":35,"shape_set":2,"distractor":"pd","choice_order":[1,0,2,3],"correct":0,"choice":0,"accuracy":1,"rt":27932.60000000149,"screen_resolution":[1920,937],"minimum_resolution":1,"all_loaded":true,"item_set":3,"trial_type":"mars","trial_index":29,"time_elapsed":255251,"internal_node_id":"0.0-18.0-2.0","experiment":"validation","task_version":"1.1","jspsych_version":"6.3.1","browser_interactions":0},{"rt":null,"stimulus":"<div style=\"font-size:24px;\">Loading puzzle:<br>12 / 12</div>","response":null,"trial_type":"html-keyboard-response","trial_index":30,"time_elapsed":256463,"internal_node_id":"0.0-19.0-1.0","experiment":"validation","task_version":"1.1","jspsych_version":"6.3.1"},{"item":76,"shape_set":3,"distractor":"pd","choice_order":[3,1,2,0],"correct":0,"choice":0,"accuracy":1,"rt":15033.80000000447,"screen_resolution":[1920,937],"minimum_resolution":1,"all_loaded":true,"item_set":3,"trial_type":"mars","trial_index":31,"time_elapsed":271499,"internal_node_id":"0.0-19.0-2.0","experiment":"validation","task_version":"1.1","jspsych_version":"6.3.1","browser_interactions":0},{"value":[0,0,0],"trial_type":"call-function","trial_index":32,"time_elapsed":271503,"internal_node_id":"0.0-20.0","experiment":"validation","task_version":"1.1","jspsych_version":"6.3.1"},{"view_history":[{"page_index":0,"viewing_time":2477.89999999851}],"rt":2478.0999999940395,"trial_type":"instructions","trial_index":33,"time_elapsed":273982,"internal_node_id":"0.0-21.0","experiment":"validation","task_version":"1.1","jspsych_version":"6.3.1","interactions":"[{\"event\":\"fullscreenenter\",\"trial\":1,\"time\":6449},{\"event\":\"fullscreenexit\",\"trial\":2,\"time\":7488}]"}]