[{"view_history":[{"page_index":0,"viewing_time":2010.199999999255}],"rt":2010.8999999985099,"trial_type":"instructions","trial_index":0,"time_elapsed":2048,"internal_node_id":"0.0-0.0","experiment":"validation","task_version":"1.1","jspsych_version":"6.3.1"},{"rt":14973.300000000745,"responses":{"age":"61","gender-categorical":"Male","gender-free-response":"","ethnicity":"Not Hispanic or Latino","race":["White"],"education":"Bachelor degree"},"survey":"demographics","trial_type":"survey-demo","trial_index":1,"time_elapsed":17029,"internal_node_id":"0.0-1.0","experiment":"validation","task_version":"1.1","jspsych_version":"6.3.1"},{"responses":{"Q07":"0","Q01":"0","Q05":"0","Q03":"0","Q04":"0","Q08":"1","Q10":"1","Q09":"1","Q11":"4","Q06":"1","Q02":"0"},"rt":28196.89999999851,"item_order":[6,0,4,2,3,7,9,8,10,5,1],"radio_events":[3224.199999999255,4696.300000000745,7536.300000000745,8576.300000000745,10608.699999999255,12144.199999999255,15560,16944.39999999851,19080.5,20016.099999997765,22344.300000000745,24672.199999999255,26728.300000000745],"key_events":[],"mouse_events":[3224.199999999255,4696.300000000745,7536.300000000745,8576.300000000745,9720.5,10608.699999999255,12144.199999999255,12887.39999999851,15560,16944.39999999851,19080.5,20016.099999997765,22344.300000000745,24672.199999999255,26728.300000000745,28192.5],"straightlining":0.45454545454545453,"zigzagging":0.3,"honeypot":0,"survey":"neuroticism","trial_type":"survey-template","trial_index":2,"time_elapsed":45238,"internal_node_id":"0.0-2.0","experiment":"validation","task_version":"1.1","jspsych_version":"6.3.1","infrequency":0},{"responses":{"Q01":"3","Q06":"4","Q07":"2","Q05":"4","Q03":"3","Q04":"4","Q02":"3"},"rt":31789.599999997765,"item_order":[0,5,6,4,2,3,1],"radio_events":[4851.29999999702,11115.599999997765,14586.89999999851,17683.099999997765,20499,22227.199999999255,23562.89999999851,27251.099999997765,30867.199999999255],"key_events":[],"mouse_events":[4851.29999999702,11115.599999997765,14586.89999999851,17683.099999997765,20499,22227.199999999255,23562.89999999851,27251.099999997765,30867.199999999255,31787.099999997765],"straightlining":0.2857142857142857,"zigzagging":0.3333333333333333,"honeypot":0,"survey":"nfc6","trial_type":"survey-template","trial_index":3,"time_elapsed":77034,"internal_node_id":"0.0-3.0","experiment":"validation","task_version":"1.1","jspsych_version":"6.3.1","infrequency":0},{"responses":{"Q03":"0","Q01":"4","Q02":"4","Q11":"0","Q06":"4","Q10":"0","Q05":"0","Q04":"0","Q08":"4","Q07":"4","Q09":"4"},"rt":27934.10000000149,"item_order":[2,0,1,10,5,9,4,3,7,6,8],"radio_events":[5321.20000000298,7593.5,8449.800000000745,10866,12242.300000000745,14625.900000002235,17569.800000000745,19385.800000000745,21761.800000000745,24449.900000002235,25089.800000000745],"key_events":[],"mouse_events":[5321.20000000298,7593.5,8449.800000000745,10866,12242.300000000745,14625.900000002235,17569.800000000745,19385.800000000745,21761.800000000745,22378,23577.800000000745,24449.900000002235,25089.800000000745,27930.300000000745],"straightlining":0.5454545454545454,"zigzagging":0.4,"honeypot":0,"survey":"openness","trial_type":"survey-template","trial_index":4,"time_elapsed":104974,"internal_node_id":"0.0-4.0","experiment":"validation","task_version":"1.1","jspsych_version":"6.3.1","infrequency":0},{"value":[0,1.2857142857142856,1.0333333333333332],"trial_type":"call-function","trial_index":5,"time_elapsed":104979,"internal_node_id":"0.0-5.0","experiment":"validation","task_version":"1.1","jspsych_version":"6.3.1","interactions":"[]"}]