[{"view_history":[{"page_index":0,"viewing_time":2283}],"rt":2283.2999999970198,"trial_type":"instructions","trial_index":0,"time_elapsed":2324,"internal_node_id":"0.0-0.0","experiment":"validation","task_version":"1.1","jspsych_version":"6.3.1"},{"rt":9311.20000000298,"responses":{"age":"33","gender-categorical":"Male","gender-free-response":"","ethnicity":"Not Hispanic or Latino","race":["White"],"education":"Master degree or higher"},"survey":"demographics","trial_type":"survey-demo","trial_index":1,"time_elapsed":11639,"internal_node_id":"0.0-1.0","experiment":"validation","task_version":"1.1","jspsych_version":"6.3.1"},{"responses":{"Q09":"0","Q03":"0","Q01":"0","Q10":"0","Q04":"0","Q06":"4","Q08":"4","Q05":"0","Q11":"0","Q07":"0","Q02":"1"},"rt":32721.19999998808,"item_order":[8,2,0,9,3,5,7,4,10,6,1],"radio_events":[5532.199999988079,6827.0999999940395,8983,13719.5,15195.89999999106,19008.29999999702,22063.5,23806.79999999702,25187.89999999106,27375,28914.59999999404,31810.79999999702],"key_events":[],"mouse_events":[3014.8999999910593,5532.199999988079,6827.0999999940395,8983,13719.5,14564.39999999106,15195.89999999106,19008.29999999702,21021.19999998808,22063.5,23806.79999999702,25187.89999999106,27375,28914.59999999404,31810.79999999702,32719.29999999702],"straightlining":0.45454545454545453,"zigzagging":0.6,"honeypot":0,"survey":"openness","trial_type":"survey-template","trial_index":2,"time_elapsed":44370,"internal_node_id":"0.0-2.0","experiment":"validation","task_version":"1.1","jspsych_version":"6.3.1","infrequency":0},{"responses":{"Q05":"3","Q01":"3","Q07":"2","Q02":"3","Q03":"4","Q04":"4","Q06":"3"},"rt":25456.90000000596,"item_order":[4,0,6,1,2,3,5],"radio_events":[4648.4000000059605,6969.4000000059605,9479.40000000596,13150.29999999702,16370.29999999702,19812.5,24618.29999999702],"key_events":[],"mouse_events":[4648.4000000059605,6969.4000000059605,9479.40000000596,13150.29999999702,15384.90000000596,15968.90000000596,16370.29999999702,18943.70000000298,19812.5,24618.29999999702,25455.79999999702],"straightlining":0.5714285714285714,"zigzagging":0.3333333333333333,"honeypot":0,"survey":"nfc6","trial_type":"survey-template","trial_index":3,"time_elapsed":69834,"internal_node_id":"0.0-3.0","experiment":"validation","task_version":"1.1","jspsych_version":"6.3.1","infrequency":0},{"responses":{"Q07":"1","Q01":"1","Q09":"1","Q03":"1","Q02":"0","Q11":"4","Q08":"0","Q05":"0","Q06":"3","Q04":"0","Q10":"2"},"rt":31287.29999999702,"item_order":[6,0,8,2,1,10,7,4,5,3,9],"radio_events":[3882.7999999970198,5421.70000000298,7837.70000000298,9249.70000000298,11438,13490.59999999404,19158.5,21455.59999999404,24952.90000000596,26358.09999999404,28789.59999999404,30052.5],"key_events":[],"mouse_events":[3882.7999999970198,5421.70000000298,7837.70000000298,9249.70000000298,10307.79999999702,11438,13490.59999999404,17849,19158.5,20572.09999999404,21455.59999999404,24361.5,24952.90000000596,26358.09999999404,27653,28789.59999999404,30052.5,31285.09999999404],"straightlining":0.2727272727272727,"zigzagging":0.5,"honeypot":0,"survey":"neuroticism","trial_type":"survey-template","trial_index":4,"time_elapsed":101128,"internal_node_id":"0.0-4.0","experiment":"validation","task_version":"1.1","jspsych_version":"6.3.1","infrequency":0},{"value":[0,1.2987012987012987,1.4333333333333333],"trial_type":"call-function","trial_index":5,"time_elapsed":101135,"internal_node_id":"0.0-5.0","experiment":"validation","task_version":"1.1","jspsych_version":"6.3.1","interactions":"[]"}]