[{"view_history":[{"page_index":0,"viewing_time":2833.2999992370605}],"rt":2834,"trial_type":"instructions","trial_index":0,"time_elapsed":2856,"internal_node_id":"0.0-0.0","experiment":"validation","task_version":"1.1","jspsych_version":"6.3.1"},{"rt":20752.60000038147,"responses":{"age":"23","gender-categorical":"Female","gender-free-response":"","ethnicity":"Not Hispanic or Latino","race":["White"],"education":"Some college"},"survey":"demographics","trial_type":"survey-demo","trial_index":1,"time_elapsed":23612,"internal_node_id":"0.0-1.0","experiment":"validation","task_version":"1.1","jspsych_version":"6.3.1"},{"responses":{"Q04":"2","Q01":"1","Q03":"4","Q07":"2","Q06":"2","Q02":"1","Q05":"2"},"rt":45486.20000076294,"item_order":[3,0,2,6,5,1,4],"radio_events":[15999.30000114441,18430.60000038147,21137.10000038147,23782.40000152588,34037.20000076294,37198.10000038147,44331],"key_events":[],"mouse_events":[15999.30000114441,18430.60000038147,21137.10000038147,23782.40000152588,34037.20000076294,37198.10000038147,44331,45484.80000114441],"straightlining":0.5714285714285714,"zigzagging":0.6666666666666666,"honeypot":0,"survey":"nfc6","trial_type":"survey-template","trial_index":2,"time_elapsed":69102,"internal_node_id":"0.0-2.0","experiment":"validation","task_version":"1.1","jspsych_version":"6.3.1","infrequency":0},{"responses":{"Q08":"3","Q11":"0","Q10":"4","Q09":"4","Q04":"2","Q01":"4","Q07":"4","Q06":"4","Q02":"2","Q05":"0","Q03":"4"},"rt":42343.39999961853,"item_order":[7,10,9,8,3,0,6,5,1,4,2],"radio_events":[6570.10000038147,8523.60000038147,12616.70000076294,14909.70000076294,17416.5,19136.89999961853,21022.60000038147,25735.79999923706,28567.39999961853,30249.10000038147,38588.60000038147,41239.5],"key_events":[],"mouse_events":[6570.10000038147,8523.60000038147,12616.70000076294,14909.70000076294,17416.5,19136.89999961853,21022.60000038147,25735.79999923706,28567.39999961853,30249.10000038147,38588.60000038147,41239.5,42341.60000038147],"straightlining":0.45454545454545453,"zigzagging":0.2,"honeypot":0,"survey":"openness","trial_type":"survey-template","trial_index":3,"time_elapsed":111449,"internal_node_id":"0.0-3.0","experiment":"validation","task_version":"1.1","jspsych_version":"6.3.1","infrequency":0},{"responses":{"Q07":"4","Q05":"4","Q11":"4","Q02":"4","Q03":"4","Q10":"3","Q08":"2","Q06":"4","Q09":"3","Q04":"3","Q01":"4"},"rt":32816.39999961853,"item_order":[6,4,10,1,2,9,7,5,8,3,0],"radio_events":[4607.200000762939,6191.89999961853,10483.10000038147,12123.10000038147,13818.89999961853,15269,19337.20000076294,21391.10000038147,24709.39999961853,27314.5,28683.5],"key_events":[],"mouse_events":[4607.200000762939,6191.89999961853,7778.60000038147,9244.10000038147,10483.10000038147,11413.5,12123.10000038147,13818.89999961853,15269,19337.20000076294,21391.10000038147,24709.39999961853,27314.5,28683.5,32814.80000114441],"straightlining":0.45454545454545453,"zigzagging":0.4,"honeypot":0,"survey":"neuroticism","trial_type":"survey-template","trial_index":4,"time_elapsed":144269,"internal_node_id":"0.0-4.0","experiment":"validation","task_version":"1.1","jspsych_version":"6.3.1","infrequency":0},{"value":[0,1.4805194805194806,1.2666666666666666],"trial_type":"call-function","trial_index":5,"time_elapsed":144271,"internal_node_id":"0.0-5.0","experiment":"validation","task_version":"1.1","jspsych_version":"6.3.1","interactions":"[]"}]