[{"view_history":[{"page_index":0,"viewing_time":1333.800000011921}],"rt":1334,"trial_type":"instructions","trial_index":0,"time_elapsed":1364,"internal_node_id":"0.0-0.0","experiment":"validation","task_version":"1.1","jspsych_version":"6.3.1"},{"rt":17137.5,"responses":{"age":"29","gender-categorical":"Male","gender-free-response":"","ethnicity":"Not Hispanic or Latino","race":["Asian","White"],"education":"Master degree or higher"},"survey":"demographics","trial_type":"survey-demo","trial_index":1,"time_elapsed":18504,"internal_node_id":"0.0-1.0","experiment":"validation","task_version":"1.1","jspsych_version":"6.3.1"},{"responses":{"Q01":"3","Q07":"2","Q04":"3","Q02":"3","Q06":"2","Q03":"3","Q05":"3"},"rt":61528.80000001192,"item_order":[0,6,3,1,5,2,4],"radio_events":[30265,32696.600000023842,38309.40000003576,42002.30000001192,49525.200000047684,52239.10000002384,59843.200000047684,60929],"key_events":[],"mouse_events":[30265,32696.600000023842,38309.40000003576,42002.30000001192,49525.200000047684,52239.10000002384,59843.200000047684,60929,61527.10000002384],"straightlining":0.42857142857142855,"zigzagging":0.6666666666666666,"honeypot":0,"survey":"nfc6","trial_type":"survey-template","trial_index":2,"time_elapsed":80037,"internal_node_id":"0.0-2.0","experiment":"validation","task_version":"1.1","jspsych_version":"6.3.1","infrequency":0},{"responses":{"Q06":"3","Q07":"1","Q02":"0","Q08":"0","Q09":"1","Q05":"0","Q10":"1","Q01":"0","Q03":"1","Q04":"0","Q11":"4"},"rt":35434.39999997616,"item_order":[5,6,1,7,8,4,9,0,2,3,10],"radio_events":[4314,6220.299999952316,7573.5,8990.299999952316,12972,14812.5,17818.099999964237,19746,29373.5,32362.399999976158,34982.09999996424],"key_events":[],"mouse_events":[4314,6220.299999952316,7573.5,8990.299999952316,12972,14812.5,17818.099999964237,19746,29373.5,32362.399999976158,33858.5,34982.09999996424,35432.39999997616],"straightlining":0.36363636363636365,"zigzagging":0.5,"honeypot":0,"survey":"neuroticism","trial_type":"survey-template","trial_index":3,"time_elapsed":115475,"internal_node_id":"0.0-3.0","experiment":"validation","task_version":"1.1","jspsych_version":"6.3.1","infrequency":0},{"responses":{"Q08":"4","Q03":"1","Q09":"2","Q02":"3","Q11":"0","Q04":"1","Q07":"4","Q01":"4","Q10":"4","Q06":"4","Q05":"0"},"rt":24351.599999964237,"item_order":[7,2,8,1,10,3,6,0,9,5,4],"radio_events":[2558.599999964237,6044.099999964237,7170.099999964237,10146.099999964237,12144.5,14616.699999988079,16072,18116.099999964237,20193.69999998808,22507.69999998808,23867.80000001192],"key_events":[],"mouse_events":[2558.599999964237,4322.199999988079,6044.099999964237,7170.099999964237,10146.099999964237,12144.5,13963.699999988079,14616.699999988079,16072,18116.099999964237,20193.69999998808,22507.69999998808,23867.80000001192,24350.5],"straightlining":0.45454545454545453,"zigzagging":0.6,"honeypot":0,"survey":"openness","trial_type":"survey-template","trial_index":4,"time_elapsed":139830,"internal_node_id":"0.0-4.0","experiment":"validation","task_version":"1.1","jspsych_version":"6.3.1","infrequency":0},{"value":[0,1.2467532467532467,1.7666666666666666],"trial_type":"call-function","trial_index":5,"time_elapsed":139832,"internal_node_id":"0.0-5.0","experiment":"validation","task_version":"1.1","jspsych_version":"6.3.1","interactions":"[]"}]