[{"view_history":[{"page_index":0,"viewing_time":2359.800000190735}],"rt":2360.1000003814697,"trial_type":"instructions","trial_index":0,"time_elapsed":2374,"internal_node_id":"0.0-0.0","experiment":"validation","task_version":"1.1","jspsych_version":"6.3.1"},{"rt":9246.5,"responses":{"age":"39","gender-categorical":"Female","gender-free-response":"","ethnicity":"Not Hispanic or Latino","race":["White"],"education":"High school"},"survey":"demographics","trial_type":"survey-demo","trial_index":1,"time_elapsed":11624,"internal_node_id":"0.0-1.0","experiment":"validation","task_version":"1.1","jspsych_version":"6.3.1"},{"responses":{"Q10":"2","Q07":"3","Q01":"3","Q04":"2","Q08":"1","Q05":"3","Q02":"3","Q06":"3","Q03":"3","Q11":"4","Q09":"3"},"rt":22657.60000038147,"item_order":[9,6,0,3,7,4,1,5,2,10,8],"radio_events":[6090.200000762939,7637.900000572205,8478.5,10988,11909.10000038147,12883.20000076294,15144.400000572205,16869.10000038147,18168.10000038147,20042.10000038147,21766.10000038147],"key_events":[],"mouse_events":[5138,5660.200000762939,6090.200000762939,6855.300000190735,7637.900000572205,8478.5,10988,11909.10000038147,12883.20000076294,15144.400000572205,16869.10000038147,18168.10000038147,19595.20000076294,20042.10000038147,21766.10000038147,22656.20000076294],"straightlining":0.45454545454545453,"zigzagging":0.4,"honeypot":0,"survey":"neuroticism","trial_type":"survey-template","trial_index":2,"time_elapsed":34286,"internal_node_id":"0.0-2.0","experiment":"validation","task_version":"1.1","jspsych_version":"6.3.1","infrequency":0},{"responses":{"Q06":"1","Q07":"2","Q04":"2","Q03":"1","Q01":"1","Q05":"2","Q02":"1"},"rt":17521,"item_order":[5,6,3,2,0,4,1],"radio_events":[5167.300000190735,7136.300000190735,9488,11321.199999809265,13443.199999809265,15651.10000038147,16793.199999809265],"key_events":[],"mouse_events":[5167.300000190735,7136.300000190735,9488,11321.199999809265,13443.199999809265,15651.10000038147,16793.199999809265,17520.199999809265],"straightlining":0.42857142857142855,"zigzagging":0.6666666666666666,"honeypot":0,"survey":"nfc6","trial_type":"survey-template","trial_index":3,"time_elapsed":51809,"internal_node_id":"0.0-3.0","experiment":"validation","task_version":"1.1","jspsych_version":"6.3.1","infrequency":0},{"responses":{"Q06":"3","Q05":"0","Q08":"4","Q04":"1","Q02":"4","Q01":"4","Q07":"4","Q03":"4","Q11":"0","Q10":"4","Q09":"4"},"rt":23039.800000190735,"item_order":[5,4,7,3,1,0,6,2,10,9,8],"radio_events":[4478.60000038147,5426.60000038147,7886.699999809265,9946.400000572205,11326.400000572205,13465.60000038147,16718.5,17472.300000190735,20397.5,21335.400000572205,22171.400000572205],"key_events":[],"mouse_events":[4478.60000038147,5426.60000038147,7886.699999809265,9946.400000572205,11326.400000572205,11667.60000038147,12686.400000572205,13465.60000038147,15521.5,16718.5,17472.300000190735,20397.5,21335.400000572205,22171.400000572205,23036.60000038147],"straightlining":0.45454545454545453,"zigzagging":0.5,"honeypot":0,"survey":"openness","trial_type":"survey-template","trial_index":4,"time_elapsed":74852,"internal_node_id":"0.0-4.0","experiment":"validation","task_version":"1.1","jspsych_version":"6.3.1","infrequency":0},{"value":[0,1.3376623376623376,1.5666666666666667],"trial_type":"call-function","trial_index":5,"time_elapsed":74854,"internal_node_id":"0.0-5.0","experiment":"validation","task_version":"1.1","jspsych_version":"6.3.1","interactions":"[]"}]