[{"view_history":[{"page_index":0,"viewing_time":3092.2000000476837}],"rt":3092.5,"trial_type":"instructions","trial_index":0,"time_elapsed":3126,"internal_node_id":"0.0-0.0","experiment":"validation","task_version":"1.1","jspsych_version":"6.3.1"},{"rt":15903.299999952316,"responses":{"age":"23","gender-categorical":"Female","gender-free-response":"","ethnicity":"Not Hispanic or Latino","race":["White"],"education":"Bachelor degree"},"survey":"demographics","trial_type":"survey-demo","trial_index":1,"time_elapsed":19032,"internal_node_id":"0.0-1.0","experiment":"validation","task_version":"1.1","jspsych_version":"6.3.1"},{"responses":{"Q05":"1","Q04":"3","Q03":"4","Q07":"4","Q06":"3","Q08":"2","Q02":"4","Q09":"3","Q01":"4","Q10":"4","Q11":"0"},"rt":51495,"item_order":[4,3,2,6,5,7,1,8,0,9,10],"radio_events":[6803.600000143051,16590.300000190735,19793,22265.10000014305,25078.900000095367,30458.300000190735,38713.90000009537,40890.5,43168.10000014305,46868.200000047684,49324.40000009537],"key_events":[],"mouse_events":[6803.600000143051,16590.300000190735,18805.900000095367,19793,22265.10000014305,25078.900000095367,30458.300000190735,36700.700000047684,38713.90000009537,40890.5,43168.10000014305,46868.200000047684,49324.40000009537,51493.40000009537],"straightlining":0.2727272727272727,"zigzagging":0.4,"honeypot":0,"survey":"openness","trial_type":"survey-template","trial_index":2,"time_elapsed":70533,"internal_node_id":"0.0-2.0","experiment":"validation","task_version":"1.1","jspsych_version":"6.3.1","infrequency":0},{"responses":{"Q04":"1","Q05":"1","Q03":"3","Q06":"1","Q02":"3","Q01":"1","Q07":"2"},"rt":40431.799999952316,"item_order":[3,4,2,5,1,0,6],"radio_events":[14134.199999809265,18432.599999904633,23360.599999904633,27962.299999952316,34786.89999985695,37352.09999990463,39349.39999985695],"key_events":[],"mouse_events":[14134.199999809265,18432.599999904633,23360.599999904633,27962.299999952316,34786.89999985695,37352.09999990463,39349.39999985695,40430.299999952316],"straightlining":0.5714285714285714,"zigzagging":0.16666666666666666,"honeypot":0,"survey":"nfc6","trial_type":"survey-template","trial_index":3,"time_elapsed":110967,"internal_node_id":"0.0-3.0","experiment":"validation","task_version":"1.1","jspsych_version":"6.3.1","infrequency":0},{"responses":{"Q10":"0","Q03":"0","Q09":"1","Q08":"1","Q01":"0","Q06":"0","Q04":"0","Q11":"4","Q07":"0","Q05":"0","Q02":"0"},"rt":44179,"item_order":[9,2,8,7,0,5,3,10,6,4,1],"radio_events":[8654.799999952316,11219.699999809265,13846.899999856949,16008.199999809265,22949.799999952316,23898,28375.199999809265,32899,34243.89999985695,38558.199999809265,41916,43291.59999990463],"key_events":[],"mouse_events":[8654.799999952316,11219.699999809265,13846.899999856949,16008.199999809265,22949.799999952316,23898,28375.199999809265,30201.799999952316,30909.299999952316,31095.89999985695,32899,34243.89999985695,38558.199999809265,41916,43291.59999990463,44177.699999809265],"straightlining":0.45454545454545453,"zigzagging":0.5,"honeypot":0,"survey":"neuroticism","trial_type":"survey-template","trial_index":4,"time_elapsed":155150,"internal_node_id":"0.0-4.0","experiment":"validation","task_version":"1.1","jspsych_version":"6.3.1","infrequency":0},{"value":[0,1.2987012987012987,1.0666666666666667],"trial_type":"call-function","trial_index":5,"time_elapsed":155153,"internal_node_id":"0.0-5.0","experiment":"validation","task_version":"1.1","jspsych_version":"6.3.1","interactions":"[]"}]