[{"view_history":[{"page_index":0,"viewing_time":4089.5}],"rt":4090.699999809265,"trial_type":"instructions","trial_index":0,"time_elapsed":4118,"internal_node_id":"0.0-0.0","experiment":"validation","task_version":"1.1","jspsych_version":"6.3.1"},{"rt":16707.5,"responses":{"age":"39","gender-categorical":"Female","gender-free-response":"","ethnicity":"Not Hispanic or Latino","race":["White"],"education":"Some college"},"survey":"demographics","trial_type":"survey-demo","trial_index":1,"time_elapsed":20835,"internal_node_id":"0.0-1.0","experiment":"validation","task_version":"1.1","jspsych_version":"6.3.1"},{"responses":{"Q08":"4","Q10":"4","Q11":"0","Q07":"4","Q05":"1","Q06":"3","Q02":"2","Q09":"4","Q01":"4","Q04":"2","Q03":"4"},"rt":36770.900000572205,"item_order":[7,9,10,6,4,5,1,8,0,3,2],"radio_events":[6318.700000762939,10266.400000572205,13312.900000572205,14863.5,16478.10000038147,20460.70000076294,23660.400000572205,27846.300000190735,30333.70000076294,32142.800000190735,35146.900000572205],"key_events":[],"mouse_events":[6318.700000762939,9225.800000190735,10266.400000572205,11649.60000038147,13312.900000572205,14863.5,16478.10000038147,20460.70000076294,23660.400000572205,26057.5,27846.300000190735,30333.70000076294,32142.800000190735,35146.900000572205,36768.10000038147],"straightlining":0.45454545454545453,"zigzagging":0.2,"honeypot":0,"survey":"openness","trial_type":"survey-template","trial_index":2,"time_elapsed":57619,"internal_node_id":"0.0-2.0","experiment":"validation","task_version":"1.1","jspsych_version":"6.3.1","infrequency":0},{"responses":{"Q07":"4","Q09":"3","Q11":"4","Q06":"2","Q03":"2","Q08":"3","Q01":"3","Q10":"3","Q05":"4","Q02":"2","Q04":"3"},"rt":34371,"item_order":[6,8,10,5,2,7,0,9,4,1,3],"radio_events":[4541.400000572205,9062.70000076294,11473.900000572205,16287.300000190735,19054.5,21282.60000038147,23252.900000572205,25530.800000190735,28472.10000038147,30980.20000076294,32992.10000038147],"key_events":[],"mouse_events":[3492.6000003814697,4541.400000572205,8098.300000190735,9062.70000076294,11473.900000572205,14596.10000038147,16287.300000190735,17740.60000038147,19054.5,21282.60000038147,23252.900000572205,25530.800000190735,28472.10000038147,30980.20000076294,32992.10000038147,34368.70000076294],"straightlining":0.2727272727272727,"zigzagging":0.3,"honeypot":0,"survey":"neuroticism","trial_type":"survey-template","trial_index":3,"time_elapsed":91995,"internal_node_id":"0.0-3.0","experiment":"validation","task_version":"1.1","jspsych_version":"6.3.1","infrequency":0},{"responses":{"Q03":"3","Q02":"3","Q05":"3","Q06":"1","Q07":"2","Q01":"3","Q04":"4"},"rt":36675.39999961853,"item_order":[2,1,4,5,6,0,3],"radio_events":[8965.10000038147,13646,17460.60000038147,25215.199999809265,27961.89999961853,31182.300000190735,35101.699999809265],"key_events":[],"mouse_events":[5156.10000038147,8965.10000038147,13646,17460.60000038147,25215.199999809265,27961.89999961853,31182.300000190735,35101.699999809265,36673.60000038147],"straightlining":0.42857142857142855,"zigzagging":0.3333333333333333,"honeypot":0,"survey":"nfc6","trial_type":"survey-template","trial_index":4,"time_elapsed":128675,"internal_node_id":"0.0-4.0","experiment":"validation","task_version":"1.1","jspsych_version":"6.3.1","infrequency":0},{"value":[0,1.155844155844156,0.8333333333333333],"trial_type":"call-function","trial_index":5,"time_elapsed":128679,"internal_node_id":"0.0-5.0","experiment":"validation","task_version":"1.1","jspsych_version":"6.3.1","interactions":"[]"}]