[{"view_history":[{"page_index":0,"viewing_time":1930.5}],"rt":1931.1000000238419,"trial_type":"instructions","trial_index":0,"time_elapsed":1941,"internal_node_id":"0.0-0.0","experiment":"validation","task_version":"1.1","jspsych_version":"6.3.1"},{"rt":10998.09999999404,"responses":{"age":"19","gender-categorical":"Female","gender-free-response":"","ethnicity":"Hispanic or Latino","race":["Asian"],"education":"Some college"},"survey":"demographics","trial_type":"survey-demo","trial_index":1,"time_elapsed":12943,"internal_node_id":"0.0-1.0","experiment":"validation","task_version":"1.1","jspsych_version":"6.3.1"},{"responses":{"Q02":"3","Q07":"2","Q03":"3","Q04":"3","Q01":"3","Q05":"1","Q06":"4"},"rt":70967.29999998212,"item_order":[1,6,2,3,0,4,5],"radio_events":[22888.79999998212,23860.09999999404,26551.90000000596,29921.69999998808,40081.19999998808,41318.5,42677.29999998212,44818.09999999404,49002.59999999404,50057,58546.79999998212,60112,65535.69999998808,67763.19999998808],"key_events":[],"mouse_events":[22888.79999998212,23860.09999999404,26551.90000000596,28788.59999999404,29921.69999998808,36431.79999998212,38458.09999999404,40081.19999998808,41318.5,42677.29999998212,44818.09999999404,47932.59999999404,49002.59999999404,50057,56886.69999998808,57644.79999998212,58546.79999998212,60112,65535.69999998808,67763.19999998808,70965.09999999404],"straightlining":0.42857142857142855,"zigzagging":0.3333333333333333,"honeypot":0,"survey":"nfc6","trial_type":"survey-template","trial_index":2,"time_elapsed":83913,"internal_node_id":"0.0-2.0","experiment":"validation","task_version":"1.1","jspsych_version":"6.3.1","infrequency":0},{"responses":{"Q04":"3","Q01":"1","Q09":"4","Q08":"1","Q02":"1","Q10":"1","Q03":"1","Q06":"3","Q05":"1","Q07":"1","Q11":"4"},"rt":47791.09999999404,"item_order":[3,0,8,7,1,9,2,5,4,6,10],"radio_events":[8919.800000011921,11052.200000017881,16084.5,18152,20524,21937.20000001788,26769.09999999404,31608.70000001788,33947.90000000596,37086.09999999404,42780.30000001192,47313.80000001192],"key_events":[],"mouse_events":[8919.800000011921,11052.200000017881,14854.700000017881,16084.5,18152,20524,21937.20000001788,26769.09999999404,31608.70000001788,33947.90000000596,37086.09999999404,42780.30000001192,46547.30000001192,47313.80000001192,47786.90000000596],"straightlining":0.45454545454545453,"zigzagging":0.2,"honeypot":0,"survey":"neuroticism","trial_type":"survey-template","trial_index":3,"time_elapsed":131707,"internal_node_id":"0.0-3.0","experiment":"validation","task_version":"1.1","jspsych_version":"6.3.1","infrequency":0},{"responses":{"Q04":"0","Q08":"4","Q01":"4","Q06":"4","Q05":"1","Q02":"4","Q03":"4","Q07":"4","Q11":"0","Q09":"4","Q10":"4"},"rt":28918.09999999404,"item_order":[3,7,0,5,4,1,2,6,10,8,9],"radio_events":[5493.199999988079,6642.399999976158,8742.799999982119,10284.799999982119,13103.699999988079,14286.399999976158,15012.59999999404,16657.79999998212,18047.09999999404,21161.29999998212,26063.29999998212,27524.69999998808],"key_events":[],"mouse_events":[5493.199999988079,6642.399999976158,8742.799999982119,10284.799999982119,13103.699999988079,13910.399999976158,14286.399999976158,15012.59999999404,16657.79999998212,18047.09999999404,21161.29999998212,26063.29999998212,27524.69999998808,28914.09999999404],"straightlining":0.5454545454545454,"zigzagging":0.5,"honeypot":0,"survey":"openness","trial_type":"survey-template","trial_index":4,"time_elapsed":160629,"internal_node_id":"0.0-4.0","experiment":"validation","task_version":"1.1","jspsych_version":"6.3.1","infrequency":0},{"value":[0,1.4285714285714284,1.0333333333333332],"trial_type":"call-function","trial_index":5,"time_elapsed":160633,"internal_node_id":"0.0-5.0","experiment":"validation","task_version":"1.1","jspsych_version":"6.3.1","interactions":"[]"}]