[{"view_history":[{"page_index":0,"viewing_time":3274.600000023842}],"rt":3277.100000023842,"trial_type":"instructions","trial_index":0,"time_elapsed":3318,"internal_node_id":"0.0-0.0","experiment":"validation","task_version":"1.1","jspsych_version":"6.3.1"},{"rt":26977.200000047684,"responses":{"age":"32","gender-categorical":"Female","gender-free-response":"","ethnicity":"Not Hispanic or Latino","race":["White"],"education":"Less than high school"},"survey":"demographics","trial_type":"survey-demo","trial_index":1,"time_elapsed":30312,"internal_node_id":"0.0-1.0","experiment":"validation","task_version":"1.1","jspsych_version":"6.3.1"},{"responses":{"Q04":"1","Q03":"0","Q10":"4","Q06":"4","Q01":"4","Q09":"4","Q05":"0","Q08":"3","Q11":"0","Q02":"3","Q07":"4"},"rt":48835,"item_order":[3,2,9,5,0,8,4,7,10,1,6],"radio_events":[8810.599999904633,14186.199999928474,15333.699999928474,18320.199999928474,23894.099999904633,26225.399999976158,32383.799999952316,34615.89999997616,38737.799999952316,41186.699999928474,44181.299999952316],"key_events":[],"mouse_events":[8810.599999904633,13110,14186.199999928474,15333.699999928474,18320.199999928474,22659.899999976158,23894.099999904633,26225.399999976158,30787,32383.799999952316,34615.89999997616,38737.799999952316,41186.699999928474,44181.299999952316,48827.5],"straightlining":0.5454545454545454,"zigzagging":0.4,"honeypot":0,"survey":"openness","trial_type":"survey-template","trial_index":2,"time_elapsed":79175,"internal_node_id":"0.0-2.0","experiment":"validation","task_version":"1.1","jspsych_version":"6.3.1","infrequency":0},{"responses":{"Q07":"3","Q04":"4","Q01":"4","Q06":"3","Q05":"4","Q09":"3","Q08":"4","Q03":"3","Q10":"2","Q11":"4","Q02":"2"},"rt":31692.600000023842,"item_order":[6,3,0,5,4,8,7,2,9,10,1],"radio_events":[3672.9000000953674,5725.5,6930.700000047684,9197,11582.400000095367,13960.600000023842,16743.800000071526,18932.300000071526,20426,22586.300000071526,30744],"key_events":[],"mouse_events":[3672.9000000953674,5725.5,6930.700000047684,9197,11582.400000095367,13960.600000023842,16743.800000071526,18932.300000071526,20426,22586.300000071526,25529.300000071526,30744,31685.5],"straightlining":0.36363636363636365,"zigzagging":0.2,"honeypot":0,"survey":"neuroticism","trial_type":"survey-template","trial_index":3,"time_elapsed":110889,"internal_node_id":"0.0-3.0","experiment":"validation","task_version":"1.1","jspsych_version":"6.3.1","infrequency":0},{"responses":{"Q06":"3","Q01":"2","Q03":"4","Q02":"3","Q07":"2","Q04":"3","Q05":"4"},"rt":36342.89999997616,"item_order":[5,0,2,1,6,3,4],"radio_events":[12198.899999976158,15605.600000023842,19740.399999976158,23599.399999976158,27444.399999976158,32883.199999928474,35170.5],"key_events":[],"mouse_events":[12198.899999976158,15605.600000023842,19740.399999976158,23599.399999976158,27444.399999976158,32883.199999928474,35170.5,36338.699999928474],"straightlining":0.2857142857142857,"zigzagging":0.5,"honeypot":0,"survey":"nfc6","trial_type":"survey-template","trial_index":4,"time_elapsed":147236,"internal_node_id":"0.0-4.0","experiment":"validation","task_version":"1.1","jspsych_version":"6.3.1","infrequency":0},{"value":[0,1.1948051948051948,1.1],"trial_type":"call-function","trial_index":5,"time_elapsed":147246,"internal_node_id":"0.0-5.0","experiment":"validation","task_version":"1.1","jspsych_version":"6.3.1","interactions":"[]"}]