[{"view_history":[{"page_index":0,"viewing_time":2478.100000023842}],"rt":2478.5,"trial_type":"instructions","trial_index":0,"time_elapsed":2507,"internal_node_id":"0.0-0.0","experiment":"validation","task_version":"1.1","jspsych_version":"6.3.1"},{"rt":12506,"responses":{"age":"33","gender-categorical":"Female","gender-free-response":"","ethnicity":"Hispanic or Latino","race":["White"],"education":"Some college"},"survey":"demographics","trial_type":"survey-demo","trial_index":1,"time_elapsed":15015,"internal_node_id":"0.0-1.0","experiment":"validation","task_version":"1.1","jspsych_version":"6.3.1"},{"responses":{"Q03":"3","Q07":"3","Q11":"4","Q04":"2","Q08":"1","Q01":"3","Q05":"4","Q10":"1","Q06":"3","Q02":"1","Q09":"1"},"rt":27245.100000023842,"item_order":[2,6,10,3,7,0,4,9,5,1,8],"radio_events":[4351.5,5669.300000011921,7311.600000023842,8825.899999976158,12346.100000023842,14086.699999988079,18010.19999998808,19170.399999976158,21432,24332.899999976158,26457.100000023842],"key_events":[],"mouse_events":[3653.800000011921,4351.5,5669.300000011921,7311.600000023842,8825.899999976158,10763,12346.100000023842,13634.199999988079,14086.699999988079,16161.5,17400.600000023842,18010.19999998808,19170.399999976158,21432,23133.30000001192,24332.899999976158,26457.100000023842,27243.80000001192],"straightlining":0.45454545454545453,"zigzagging":0.3,"honeypot":0,"survey":"neuroticism","trial_type":"survey-template","trial_index":2,"time_elapsed":42265,"internal_node_id":"0.0-2.0","experiment":"validation","task_version":"1.1","jspsych_version":"6.3.1","infrequency":0},{"responses":{"Q04":"4","Q01":"3","Q07":"2","Q03":"4","Q02":"3","Q05":"3","Q06":"2"},"rt":44756.10000002384,"item_order":[3,0,6,2,1,4,5],"radio_events":[11785.300000011921,15305.600000023842,23093.100000023842,28835.69999998808,32473.69999998808,33801.30000001192,36190.69999998808,41480.69999998808],"key_events":[],"mouse_events":[11195.100000023842,11785.300000011921,15305.600000023842,23093.100000023842,27468.899999976158,28835.69999998808,30054.80000001192,30900.100000023842,32473.69999998808,33801.30000001192,36190.69999998808,39494.69999998808,40949.69999998808,41480.69999998808,43260.80000001192,44755.10000002384],"straightlining":0.42857142857142855,"zigzagging":0.3333333333333333,"honeypot":0,"survey":"nfc6","trial_type":"survey-template","trial_index":3,"time_elapsed":87024,"internal_node_id":"0.0-3.0","experiment":"validation","task_version":"1.1","jspsych_version":"6.3.1","infrequency":0},{"responses":{"Q07":"4","Q08":"4","Q11":"0","Q01":"4","Q03":"4","Q02":"4","Q10":"4","Q09":"4","Q05":"0","Q04":"1","Q06":"4"},"rt":26378,"item_order":[6,7,10,0,2,1,9,8,4,3,5],"radio_events":[3083.199999988079,6858.800000011921,9277.900000035763,11687,13191.400000035763,14154.800000011921,17802.900000035763,18509.80000001192,20034.69999998808,23771.100000023842,25098.900000035763],"key_events":[],"mouse_events":[1942.199999988079,3083.199999988079,5993.699999988079,6858.800000011921,8609.600000023842,9277.900000035763,11687,13191.400000035763,14154.800000011921,16534.19999998808,17242.400000035763,17802.900000035763,18509.80000001192,20034.69999998808,23771.100000023842,25098.900000035763,26376.69999998808],"straightlining":0.5454545454545454,"zigzagging":0.4,"honeypot":0,"survey":"openness","trial_type":"survey-template","trial_index":4,"time_elapsed":113405,"internal_node_id":"0.0-4.0","experiment":"validation","task_version":"1.1","jspsych_version":"6.3.1","infrequency":0},{"value":[0,1.4285714285714284,1.0333333333333332],"trial_type":"call-function","trial_index":5,"time_elapsed":113407,"internal_node_id":"0.0-5.0","experiment":"validation","task_version":"1.1","jspsych_version":"6.3.1","interactions":"[]"}]