[{"view_history":[{"page_index":0,"viewing_time":1867}],"rt":1867.1000000238419,"trial_type":"instructions","trial_index":0,"time_elapsed":1877,"internal_node_id":"0.0-0.0","experiment":"validation","task_version":"1.1","jspsych_version":"6.3.1"},{"rt":9026.100000023842,"responses":{"age":"34","gender-categorical":"Male","gender-free-response":"","ethnicity":"Not Hispanic or Latino","race":["White"],"education":"Bachelor degree"},"survey":"demographics","trial_type":"survey-demo","trial_index":1,"time_elapsed":10905,"internal_node_id":"0.0-1.0","experiment":"validation","task_version":"1.1","jspsych_version":"6.3.1"},{"responses":{"Q01":"2","Q02":"2","Q04":"2","Q03":"3","Q07":"2","Q05":"3","Q06":"4"},"rt":18893.899999976158,"item_order":[0,1,3,2,6,4,5],"radio_events":[4419.100000023842,5390,5837.699999928474,7001.199999928474,9208,10305,11294.100000023842],"key_events":[],"mouse_events":[3067.7999999523163,3494.5,3898,4419.100000023842,4862.5,5390,5837.699999928474,7001.199999928474,9208,10305,11294.100000023842,11788.899999976158,18893.199999928474],"straightlining":0.5714285714285714,"zigzagging":0.6666666666666666,"honeypot":0,"survey":"nfc6","trial_type":"survey-template","trial_index":2,"time_elapsed":29800,"internal_node_id":"0.0-2.0","experiment":"validation","task_version":"1.1","jspsych_version":"6.3.1","infrequency":0},{"responses":{"Q04":"0","Q08":"1","Q10":"1","Q05":"0","Q01":"1","Q06":"1","Q09":"1","Q07":"4","Q11":"4","Q03":"0","Q02":"1"},"rt":19331.299999952316,"item_order":[3,7,9,4,0,5,8,6,10,2,1],"radio_events":[3005.600000023842,4271.899999976158,5291.799999952316,6523.600000023842,8657.700000047684,9867.700000047684,11649.200000047684,12988.5,14758,16802.899999976158,18649.600000023842],"key_events":[],"mouse_events":[2137.2000000476837,3005.600000023842,4271.899999976158,5291.799999952316,6523.600000023842,8095.5,8657.700000047684,9867.700000047684,11649.200000047684,12988.5,14758,16802.899999976158,18269,18649.600000023842,19330.799999952316],"straightlining":0.36363636363636365,"zigzagging":0.4,"honeypot":0,"survey":"neuroticism","trial_type":"survey-template","trial_index":3,"time_elapsed":49133,"internal_node_id":"0.0-3.0","experiment":"validation","task_version":"1.1","jspsych_version":"6.3.1","infrequency":0},{"responses":{"Q10":"4","Q09":"3","Q05":"0","Q03":"4","Q02":"4","Q04":"1","Q08":"4","Q01":"4","Q07":"4","Q06":"4","Q11":"0"},"rt":17872.299999952316,"item_order":[9,8,4,2,1,3,7,0,6,5,10],"radio_events":[2870.899999976158,5731.5,6834.199999928474,7737.5,8797.399999976158,10489.399999976158,12155.899999976158,13700.699999928474,14698,15581.599999904633,16999.699999928474],"key_events":[],"mouse_events":[2350.5999999046326,2870.899999976158,5731.5,6834.199999928474,7737.5,8797.399999976158,10489.399999976158,12155.899999976158,13700.699999928474,14698,15581.599999904633,16999.699999928474,17871.599999904633],"straightlining":0.45454545454545453,"zigzagging":0.4,"honeypot":0,"survey":"openness","trial_type":"survey-template","trial_index":4,"time_elapsed":67006,"internal_node_id":"0.0-4.0","experiment":"validation","task_version":"1.1","jspsych_version":"6.3.1","infrequency":0},{"value":[0,1.3896103896103895,1.4666666666666668],"trial_type":"call-function","trial_index":5,"time_elapsed":67007,"internal_node_id":"0.0-5.0","experiment":"validation","task_version":"1.1","jspsych_version":"6.3.1","interactions":"[]"}]