[{"view_history":[{"page_index":0,"viewing_time":3142.5}],"rt":3143.5,"trial_type":"instructions","trial_index":0,"time_elapsed":3163,"internal_node_id":"0.0-0.0","experiment":"validation","task_version":"1.1","jspsych_version":"6.3.1"},{"rt":8771.199999999255,"responses":{"age":"41","gender-categorical":"Male","gender-free-response":"","ethnicity":"Not Hispanic or Latino","race":["Asian"],"education":"Bachelor degree"},"survey":"demographics","trial_type":"survey-demo","trial_index":1,"time_elapsed":11937,"internal_node_id":"0.0-1.0","experiment":"validation","task_version":"1.1","jspsych_version":"6.3.1"},{"responses":{"Q01":"0","Q06":"4","Q04":"4","Q05":"4","Q02":"4","Q07":"2","Q03":"4"},"rt":52481.200000000186,"item_order":[0,5,3,4,1,6,2],"radio_events":[3176.100000000559,5727.9000000003725,32794.10000000056,35297.90000000037,41837.90000000037,45921.90000000037,49943.90000000037],"key_events":[],"mouse_events":[3176.100000000559,5727.9000000003725,32794.10000000056,35297.90000000037,41837.90000000037,44366.10000000056,45921.90000000037,49943.90000000037,52480.10000000056],"straightlining":0.42857142857142855,"zigzagging":0.5,"honeypot":0,"survey":"nfc6","trial_type":"survey-template","trial_index":2,"time_elapsed":64422,"internal_node_id":"0.0-2.0","experiment":"validation","task_version":"1.1","jspsych_version":"6.3.1","infrequency":0},{"responses":{"Q10":"2","Q08":"4","Q06":"4","Q03":"2","Q02":"4","Q07":"3","Q01":"3","Q04":"0","Q09":"3","Q11":"0","Q05":"0"},"rt":80957.20000000019,"item_order":[9,7,5,2,1,6,0,3,8,10,4],"radio_events":[7601.799999999814,9874,11601.799999999814,13513.799999999814,17613.700000000186,18749.799999999814,24303.799999999814,66347.70000000019,68649.59999999963,75145.59999999963,80397.59999999963],"key_events":[],"mouse_events":[7601.799999999814,9415.799999999814,9874,11601.799999999814,13513.799999999814,17613.700000000186,18749.799999999814,24303.799999999814,66347.70000000019,68649.59999999963,73153.90000000037,74717.70000000019,75145.59999999963,80397.59999999963,80955.79999999981],"straightlining":0.2727272727272727,"zigzagging":0.3,"honeypot":0,"survey":"openness","trial_type":"survey-template","trial_index":3,"time_elapsed":145383,"internal_node_id":"0.0-3.0","experiment":"validation","task_version":"1.1","jspsych_version":"6.3.1","infrequency":0},{"responses":{"Q10":"0","Q06":"0","Q11":"4","Q02":"0","Q07":"0","Q05":"0","Q04":"0","Q01":"0","Q03":"0","Q09":"0","Q08":"0"},"rt":29470.700000000186,"item_order":[9,5,10,1,6,4,3,0,2,8,7],"radio_events":[4321.4000000003725,7059.5,9633.5,11577.5,15273.5,17007.5,20881.60000000056,22079.60000000056,23549.400000000373,27181.5,28621.400000000373],"key_events":[],"mouse_events":[3807.5,4321.4000000003725,7059.5,9189.5,9633.5,11577.5,15273.5,17007.5,20881.60000000056,22079.60000000056,23549.400000000373,27181.5,28621.400000000373,29469.400000000373],"straightlining":0.5454545454545454,"zigzagging":0.4,"honeypot":0,"survey":"neuroticism","trial_type":"survey-template","trial_index":4,"time_elapsed":174855,"internal_node_id":"0.0-4.0","experiment":"validation","task_version":"1.1","jspsych_version":"6.3.1","infrequency":0},{"value":[0,1.2467532467532467,1.2000000000000002],"trial_type":"call-function","trial_index":5,"time_elapsed":174857,"internal_node_id":"0.0-5.0","experiment":"validation","task_version":"1.1","jspsych_version":"6.3.1","interactions":"[{\"event\":\"blur\",\"trial\":2,\"time\":31890},{\"event\":\"focus\",\"trial\":2,\"time\":33180},{\"event\":\"blur\",\"trial\":2,\"time\":33509},{\"event\":\"focus\",\"trial\":2,\"time\":36228},{\"event\":\"blur\",\"trial\":2,\"time\":36550},{\"event\":\"focus\",\"trial\":2,\"time\":39530},{\"event\":\"blur\",\"trial\":2,\"time\":39540},{\"event\":\"focus\",\"trial\":2,\"time\":39545},{\"event\":\"blur\",\"trial\":2,\"time\":39567},{\"event\":\"focus\",\"trial\":2,\"time\":41333}]"}]