[{"view_history":[{"page_index":0,"viewing_time":3288.2000000029802}],"rt":3288.7000000029802,"trial_type":"instructions","trial_index":0,"time_elapsed":3312,"internal_node_id":"0.0-0.0","experiment":"validation","task_version":"1.1","jspsych_version":"6.3.1"},{"rt":200723.70000000298,"responses":{"age":"18","gender-categorical":"Female","gender-free-response":"","ethnicity":"Hispanic or Latino","race":["White"],"education":"Some college"},"survey":"demographics","trial_type":"survey-demo","trial_index":1,"time_elapsed":204046,"internal_node_id":"0.0-1.0","experiment":"validation","task_version":"1.1","jspsych_version":"6.3.1"},{"responses":{"Q02":"4","Q04":"3","Q05":"4","Q06":"3","Q03":"4","Q07":"2","Q01":"1"},"rt":601180.8999999985,"item_order":[1,3,4,5,2,6,0],"radio_events":[376689.8999999985,586156.3999999985,589434.3999999985,591747.3000000007,595961.6999999993,598115.3999999985,600520.8000000007],"key_events":[],"mouse_events":[376689.8999999985,586156.3999999985,589434.3999999985,591747.3000000007,595961.6999999993,598115.3999999985,600520.8000000007,601177.5],"straightlining":0.2857142857142857,"zigzagging":0.3333333333333333,"honeypot":0,"survey":"nfc6","trial_type":"survey-template","trial_index":2,"time_elapsed":805257,"internal_node_id":"0.0-2.0","experiment":"validation","task_version":"1.1","jspsych_version":"6.3.1","infrequency":0},{"responses":{"Q04":"1","Q07":"3","Q10":"4","Q06":"3","Q09":"4","Q02":"4","Q11":"4","Q08":"3","Q01":"3","Q05":"3","Q03":"3"},"rt":60805.20000000298,"item_order":[3,6,9,5,8,1,10,7,0,4,2],"radio_events":[7119.70000000298,13897.60000000149,17303.10000000149,20045,24394.800000000745,30468.800000000745,33122.70000000298,39587.300000000745,42209.20000000298,44867.10000000149,57083.10000000149,60097.20000000298],"key_events":[],"mouse_events":[7119.70000000298,13897.60000000149,17303.10000000149,20045,24394.800000000745,30468.800000000745,33122.70000000298,39587.300000000745,42209.20000000298,44867.10000000149,57083.10000000149,60097.20000000298,60801],"straightlining":0.36363636363636365,"zigzagging":0.4,"honeypot":0,"survey":"neuroticism","trial_type":"survey-template","trial_index":3,"time_elapsed":866070,"internal_node_id":"0.0-3.0","experiment":"validation","task_version":"1.1","jspsych_version":"6.3.1","infrequency":0},{"responses":{"Q04":"2","Q10":"2","Q11":"0","Q03":"2","Q05":"0","Q01":"4","Q09":"4","Q02":"4","Q08":"2","Q07":"4","Q06":"4"},"rt":34554.60000000149,"item_order":[3,9,10,2,4,0,8,1,7,6,5],"radio_events":[8944.20000000298,13303,16089.800000000745,19239,21672.60000000149,24631.60000000149,27277.20000000298,28773.900000002235,30279.400000002235,31693.300000000745,33429.20000000298],"key_events":[],"mouse_events":[8944.20000000298,13303,16089.800000000745,19239,21672.60000000149,24631.60000000149,27277.20000000298,28773.900000002235,30279.400000002235,31693.300000000745,33429.20000000298,34550.60000000149],"straightlining":0.36363636363636365,"zigzagging":0.2,"honeypot":0,"survey":"openness","trial_type":"survey-template","trial_index":4,"time_elapsed":900630,"internal_node_id":"0.0-4.0","experiment":"validation","task_version":"1.1","jspsych_version":"6.3.1","infrequency":0},{"value":[0,1.012987012987013,0.9333333333333333],"trial_type":"call-function","trial_index":5,"time_elapsed":900634,"internal_node_id":"0.0-5.0","experiment":"validation","task_version":"1.1","jspsych_version":"6.3.1","interactions":"[]"}]