[{"success":true,"timeout":false,"failed_images":[],"failed_audio":[],"failed_video":[],"trial_type":"preload","trial_index":0,"time_elapsed":5752,"internal_node_id":"0.0-0.0","experiment":"validation","task_version":"1.1","jspsych_version":"6.3.1"},{"success":true,"trial_type":"fullscreen","trial_index":1,"time_elapsed":9477,"internal_node_id":"0.0-1.0","experiment":"validation","task_version":"1.1","jspsych_version":"6.3.1"},{"view_history":[{"page_index":0,"viewing_time":8051.199999988079},{"page_index":1,"viewing_time":7670.800000011921}],"rt":15722.800000011921,"trial_type":"instructions","trial_index":2,"time_elapsed":25201,"internal_node_id":"0.0-2.0","experiment":"validation","task_version":"1.1","jspsych_version":"6.3.1"},{"min_width":700,"min_height":600,"inner_width":1680,"inner_height":1050,"trial_type":"screen-check","trial_index":3,"time_elapsed":25201,"internal_node_id":"0.0-3.0-0.0-0.0","experiment":"validation","task_version":"1.1","jspsych_version":"6.3.1"},{"rt":null,"stimulus":"<div style=\"font-size:24px;\">Loading puzzle:<br>1 / 9</div>","response":null,"trial_type":"html-keyboard-response","trial_index":4,"time_elapsed":26403,"internal_node_id":"0.0-3.0-0.0-1.0","experiment":"validation","task_version":"1.1","jspsych_version":"6.3.1"},{"stimulus":"../static/img/rpm/a11.png","choice_order":[0,4,2,3,1,5],"correct":4,"choice":4,"accuracy":1,"rt":16576.900000035763,"screen_resolution":[1680,1050],"minimum_resolution":1,"all_loaded":true,"test_form":"a","trial_type":"rpm","trial_index":5,"time_elapsed":42982,"internal_node_id":"0.0-3.0-0.0-2.0","experiment":"validation","task_version":"1.1","jspsych_version":"6.3.1"},{"min_width":700,"min_height":600,"inner_width":1680,"inner_height":1050,"trial_type":"screen-check","trial_index":6,"time_elapsed":42986,"internal_node_id":"0.0-3.0-0.0-0.1","experiment":"validation","task_version":"1.1","jspsych_version":"6.3.1"},{"rt":null,"stimulus":"<div style=\"font-size:24px;\">Loading puzzle:<br>2 / 9</div>","response":null,"trial_type":"html-keyboard-response","trial_index":7,"time_elapsed":44188,"internal_node_id":"0.0-3.0-0.0-1.1","experiment":"validation","task_version":"1.1","jspsych_version":"6.3.1"},{"stimulus":"../static/img/rpm/a24.png","choice_order":[0,5,4,3,2,1],"correct":4,"choice":2,"accuracy":0,"rt":6510.100000023842,"screen_resolution":[1680,1050],"minimum_resolution":1,"all_loaded":true,"test_form":"a","trial_type":"rpm","trial_index":8,"time_elapsed":50700,"internal_node_id":"0.0-3.0-0.0-2.1","experiment":"validation","task_version":"1.1","jspsych_version":"6.3.1"},{"min_width":700,"min_height":600,"inner_width":1680,"inner_height":1050,"trial_type":"screen-check","trial_index":9,"time_elapsed":50703,"internal_node_id":"0.0-3.0-0.0-0.2","experiment":"validation","task_version":"1.1","jspsych_version":"6.3.1"},{"rt":null,"stimulus":"<div style=\"font-size:24px;\">Loading puzzle:<br>3 / 9</div>","response":null,"trial_type":"html-keyboard-response","trial_index":10,"time_elapsed":51905,"internal_node_id":"0.0-3.0-0.0-1.2","experiment":"validation","task_version":"1.1","jspsych_version":"6.3.1"},{"stimulus":"../static/img/rpm/a28.png","choice_order":[5,1,7,6,0,4,3,2],"correct":7,"choice":7,"accuracy":1,"rt":14023.900000035763,"screen_resolution":[1680,1050],"minimum_resolution":1,"all_loaded":true,"test_form":"a","trial_type":"rpm","trial_index":11,"time_elapsed":65931,"internal_node_id":"0.0-3.0-0.0-2.2","experiment":"validation","task_version":"1.1","jspsych_version":"6.3.1"},{"min_width":700,"min_height":600,"inner_width":1680,"inner_height":1050,"trial_type":"screen-check","trial_index":12,"time_elapsed":65934,"internal_node_id":"0.0-3.0-0.0-0.3","experiment":"validation","task_version":"1.1","jspsych_version":"6.3.1"},{"rt":null,"stimulus":"<div style=\"font-size:24px;\">Loading puzzle:<br>4 / 9</div>","response":null,"trial_type":"html-keyboard-response","trial_index":13,"time_elapsed":67135,"internal_node_id":"0.0-3.0-0.0-1.3","experiment":"validation","task_version":"1.1","jspsych_version":"6.3.1"},{"stimulus":"../static/img/rpm/a36.png","choice_order":[4,7,6,2,0,3,5,1],"correct":1,"choice":2,"accuracy":0,"rt":22871.399999976158,"screen_resolution":[1680,1050],"minimum_resolution":1,"all_loaded":true,"test_form":"a","trial_type":"rpm","trial_index":14,"time_elapsed":90008,"internal_node_id":"0.0-3.0-0.0-2.3","experiment":"validation","task_version":"1.1","jspsych_version":"6.3.1"},{"min_width":700,"min_height":600,"inner_width":1680,"inner_height":1050,"trial_type":"screen-check","trial_index":15,"time_elapsed":90012,"internal_node_id":"0.0-3.0-0.0-0.4","experiment":"validation","task_version":"1.1","jspsych_version":"6.3.1"},{"rt":null,"stimulus":"<div style=\"font-size:24px;\">Loading puzzle:<br>5 / 9</div>","response":null,"trial_type":"html-keyboard-response","trial_index":16,"time_elapsed":91213,"internal_node_id":"0.0-3.0-0.0-1.4","experiment":"validation","task_version":"1.1","jspsych_version":"6.3.1"},{"stimulus":"../static/img/rpm/a43.png","choice_order":[0,1,4,7,3,6,2,5],"correct":4,"choice":4,"accuracy":1,"rt":22055.099999964237,"screen_resolution":[1680,1050],"minimum_resolution":1,"all_loaded":true,"test_form":"a","trial_type":"rpm","trial_index":17,"time_elapsed":113270,"internal_node_id":"0.0-3.0-0.0-2.4","experiment":"validation","task_version":"1.1","jspsych_version":"6.3.1"},{"min_width":700,"min_height":600,"inner_width":1680,"inner_height":1050,"trial_type":"screen-check","trial_index":18,"time_elapsed":113273,"internal_node_id":"0.0-3.0-0.0-0.5","experiment":"validation","task_version":"1.1","jspsych_version":"6.3.1"},{"rt":null,"stimulus":"<div style=\"font-size:24px;\">Loading puzzle:<br>6 / 9</div>","response":null,"trial_type":"html-keyboard-response","trial_index":19,"time_elapsed":114474,"internal_node_id":"0.0-3.0-0.0-1.5","experiment":"validation","task_version":"1.1","jspsych_version":"6.3.1"},{"stimulus":"../static/img/rpm/a48.png","choice_order":[0,3,2,7,4,6,1,5],"correct":5,"choice":5,"accuracy":1,"rt":16555.69999998808,"screen_resolution":[1680,1050],"minimum_resolution":1,"all_loaded":true,"test_form":"a","trial_type":"rpm","trial_index":20,"time_elapsed":131032,"internal_node_id":"0.0-3.0-0.0-2.5","experiment":"validation","task_version":"1.1","jspsych_version":"6.3.1"},{"min_width":700,"min_height":600,"inner_width":1680,"inner_height":1050,"trial_type":"screen-check","trial_index":21,"time_elapsed":131036,"internal_node_id":"0.0-3.0-0.0-0.6","experiment":"validation","task_version":"1.1","jspsych_version":"6.3.1"},{"rt":null,"stimulus":"<div style=\"font-size:24px;\">Loading puzzle:<br>7 / 9</div>","response":null,"trial_type":"html-keyboard-response","trial_index":22,"time_elapsed":132236,"internal_node_id":"0.0-3.0-0.0-1.6","experiment":"validation","task_version":"1.1","jspsych_version":"6.3.1"},{"stimulus":"../static/img/rpm/a49.png","choice_order":[3,6,4,1,0,2,7,5],"correct":6,"choice":6,"accuracy":1,"rt":7653.900000035763,"screen_resolution":[1680,1050],"minimum_resolution":1,"all_loaded":true,"test_form":"a","trial_type":"rpm","trial_index":23,"time_elapsed":139892,"internal_node_id":"0.0-3.0-0.0-2.6","experiment":"validation","task_version":"1.1","jspsych_version":"6.3.1"},{"min_width":700,"min_height":600,"inner_width":1680,"inner_height":1050,"trial_type":"screen-check","trial_index":24,"time_elapsed":139896,"internal_node_id":"0.0-3.0-0.0-0.7","experiment":"validation","task_version":"1.1","jspsych_version":"6.3.1"},{"rt":null,"stimulus":"<div style=\"font-size:24px;\">Loading puzzle:<br>8 / 9</div>","response":null,"trial_type":"html-keyboard-response","trial_index":25,"time_elapsed":141096,"internal_node_id":"0.0-3.0-0.0-1.7","experiment":"validation","task_version":"1.1","jspsych_version":"6.3.1"},{"stimulus":"../static/img/rpm/a53.png","choice_order":[2,7,5,3,6,4,1,0],"correct":0,"choice":0,"accuracy":1,"rt":9689.600000023842,"screen_resolution":[1680,1050],"minimum_resolution":1,"all_loaded":true,"test_form":"a","trial_type":"rpm","trial_index":26,"time_elapsed":150788,"internal_node_id":"0.0-3.0-0.0-2.7","experiment":"validation","task_version":"1.1","jspsych_version":"6.3.1"},{"min_width":700,"min_height":600,"inner_width":1680,"inner_height":1050,"trial_type":"screen-check","trial_index":27,"time_elapsed":150791,"internal_node_id":"0.0-3.0-0.0-0.8","experiment":"validation","task_version":"1.1","jspsych_version":"6.3.1"},{"rt":null,"stimulus":"<div style=\"font-size:24px;\">Loading puzzle:<br>9 / 9</div>","response":null,"trial_type":"html-keyboard-response","trial_index":28,"time_elapsed":151992,"internal_node_id":"0.0-3.0-0.0-1.8","experiment":"validation","task_version":"1.1","jspsych_version":"6.3.1"},{"stimulus":"../static/img/rpm/a55.png","choice_order":[7,6,5,1,3,4,2,0],"correct":1,"choice":2,"accuracy":0,"rt":27356.599999964237,"screen_resolution":[1680,1050],"minimum_resolution":1,"all_loaded":true,"test_form":"a","trial_type":"rpm","trial_index":29,"time_elapsed":179350,"internal_node_id":"0.0-3.0-0.0-2.8","experiment":"validation","task_version":"1.1","jspsych_version":"6.3.1"},{"value":{"rpm_raw":6,"rpm_err":3,"rpm_adj":49.829323511653385,"rpm_rt":143293.20000004768},"trial_type":"call-function","trial_index":30,"time_elapsed":179355,"internal_node_id":"0.0-3.0-1.0","experiment":"validation","task_version":"1.1","jspsych_version":"6.3.1"},{"view_history":[{"page_index":0,"viewing_time":2207.599999964237}],"rt":2207.899999976158,"trial_type":"instructions","trial_index":31,"time_elapsed":181563,"internal_node_id":"0.0-4.0","experiment":"validation","task_version":"1.1","jspsych_version":"6.3.1","interactions":"[{\"event\":\"fullscreenenter\",\"trial\":1,\"time\":8493}]"}]