[{"view_history":[{"page_index":0,"viewing_time":2308.5999999046326}],"rt":2308.7999999523163,"trial_type":"instructions","trial_index":0,"time_elapsed":2325,"internal_node_id":"0.0-0.0","experiment":"validation","task_version":"1.1","jspsych_version":"6.3.1"},{"rt":9412.899999976158,"responses":{"age":"31","gender-categorical":"Male","gender-free-response":"","ethnicity":"Not Hispanic or Latino","race":["White"],"education":"Bachelor degree"},"survey":"demographics","trial_type":"survey-demo","trial_index":1,"time_elapsed":11739,"internal_node_id":"0.0-1.0","experiment":"validation","task_version":"1.1","jspsych_version":"6.3.1"},{"responses":{"Q07":"4","Q08":"4","Q11":"0","Q09":"4","Q01":"4","Q04":"0","Q03":"4","Q05":"0","Q10":"4","Q02":"4","Q06":"4"},"rt":23308.100000023842,"item_order":[6,7,10,8,0,3,2,4,9,1,5],"radio_events":[3128.1999999284744,5972.100000023842,6941.799999952316,7989.600000023842,9439.899999976158,10642,11356,13237.799999952316,14599.899999976158,18523.699999928474,21615.799999952316,22713.899999976158],"key_events":[],"mouse_events":[3128.1999999284744,4498.100000023842,5972.100000023842,6941.799999952316,7989.600000023842,9439.899999976158,10642,11356,13237.799999952316,14599.899999976158,18523.699999928474,20213.699999928474,21615.799999952316,22713.899999976158,23305.699999928474],"straightlining":0.5454545454545454,"zigzagging":0.4,"honeypot":0,"survey":"openness","trial_type":"survey-template","trial_index":2,"time_elapsed":35051,"internal_node_id":"0.0-2.0","experiment":"validation","task_version":"1.1","jspsych_version":"6.3.1","infrequency":0},{"responses":{"Q10":"0","Q02":"0","Q08":"1","Q01":"1","Q11":"4","Q05":"0","Q04":"0","Q07":"2","Q03":"1","Q06":"1","Q09":"0"},"rt":24614.199999928474,"item_order":[9,1,7,0,10,4,3,6,2,5,8],"radio_events":[2254.600000023842,3864.6999999284744,6460.5,8526.799999952316,10434.699999928474,12139,14238.600000023842,15265,17715.100000023842,20638.899999976158,24148.899999976158],"key_events":[],"mouse_events":[2254.600000023842,3864.6999999284744,5363,6460.5,8526.799999952316,10434.699999928474,12139,14238.600000023842,15265,17715.100000023842,20638.899999976158,24148.899999976158,24613.100000023842],"straightlining":0.2727272727272727,"zigzagging":0.4,"honeypot":0,"survey":"neuroticism","trial_type":"survey-template","trial_index":3,"time_elapsed":59668,"internal_node_id":"0.0-3.0","experiment":"validation","task_version":"1.1","jspsych_version":"6.3.1","infrequency":0},{"responses":{"Q04":"4","Q02":"3","Q07":"2","Q05":"3","Q06":"3","Q03":"4","Q01":"3"},"rt":21757.100000023842,"item_order":[3,1,6,4,5,2,0],"radio_events":[4258.700000047684,6004.600000023842,7944.5,9874.200000047684,16124.600000023842,18200.5,19490.5,20988.600000023842],"key_events":[],"mouse_events":[4258.700000047684,6004.600000023842,7944.5,9874.200000047684,15548.600000023842,16124.600000023842,18200.5,19490.5,20988.600000023842,21756.200000047684],"straightlining":0.5714285714285714,"zigzagging":0.3333333333333333,"honeypot":0,"survey":"nfc6","trial_type":"survey-template","trial_index":4,"time_elapsed":81427,"internal_node_id":"0.0-4.0","experiment":"validation","task_version":"1.1","jspsych_version":"6.3.1","infrequency":0},{"value":[0,1.3896103896103895,1.1333333333333333],"trial_type":"call-function","trial_index":5,"time_elapsed":81428,"internal_node_id":"0.0-5.0","experiment":"validation","task_version":"1.1","jspsych_version":"6.3.1","interactions":"[]"}]