[{"view_history":[{"page_index":0,"viewing_time":2118.100000023842}],"rt":2118.300000011921,"trial_type":"instructions","trial_index":0,"time_elapsed":2130,"internal_node_id":"0.0-0.0","experiment":"validation","task_version":"1.1","jspsych_version":"6.3.1"},{"rt":19684.69999998808,"responses":{"age":"22","gender-categorical":"Other","gender-free-response":"Non-binary","ethnicity":"Not Hispanic or Latino","race":["White"],"education":"Associate degree"},"survey":"demographics","trial_type":"survey-demo","trial_index":1,"time_elapsed":21816,"internal_node_id":"0.0-1.0","experiment":"validation","task_version":"1.1","jspsych_version":"6.3.1"},{"responses":{"Q10":"4","Q05":"0","Q02":"4","Q03":"0","Q09":"2","Q01":"4","Q04":"1","Q11":"0","Q06":"4","Q08":"4","Q07":"4"},"rt":58733.5,"item_order":[9,4,1,2,8,0,3,10,5,7,6],"radio_events":[8616.300000011921,12039.899999976158,13778.699999988079,15566.699999988079,18266.19999998808,21373.69999998808,43356.30000001192,46452.30000001192,51044.80000001192,52880.69999998808,54118.39999997616],"key_events":[],"mouse_events":[8616.300000011921,11619,12039.899999976158,13778.699999988079,15566.699999988079,18266.19999998808,20782.30000001192,21056.899999976158,21373.69999998808,42428.59999996424,42865.30000001192,43356.30000001192,46452.30000001192,50704.69999998808,51044.80000001192,52880.69999998808,54118.39999997616,58732.5],"straightlining":0.5454545454545454,"zigzagging":0.3,"honeypot":0,"survey":"openness","trial_type":"survey-template","trial_index":2,"time_elapsed":80553,"internal_node_id":"0.0-2.0","experiment":"validation","task_version":"1.1","jspsych_version":"6.3.1","infrequency":0},{"responses":{"Q04":"3","Q01":"3","Q02":"3","Q09":"4","Q11":"4","Q10":"4","Q08":"4","Q05":"4","Q07":"4","Q03":"3","Q06":"3"},"rt":27532,"item_order":[3,0,1,8,10,9,7,4,6,2,5],"radio_events":[4036.699999988079,6573,8403.399999976158,10722.899999976158,14303.099999964237,16274.800000011921,18640,20381.599999964237,22435.899999976158,24704.5,26898.899999976158],"key_events":[],"mouse_events":[4036.699999988079,6573,8053.599999964237,8403.399999976158,10722.899999976158,13491,13860.699999988079,14303.099999964237,16274.800000011921,18640,20381.599999964237,22435.899999976158,24704.5,26898.899999976158,27531.099999964237],"straightlining":0.36363636363636365,"zigzagging":0.4,"honeypot":0,"survey":"neuroticism","trial_type":"survey-template","trial_index":3,"time_elapsed":108087,"internal_node_id":"0.0-3.0","experiment":"validation","task_version":"1.1","jspsych_version":"6.3.1","infrequency":0},{"responses":{"Q04":"4","Q02":"4","Q06":"1","Q01":"3","Q07":"2","Q05":"4","Q03":"4"},"rt":115846.39999997616,"item_order":[3,1,5,0,6,4,2],"radio_events":[8584.699999988079,17157.80000001192,40781.89999997616,46787.80000001192,52540.80000001192,71803.39999997616,115136.69999998808],"key_events":[],"mouse_events":[8584.699999988079,17157.80000001192,40066.10000002384,40361.80000001192,40781.89999997616,46787.80000001192,51887.39999997616,52336.89999997616,52540.80000001192,71803.39999997616,114788.30000001192,115136.69999998808,115845.80000001192],"straightlining":0.2857142857142857,"zigzagging":0.5,"honeypot":0,"survey":"nfc6","trial_type":"survey-template","trial_index":4,"time_elapsed":223935,"internal_node_id":"0.0-4.0","experiment":"validation","task_version":"1.1","jspsych_version":"6.3.1","infrequency":0},{"value":[0,1.1948051948051948,1.2],"trial_type":"call-function","trial_index":5,"time_elapsed":223936,"internal_node_id":"0.0-5.0","experiment":"validation","task_version":"1.1","jspsych_version":"6.3.1","interactions":"[{\"event\":\"blur\",\"trial\":2,\"time\":45126},{\"event\":\"focus\",\"trial\":2,\"time\":57289},{\"event\":\"blur\",\"trial\":4,\"time\":186999},{\"event\":\"focus\",\"trial\":4,\"time\":187528},{\"event\":\"blur\",\"trial\":4,\"time\":190709},{\"event\":\"focus\",\"trial\":4,\"time\":222819}]"}]