[{"success":true,"timeout":false,"failed_images":[],"failed_audio":[],"failed_video":[],"trial_type":"preload","trial_index":0,"time_elapsed":11675,"internal_node_id":"0.0-0.0","experiment":"validation","task_version":"1.1","jspsych_version":"6.3.1"},{"success":true,"trial_type":"fullscreen","trial_index":1,"time_elapsed":25792,"internal_node_id":"0.0-1.0","experiment":"validation","task_version":"1.1","jspsych_version":"6.3.1"},{"view_history":[{"page_index":0,"viewing_time":1915},{"page_index":1,"viewing_time":8663.699999988079},{"page_index":2,"viewing_time":2696.099999964237},{"page_index":3,"viewing_time":1064.1000000238419}],"rt":14339.099999964237,"trial_type":"instructions","trial_index":2,"time_elapsed":40133,"internal_node_id":"0.0-3.0","experiment":"validation","task_version":"1.1","jspsych_version":"6.3.1"},{"item":5,"shape_set":1,"distractor":"pd","choice_order":[2,0,1,3],"correct":0,"choice":0,"accuracy":1,"rt":8278.5,"screen_resolution":[1680,1050],"minimum_resolution":1,"all_loaded":true,"item_set":"practice","trial_type":"mars","trial_index":3,"time_elapsed":49165,"internal_node_id":"0.0-4.0-0.0","experiment":"validation","task_version":"1.1","jspsych_version":"6.3.1"},{"item":2,"shape_set":1,"distractor":"pd","choice_order":[2,0,3,1],"correct":0,"choice":0,"accuracy":1,"rt":3321.599999964237,"screen_resolution":[1680,1050],"minimum_resolution":1,"all_loaded":true,"item_set":"practice","trial_type":"mars","trial_index":4,"time_elapsed":53244,"internal_node_id":"0.0-5.0-0.0","experiment":"validation","task_version":"1.1","jspsych_version":"6.3.1"},{"item":8,"shape_set":1,"distractor":"pd","choice_order":[2,3,0,1],"correct":0,"choice":3,"accuracy":0,"rt":8087.699999988079,"screen_resolution":[1680,1050],"minimum_resolution":1,"all_loaded":true,"item_set":"practice","trial_type":"mars","trial_index":5,"time_elapsed":62084,"internal_node_id":"0.0-6.0-0.0","experiment":"validation","task_version":"1.1","jspsych_version":"6.3.1"},{"item":8,"shape_set":1,"distractor":"pd","choice_order":[0,2,1,3],"correct":0,"choice":3,"accuracy":0,"rt":4133.699999988079,"screen_resolution":[1680,1050],"minimum_resolution":1,"all_loaded":true,"item_set":"practice","trial_type":"mars","trial_index":6,"time_elapsed":66972,"internal_node_id":"0.0-6.1-0.1","experiment":"validation","task_version":"1.1","jspsych_version":"6.3.1"},{"item":8,"shape_set":1,"distractor":"pd","choice_order":[2,1,0,3],"correct":0,"choice":3,"accuracy":0,"rt":2221.699999988079,"screen_resolution":[1680,1050],"minimum_resolution":1,"all_loaded":true,"item_set":"practice","trial_type":"mars","trial_index":7,"time_elapsed":69948,"internal_node_id":"0.0-6.2-0.2","experiment":"validation","task_version":"1.1","jspsych_version":"6.3.1"},{"item":8,"shape_set":1,"distractor":"pd","choice_order":[2,1,0,3],"correct":0,"choice":2,"accuracy":0,"rt":2292.7999999523163,"screen_resolution":[1680,1050],"minimum_resolution":1,"all_loaded":true,"item_set":"practice","trial_type":"mars","trial_index":8,"time_elapsed":72997,"internal_node_id":"0.0-6.3-0.3","experiment":"validation","task_version":"1.1","jspsych_version":"6.3.1"},{"item":8,"shape_set":1,"distractor":"pd","choice_order":[0,3,1,2],"correct":0,"choice":3,"accuracy":0,"rt":142,"screen_resolution":[1680,1050],"minimum_resolution":1,"all_loaded":true,"item_set":"practice","trial_type":"mars","trial_index":9,"time_elapsed":73893,"internal_node_id":"0.0-6.4-0.4","experiment":"validation","task_version":"1.1","jspsych_version":"6.3.1"},{"item":8,"shape_set":1,"distractor":"pd","choice_order":[0,2,3,1],"correct":0,"choice":3,"accuracy":0,"rt":997.1999999880791,"screen_resolution":[1680,1050],"minimum_resolution":1,"all_loaded":true,"item_set":"practice","trial_type":"mars","trial_index":10,"time_elapsed":75646,"internal_node_id":"0.0-6.5-0.5","experiment":"validation","task_version":"1.1","jspsych_version":"6.3.1"},{"item":8,"shape_set":1,"distractor":"pd","choice_order":[3,2,0,1],"correct":0,"choice":3,"accuracy":0,"rt":4242.5,"screen_resolution":[1680,1050],"minimum_resolution":1,"all_loaded":true,"item_set":"practice","trial_type":"mars","trial_index":11,"time_elapsed":80644,"internal_node_id":"0.0-6.6-0.6","experiment":"validation","task_version":"1.1","jspsych_version":"6.3.1"},{"item":8,"shape_set":1,"distractor":"pd","choice_order":[3,0,2,1],"correct":0,"choice":1,"accuracy":0,"rt":11751.800000011921,"screen_resolution":[1680,1050],"minimum_resolution":1,"all_loaded":true,"item_set":"practice","trial_type":"mars","trial_index":12,"time_elapsed":93148,"internal_node_id":"0.0-6.7-0.7","experiment":"validation","task_version":"1.1","jspsych_version":"6.3.1"},{"item":8,"shape_set":1,"distractor":"pd","choice_order":[1,3,2,0],"correct":0,"choice":3,"accuracy":0,"rt":9158.900000035763,"screen_resolution":[1680,1050],"minimum_resolution":1,"all_loaded":true,"item_set":"practice","trial_type":"mars","trial_index":13,"time_elapsed":103061,"internal_node_id":"0.0-6.8-0.8","experiment":"validation","task_version":"1.1","jspsych_version":"6.3.1"},{"item":8,"shape_set":1,"distractor":"pd","choice_order":[2,0,3,1],"correct":0,"choice":2,"accuracy":0,"rt":13267.800000011921,"screen_resolution":[1680,1050],"minimum_resolution":1,"all_loaded":true,"item_set":"practice","trial_type":"mars","trial_index":14,"time_elapsed":117084,"internal_node_id":"0.0-6.9-0.9","experiment":"validation","task_version":"1.1","jspsych_version":"6.3.1"},{"item":8,"shape_set":1,"distractor":"pd","choice_order":[1,0,2,3],"correct":0,"choice":1,"accuracy":0,"rt":27790.80000001192,"screen_resolution":[1680,1050],"minimum_resolution":1,"all_loaded":true,"item_set":"practice","trial_type":"mars","trial_index":15,"time_elapsed":145629,"internal_node_id":"0.0-6.10-0.10","experiment":"validation","task_version":"1.1","jspsych_version":"6.3.1"},{"item":8,"shape_set":1,"distractor":"pd","choice_order":[3,1,2,0],"correct":0,"choice":0,"accuracy":1,"rt":27789.200000047684,"screen_resolution":[1680,1050],"minimum_resolution":1,"all_loaded":true,"item_set":"practice","trial_type":"mars","trial_index":16,"time_elapsed":174173,"internal_node_id":"0.0-6.11-0.11","experiment":"validation","task_version":"1.1","jspsych_version":"6.3.1"},{"view_history":[{"page_index":0,"viewing_time":2750.399999976158},{"page_index":1,"viewing_time":2376.7000000476837}],"rt":5127.399999976158,"trial_type":"instructions","trial_index":17,"time_elapsed":179302,"internal_node_id":"0.0-7.0","experiment":"validation","task_version":"1.1","jspsych_version":"6.3.1"},{"rt":null,"stimulus":"<div style=\"font-size:24px;\">Loading puzzle:<br>1 / 12</div>","response":null,"trial_type":"html-keyboard-response","trial_index":18,"time_elapsed":180506,"internal_node_id":"0.0-8.0-1.0","experiment":"validation","task_version":"1.1","jspsych_version":"6.3.1"},{"item":71,"shape_set":3,"distractor":"pd","choice_order":[1,2,0,3],"correct":0,"choice":2,"accuracy":0,"rt":7969.100000023842,"screen_resolution":[1680,1050],"minimum_resolution":1,"all_loaded":false,"item_set":3,"trial_type":"mars","trial_index":19,"time_elapsed":188478,"internal_node_id":"0.0-8.0-2.0","experiment":"validation","task_version":"1.1","jspsych_version":"6.3.1","browser_interactions":0},{"rt":null,"stimulus":"<div style=\"font-size:24px;\">Loading puzzle:<br>2 / 12</div>","response":null,"trial_type":"html-keyboard-response","trial_index":20,"time_elapsed":189679,"internal_node_id":"0.0-9.0-1.0","experiment":"validation","task_version":"1.1","jspsych_version":"6.3.1"},{"item":55,"shape_set":2,"distractor":"pd","choice_order":[1,3,0,2],"correct":0,"choice":0,"accuracy":1,"rt":4829.100000023842,"screen_resolution":[1680,1050],"minimum_resolution":1,"all_loaded":false,"item_set":3,"trial_type":"mars","trial_index":21,"time_elapsed":194512,"internal_node_id":"0.0-9.0-2.0","experiment":"validation","task_version":"1.1","jspsych_version":"6.3.1","browser_interactions":0},{"rt":null,"stimulus":"<div style=\"font-size:24px;\">Loading puzzle:<br>3 / 12</div>","response":null,"trial_type":"html-keyboard-response","trial_index":22,"time_elapsed":195714,"internal_node_id":"0.0-10.0-1.0","experiment":"validation","task_version":"1.1","jspsych_version":"6.3.1"},{"item":30,"shape_set":1,"distractor":"pd","choice_order":[3,2,0,1],"correct":0,"choice":3,"accuracy":0,"rt":10936.5,"screen_resolution":[1680,1050],"minimum_resolution":1,"all_loaded":false,"item_set":3,"trial_type":"mars","trial_index":23,"time_elapsed":206656,"internal_node_id":"0.0-10.0-2.0","experiment":"validation","task_version":"1.1","jspsych_version":"6.3.1","browser_interactions":2},{"rt":null,"stimulus":"<div style=\"font-size:24px;\">Loading puzzle:<br>4 / 12</div>","response":null,"trial_type":"html-keyboard-response","trial_index":24,"time_elapsed":207858,"internal_node_id":"0.0-11.0-1.0","experiment":"validation","task_version":"1.1","jspsych_version":"6.3.1"},{"item":45,"shape_set":3,"distractor":"pd","choice_order":[0,3,1,2],"correct":0,"choice":1,"accuracy":0,"rt":3065.800000011921,"screen_resolution":[1680,1050],"minimum_resolution":1,"all_loaded":false,"item_set":3,"trial_type":"mars","trial_index":25,"time_elapsed":210927,"internal_node_id":"0.0-11.0-2.0","experiment":"validation","task_version":"1.1","jspsych_version":"6.3.1","browser_interactions":0},{"rt":null,"stimulus":"<div style=\"font-size:24px;\">Loading puzzle:<br>5 / 12</div>","response":null,"trial_type":"html-keyboard-response","trial_index":26,"time_elapsed":212129,"internal_node_id":"0.0-12.0-1.0","experiment":"validation","task_version":"1.1","jspsych_version":"6.3.1"},{"item":11,"shape_set":2,"distractor":"pd","choice_order":[0,2,1,3],"correct":0,"choice":3,"accuracy":0,"rt":5233.699999988079,"screen_resolution":[1680,1050],"minimum_resolution":1,"all_loaded":false,"item_set":3,"trial_type":"mars","trial_index":27,"time_elapsed":217366,"internal_node_id":"0.0-12.0-2.0","experiment":"validation","task_version":"1.1","jspsych_version":"6.3.1","browser_interactions":2},{"rt":null,"stimulus":"<div style=\"font-size:24px;\">Loading puzzle:<br>6 / 12</div>","response":null,"trial_type":"html-keyboard-response","trial_index":28,"time_elapsed":218569,"internal_node_id":"0.0-13.0-1.0","experiment":"validation","task_version":"1.1","jspsych_version":"6.3.1"},{"item":29,"shape_set":1,"distractor":"pd","choice_order":[1,3,2,0],"correct":0,"choice":0,"accuracy":1,"rt":11538.300000011921,"screen_resolution":[1680,1050],"minimum_resolution":1,"all_loaded":true,"item_set":3,"trial_type":"mars","trial_index":29,"time_elapsed":230111,"internal_node_id":"0.0-13.0-2.0","experiment":"validation","task_version":"1.1","jspsych_version":"6.3.1","browser_interactions":0},{"rt":null,"stimulus":"<div style=\"font-size:24px;\">Loading puzzle:<br>7 / 12</div>","response":null,"trial_type":"html-keyboard-response","trial_index":30,"time_elapsed":231314,"internal_node_id":"0.0-14.0-1.0","experiment":"validation","task_version":"1.1","jspsych_version":"6.3.1"},{"item":16,"shape_set":3,"distractor":"md","choice_order":[1,3,2,0],"correct":0,"choice":2,"accuracy":0,"rt":5256.300000011921,"screen_resolution":[1680,1050],"minimum_resolution":1,"all_loaded":true,"item_set":3,"trial_type":"mars","trial_index":31,"time_elapsed":236574,"internal_node_id":"0.0-14.0-2.0","experiment":"validation","task_version":"1.1","jspsych_version":"6.3.1","browser_interactions":0},{"rt":null,"stimulus":"<div style=\"font-size:24px;\">Loading puzzle:<br>8 / 12</div>","response":null,"trial_type":"html-keyboard-response","trial_index":32,"time_elapsed":237776,"internal_node_id":"0.0-15.0-1.0","experiment":"validation","task_version":"1.1","jspsych_version":"6.3.1"},{"item":17,"shape_set":2,"distractor":"pd","choice_order":[2,0,1,3],"correct":0,"choice":3,"accuracy":0,"rt":2962.2000000476837,"screen_resolution":[1680,1050],"minimum_resolution":1,"all_loaded":true,"item_set":3,"trial_type":"mars","trial_index":33,"time_elapsed":240742,"internal_node_id":"0.0-15.0-2.0","experiment":"validation","task_version":"1.1","jspsych_version":"6.3.1","browser_interactions":0},{"rt":null,"stimulus":"<div style=\"font-size:24px;\">Loading puzzle:<br>9 / 12</div>","response":null,"trial_type":"html-keyboard-response","trial_index":34,"time_elapsed":241945,"internal_node_id":"0.0-16.0-1.0","experiment":"validation","task_version":"1.1","jspsych_version":"6.3.1"},{"item":23,"shape_set":1,"distractor":"md","choice_order":[2,3,1,0],"correct":0,"choice":3,"accuracy":0,"rt":2113.400000035763,"screen_resolution":[1680,1050],"minimum_resolution":1,"all_loaded":true,"item_set":3,"trial_type":"mars","trial_index":35,"time_elapsed":244062,"internal_node_id":"0.0-16.0-2.0","experiment":"validation","task_version":"1.1","jspsych_version":"6.3.1","browser_interactions":0},{"rt":null,"stimulus":"<div style=\"font-size:24px;\">Loading puzzle:<br>10 / 12</div>","response":null,"trial_type":"html-keyboard-response","trial_index":36,"time_elapsed":245265,"internal_node_id":"0.0-17.0-1.0","experiment":"validation","task_version":"1.1","jspsych_version":"6.3.1"},{"item":58,"shape_set":3,"distractor":"md","choice_order":[0,2,1,3],"correct":0,"choice":2,"accuracy":0,"rt":2346.599999964237,"screen_resolution":[1680,1050],"minimum_resolution":1,"all_loaded":true,"item_set":3,"trial_type":"mars","trial_index":37,"time_elapsed":247615,"internal_node_id":"0.0-17.0-2.0","experiment":"validation","task_version":"1.1","jspsych_version":"6.3.1","browser_interactions":0},{"rt":null,"stimulus":"<div style=\"font-size:24px;\">Loading puzzle:<br>11 / 12</div>","response":null,"trial_type":"html-keyboard-response","trial_index":38,"time_elapsed":248818,"internal_node_id":"0.0-18.0-1.0","experiment":"validation","task_version":"1.1","jspsych_version":"6.3.1"},{"item":35,"shape_set":2,"distractor":"pd","choice_order":[1,2,0,3],"correct":0,"choice":2,"accuracy":0,"rt":1689.800000011921,"screen_resolution":[1680,1050],"minimum_resolution":1,"all_loaded":true,"item_set":3,"trial_type":"mars","trial_index":39,"time_elapsed":250511,"internal_node_id":"0.0-18.0-2.0","experiment":"validation","task_version":"1.1","jspsych_version":"6.3.1","browser_interactions":0},{"rt":null,"stimulus":"<div style=\"font-size:24px;\">Loading puzzle:<br>12 / 12</div>","response":null,"trial_type":"html-keyboard-response","trial_index":40,"time_elapsed":251713,"internal_node_id":"0.0-19.0-1.0","experiment":"validation","task_version":"1.1","jspsych_version":"6.3.1"},{"item":76,"shape_set":1,"distractor":"pd","choice_order":[0,1,2,3],"correct":0,"choice":2,"accuracy":0,"rt":1978.5,"screen_resolution":[1680,1050],"minimum_resolution":1,"all_loaded":true,"item_set":3,"trial_type":"mars","trial_index":41,"time_elapsed":253695,"internal_node_id":"0.0-19.0-2.0","experiment":"validation","task_version":"1.1","jspsych_version":"6.3.1","browser_interactions":0},{"value":[5,0,0],"trial_type":"call-function","trial_index":42,"time_elapsed":253696,"internal_node_id":"0.0-20.0","experiment":"validation","task_version":"1.1","jspsych_version":"6.3.1"},{"view_history":[{"page_index":0,"viewing_time":1573}],"rt":1573.4000000357628,"trial_type":"instructions","trial_index":43,"time_elapsed":255269,"internal_node_id":"0.0-21.0","experiment":"validation","task_version":"1.1","jspsych_version":"6.3.1","interactions":"[{\"event\":\"blur\",\"trial\":0,\"time\":4199},{\"event\":\"focus\",\"trial\":0,\"time\":5529},{\"event\":\"blur\",\"trial\":0,\"time\":5984},{\"event\":\"focus\",\"trial\":0,\"time\":6561},{\"event\":\"blur\",\"trial\":0,\"time\":6857},{\"event\":\"focus\",\"trial\":0,\"time\":7401},{\"event\":\"blur\",\"trial\":0,\"time\":8120},{\"event\":\"focus\",\"trial\":0,\"time\":10118},{\"event\":\"blur\",\"trial\":1,\"time\":15872},{\"event\":\"focus\",\"trial\":1,\"time\":24685},{\"event\":\"fullscreenenter\",\"trial\":1,\"time\":24824},{\"event\":\"blur\",\"trial\":23,\"time\":200368},{\"event\":\"focus\",\"trial\":23,\"time\":202564},{\"event\":\"blur\",\"trial\":27,\"time\":213792},{\"event\":\"focus\",\"trial\":27,\"time\":216761}]"}]