[{"view_history":[{"page_index":0,"viewing_time":5978.799999952316}],"rt":5979.199999988079,"trial_type":"instructions","trial_index":0,"time_elapsed":5996,"internal_node_id":"0.0-0.0","experiment":"validation","task_version":"1.1","jspsych_version":"6.3.1"},{"rt":76440.19999998808,"responses":{"age":"35","gender-categorical":"Male","gender-free-response":"","ethnicity":"Not Hispanic or Latino","race":["Black or African American"],"education":"High school"},"survey":"demographics","trial_type":"survey-demo","trial_index":1,"time_elapsed":82438,"internal_node_id":"0.0-1.0","experiment":"validation","task_version":"1.1","jspsych_version":"6.3.1"},{"responses":{"Q07":"4","Q03":"4","Q05":"0","Q08":"0","Q01":"4","Q06":"4","Q09":"4","Q10":"1","Q11":"1","Q04":"0","Q02":"0"},"rt":28668.30000001192,"item_order":[6,2,4,7,0,5,8,9,10,3,1],"radio_events":[5194.600000023842,8522.5,9402.600000023842,10122.699999988079,12282.600000023842,14746.899999976158,18354.69999998808,21226.69999998808,23138.80000001192,25034.899999976158,27914.5],"key_events":[],"mouse_events":[4234.699999988079,4834.800000011921,5194.600000023842,6722.899999976158,7346.600000023842,8522.5,9402.600000023842,10122.699999988079,12282.600000023842,14130.699999988079,14746.899999976158,18354.69999998808,20162.69999998808,20618.600000023842,21226.69999998808,23138.80000001192,25034.899999976158,26987.19999998808,27466.80000001192,27914.5,28666.69999998808],"straightlining":0.45454545454545453,"zigzagging":0.3,"honeypot":0,"survey":"openness","trial_type":"survey-template","trial_index":2,"time_elapsed":111110,"internal_node_id":"0.0-2.0","experiment":"validation","task_version":"1.1","jspsych_version":"6.3.1","infrequency":0},{"responses":{"Q03":"4","Q06":"3","Q01":"2","Q07":"2","Q04":"1","Q02":"1","Q05":"3"},"rt":19580.799999952316,"item_order":[2,5,0,6,3,1,4],"radio_events":[3867.699999988079,7683.799999952316,10155.599999964237,13059.599999964237,15179.5,17187.69999998808,18715.799999952316],"key_events":[],"mouse_events":[3203.5,3867.699999988079,7059.899999976158,7683.799999952316,9483.799999952316,10155.599999964237,12395.5,13059.599999964237,15179.5,16747.599999964237,17187.69999998808,18715.799999952316,19580.099999964237],"straightlining":0.42857142857142855,"zigzagging":0.3333333333333333,"honeypot":0,"survey":"nfc6","trial_type":"survey-template","trial_index":3,"time_elapsed":130694,"internal_node_id":"0.0-3.0","experiment":"validation","task_version":"1.1","jspsych_version":"6.3.1","infrequency":0},{"responses":{"Q06":"4","Q04":"0","Q07":"4","Q03":"0","Q01":"0","Q11":"3","Q09":"4","Q10":"1","Q02":"0","Q08":"1","Q05":"0"},"rt":34725.60000002384,"item_order":[5,3,6,2,0,10,8,9,1,7,4],"radio_events":[4676.200000047684,7348.5,7981,10020.400000035763,11916.200000047684,13676.400000035763,16692.200000047684,20836.80000001192,22540.30000001192,25284.5,29588.400000035763,32372.5],"key_events":[],"mouse_events":[3004.300000011921,3884.7000000476837,4676.200000047684,5532.600000023842,6588.300000011921,7348.5,7981,9244.5,10020.400000035763,11916.200000047684,13188.600000023842,13676.400000035763,16188.300000011921,16692.200000047684,19444.30000001192,20836.80000001192,22540.30000001192,24700.600000023842,25284.5,29588.400000035763,32372.5,34724.5],"straightlining":0.7272727272727273,"zigzagging":0,"honeypot":0,"survey":"neuroticism","trial_type":"survey-template","trial_index":4,"time_elapsed":165422,"internal_node_id":"0.0-4.0","experiment":"validation","task_version":"1.1","jspsych_version":"6.3.1","infrequency":0},{"value":[0,1.6103896103896105,0.6333333333333333],"trial_type":"call-function","trial_index":5,"time_elapsed":165423,"internal_node_id":"0.0-5.0","experiment":"validation","task_version":"1.1","jspsych_version":"6.3.1","interactions":"[{\"event\":\"focus\",\"trial\":0,\"time\":3593},{\"event\":\"blur\",\"trial\":1,\"time\":14151},{\"event\":\"focus\",\"trial\":1,\"time\":23632},{\"event\":\"blur\",\"trial\":1,\"time\":44689},{\"event\":\"focus\",\"trial\":1,\"time\":82323}]"}]