[{"view_history":[{"page_index":0,"viewing_time":3106.5999999940395}],"rt":3106.7999999821186,"trial_type":"instructions","trial_index":0,"time_elapsed":3121,"internal_node_id":"0.0-0.0","experiment":"validation","task_version":"1.1","jspsych_version":"6.3.1"},{"rt":8734.59999999404,"responses":{"age":"28","gender-categorical":"Female","gender-free-response":"","ethnicity":"Not Hispanic or Latino","race":["White"],"education":"Bachelor degree"},"survey":"demographics","trial_type":"survey-demo","trial_index":1,"time_elapsed":11857,"internal_node_id":"0.0-1.0","experiment":"validation","task_version":"1.1","jspsych_version":"6.3.1"},{"responses":{"Q06":"1","Q07":"2","Q01":"3","Q05":"3","Q04":"3","Q02":"1","Q03":"3"},"rt":33549.59999999404,"item_order":[5,6,0,4,3,1,2],"radio_events":[9388.899999976158,11020.299999982119,13412.699999988079,15204.299999982119,18764.69999998808,22148.69999998808,28236.59999999404,32884.19999998808],"key_events":[],"mouse_events":[9388.899999976158,11020.299999982119,13412.699999988079,15204.299999982119,18764.69999998808,22148.69999998808,28236.59999999404,32884.19999998808,33548.69999998808],"straightlining":0.5714285714285714,"zigzagging":0.3333333333333333,"honeypot":0,"survey":"nfc6","trial_type":"survey-template","trial_index":2,"time_elapsed":45410,"internal_node_id":"0.0-2.0","experiment":"validation","task_version":"1.1","jspsych_version":"6.3.1","infrequency":0},{"responses":{"Q09":"3","Q07":"3","Q06":"3","Q08":"2","Q04":"0","Q01":"3","Q10":"2","Q05":"3","Q02":"2","Q03":"1","Q11":"4"},"rt":29877.59999999404,"item_order":[8,6,5,7,3,0,9,4,1,2,10],"radio_events":[3836.5,5516.5,6772.700000017881,8756.300000011921,11620.40000000596,12900.200000017881,17172.5,19348.40000000596,20700.20000001788,22956.5,25940.5,28580.5],"key_events":[],"mouse_events":[3836.5,5516.5,6772.700000017881,8756.300000011921,11620.40000000596,12900.200000017881,17172.5,19348.40000000596,20700.20000001788,22956.5,25940.5,28580.5,29876.59999999404],"straightlining":0.36363636363636365,"zigzagging":0.5,"honeypot":0,"survey":"neuroticism","trial_type":"survey-template","trial_index":3,"time_elapsed":75290,"internal_node_id":"0.0-3.0","experiment":"validation","task_version":"1.1","jspsych_version":"6.3.1","infrequency":0},{"responses":{"Q07":"3","Q11":"0","Q03":"3","Q08":"2","Q10":"3","Q02":"1","Q01":"3","Q09":"3","Q06":"3","Q04":"3","Q05":"1"},"rt":39351,"item_order":[6,10,2,7,9,1,0,8,5,3,4],"radio_events":[10692.699999988079,13508.699999988079,19116.79999998212,20004.59999999404,23046.19999998808,25388.40000000596,28372.69999998808,30524.59999999404,34356.59999999404,36324.29999998212,38676.59999999404],"key_events":[],"mouse_events":[7620.5999999940395,10692.699999988079,13508.699999988079,16740.29999998212,19116.79999998212,20004.59999999404,23046.19999998808,25388.40000000596,28372.69999998808,30524.59999999404,34356.59999999404,36324.29999998212,38316.59999999404,38676.59999999404,39350.29999998212],"straightlining":0.5454545454545454,"zigzagging":0.3,"honeypot":0,"survey":"openness","trial_type":"survey-template","trial_index":4,"time_elapsed":114643,"internal_node_id":"0.0-4.0","experiment":"validation","task_version":"1.1","jspsych_version":"6.3.1","infrequency":0},{"value":[0,1.4805194805194803,1.1333333333333333],"trial_type":"call-function","trial_index":5,"time_elapsed":114644,"internal_node_id":"0.0-5.0","experiment":"validation","task_version":"1.1","jspsych_version":"6.3.1","interactions":"[]"}]