[{"view_history":[{"page_index":0,"viewing_time":97290.39999999106}],"rt":97292.29999999702,"trial_type":"instructions","trial_index":0,"time_elapsed":97338,"internal_node_id":"0.0-0.0","experiment":"validation","task_version":"1.1","jspsych_version":"6.3.1"},{"rt":27031,"responses":{"age":"40","gender-categorical":"Male","gender-free-response":"","ethnicity":"Not Hispanic or Latino","race":["American Indian/Alaska Native"],"education":"Bachelor degree"},"survey":"demographics","trial_type":"survey-demo","trial_index":1,"time_elapsed":124376,"internal_node_id":"0.0-1.0","experiment":"validation","task_version":"1.1","jspsych_version":"6.3.1"},{"responses":{"Q08":"0","Q03":"0","Q11":"4","Q07":"4","Q09":"1","Q05":"0","Q01":"3","Q04":"1","Q02":"0","Q06":"1","Q10":"1"},"rt":57500.69999998808,"item_order":[7,2,10,6,8,4,0,3,1,5,9],"radio_events":[13721.5,18699.59999999404,25543.39999999106,30441.19999998808,34847.19999998808,37429.19999998808,39798.29999999702,45261.29999999702,46665.19999998808,49195.29999999702,52893.29999999702,56635.39999999106],"key_events":[],"mouse_events":[11884.79999999702,13114.59999999404,13721.5,17679.79999999702,18171.39999999106,18699.59999999404,25143.5,25543.39999999106,28612.39999999106,30441.19999998808,34399.19999998808,34847.19999998808,37429.19999998808,39798.29999999702,44576.09999999404,45261.29999999702,46193.29999999702,46665.19999998808,48710.29999999702,49195.29999999702,52508.5,52893.29999999702,56635.39999999106,57495.89999999106],"straightlining":0.36363636363636365,"zigzagging":0.4,"honeypot":0,"survey":"neuroticism","trial_type":"survey-template","trial_index":2,"time_elapsed":181895,"internal_node_id":"0.0-2.0","experiment":"validation","task_version":"1.1","jspsych_version":"6.3.1","infrequency":0},{"responses":{"Q07":"2","Q09":"1","Q02":"3","Q11":"0","Q04":"3","Q01":"4","Q10":"0","Q03":"1","Q06":"2","Q05":"0","Q08":"0"},"rt":52293.59999999404,"item_order":[6,8,1,10,3,0,9,2,5,4,7],"radio_events":[4845.0999999940395,8275.29999999702,13750.29999999702,18020.19999998808,25654.09999999404,29459.19999998808,37143.59999999404,40164.59999999404,44718.69999998808,49769.29999999702,51738.89999999106],"key_events":[],"mouse_events":[4373.29999999702,4845.0999999940395,7795,8275.29999999702,12486.39999999106,13750.29999999702,17408.19999998808,18020.19999998808,25654.09999999404,29459.19999998808,37143.59999999404,40164.59999999404,41417.59999999404,44718.69999998808,49301.59999999404,49769.29999999702,51738.89999999106,52286.39999999106],"straightlining":0.36363636363636365,"zigzagging":0.3,"honeypot":0,"survey":"openness","trial_type":"survey-template","trial_index":3,"time_elapsed":234196,"internal_node_id":"0.0-3.0","experiment":"validation","task_version":"1.1","jspsych_version":"6.3.1","infrequency":0},{"responses":{"Q02":"4","Q05":"4","Q03":"3","Q07":"2","Q06":"2","Q04":"1","Q01":"2"},"rt":47872.80000001192,"item_order":[1,4,2,6,5,3,0],"radio_events":[10312.60000000894,18196.40000000596,22330.10000000894,26325,27137.40000000596,30070.40000000596,37086.10000000894,41660.20000000298,46991.10000000894],"key_events":[],"mouse_events":[9829,10312.60000000894,17832.5,18196.40000000596,21150.30000001192,21710.20000000298,22330.10000000894,25748.60000000894,26325,26730.70000000298,27137.40000000596,30070.40000000596,36478.30000001192,37086.10000000894,41660.20000000298,46991.10000000894,47867.80000001192],"straightlining":0.42857142857142855,"zigzagging":0.5,"honeypot":0,"survey":"nfc6","trial_type":"survey-template","trial_index":4,"time_elapsed":282083,"internal_node_id":"0.0-4.0","experiment":"validation","task_version":"1.1","jspsych_version":"6.3.1","infrequency":0},{"value":[0,1.155844155844156,1.2],"trial_type":"call-function","trial_index":5,"time_elapsed":282089,"internal_node_id":"0.0-5.0","experiment":"validation","task_version":"1.1","jspsych_version":"6.3.1","interactions":"[{\"event\":\"blur\",\"trial\":0,\"time\":5407},{\"event\":\"focus\",\"trial\":0,\"time\":6771}]"}]