[{"view_history":[{"page_index":0,"viewing_time":2838.4000000003725}],"rt":2838.699999999255,"trial_type":"instructions","trial_index":0,"time_elapsed":2852,"internal_node_id":"0.0-0.0","experiment":"validation","task_version":"1.1","jspsych_version":"6.3.1"},{"rt":10920.900000000373,"responses":{"age":"22","gender-categorical":"Female","gender-free-response":"","ethnicity":"Not Hispanic or Latino","race":["White"],"education":"High school"},"survey":"demographics","trial_type":"survey-demo","trial_index":1,"time_elapsed":13774,"internal_node_id":"0.0-1.0","experiment":"validation","task_version":"1.1","jspsych_version":"6.3.1"},{"responses":{"Q08":"0","Q03":"2","Q02":"3","Q07":"4","Q05":"0","Q01":"4","Q06":"4","Q04":"1","Q09":"4","Q11":"0","Q10":"2"},"rt":52271.5,"item_order":[7,2,1,6,4,0,5,3,8,10,9],"radio_events":[22874.5,23456.299999998882,26066.199999999255,29693.299999998882,31384.199999999255,33711.09999999963,36101.29999999888,40483.199999999255,42360,45681,48382.29999999888,51780],"key_events":[],"mouse_events":[22874.5,23456.299999998882,26066.199999999255,29693.299999998882,31384.199999999255,33711.09999999963,36101.29999999888,40483.199999999255,42360,45681,48382.29999999888,50677.199999999255,51780,52270.40000000037],"straightlining":0.36363636363636365,"zigzagging":0.3,"honeypot":0,"survey":"openness","trial_type":"survey-template","trial_index":2,"time_elapsed":66052,"internal_node_id":"0.0-2.0","experiment":"validation","task_version":"1.1","jspsych_version":"6.3.1","infrequency":0},{"responses":{"Q06":"4","Q10":"3","Q03":"3","Q04":"4","Q01":"3","Q02":"3","Q07":"3","Q11":"4","Q08":"1","Q09":"2","Q05":"2"},"rt":29074.5,"item_order":[5,9,2,3,0,1,6,10,7,8,4],"radio_events":[3472.4000000003725,6253.60000000149,8821.60000000149,11454.5,14342.400000000373,15451.300000000745,17858.200000001118,22375.400000000373,23133.400000000373,26812.60000000149,27795.400000000373,28564.400000000373],"key_events":[],"mouse_events":[3472.4000000003725,6253.60000000149,8821.60000000149,11454.5,14342.400000000373,15451.300000000745,17858.200000001118,20943.60000000149,22375.400000000373,23133.400000000373,26812.60000000149,27795.400000000373,28564.400000000373,29073.5],"straightlining":0.36363636363636365,"zigzagging":0.5,"honeypot":0,"survey":"neuroticism","trial_type":"survey-template","trial_index":3,"time_elapsed":95131,"internal_node_id":"0.0-3.0","experiment":"validation","task_version":"1.1","jspsych_version":"6.3.1","infrequency":0},{"responses":{"Q06":"3","Q03":"4","Q05":"4","Q04":"1","Q07":"2","Q02":"4","Q01":"3"},"rt":45802.800000000745,"item_order":[5,2,4,3,6,1,0],"radio_events":[7123,10303.900000000373,17958.10000000149,28828.900000000373,36962,38930.10000000149,44794.90000000037],"key_events":[],"mouse_events":[7123,10303.900000000373,17958.10000000149,28828.900000000373,36962,38930.10000000149,44794.90000000037,45802],"straightlining":0.42857142857142855,"zigzagging":0.6666666666666666,"honeypot":0,"survey":"nfc6","trial_type":"survey-template","trial_index":4,"time_elapsed":140938,"internal_node_id":"0.0-4.0","experiment":"validation","task_version":"1.1","jspsych_version":"6.3.1","infrequency":0},{"value":[0,1.155844155844156,1.4666666666666668],"trial_type":"call-function","trial_index":5,"time_elapsed":140942,"internal_node_id":"0.0-5.0","experiment":"validation","task_version":"1.1","jspsych_version":"6.3.1","interactions":"[]"}]