[{"view_history":[{"page_index":0,"viewing_time":1957}],"rt":1957.3999999761581,"trial_type":"instructions","trial_index":0,"time_elapsed":1970,"internal_node_id":"0.0-0.0","experiment":"validation","task_version":"1.1","jspsych_version":"6.3.1"},{"rt":12559.600000023842,"responses":{"age":"23","gender-categorical":"Female","gender-free-response":"","ethnicity":"Not Hispanic or Latino","race":["White"],"education":"Bachelor degree"},"survey":"demographics","trial_type":"survey-demo","trial_index":1,"time_elapsed":14535,"internal_node_id":"0.0-1.0","experiment":"validation","task_version":"1.1","jspsych_version":"6.3.1"},{"responses":{"Q07":"2","Q11":"0","Q02":"3","Q08":"2","Q03":"0","Q06":"2","Q05":"0","Q09":"3","Q10":"4","Q01":"2","Q04":"2"},"rt":34802.10000002384,"item_order":[6,10,1,7,2,5,4,8,9,0,3],"radio_events":[2965.5,6758.899999976158,9502.200000047684,13551.700000047684,15059.100000023842,17060.399999976158,18767.899999976158,21017.300000071526,22019.899999976158,24847.100000023842,27838.800000071526,30079.800000071526,31033.5,33964.39999997616],"key_events":[],"mouse_events":[2965.5,6758.899999976158,9502.200000047684,13551.700000047684,15059.100000023842,17060.399999976158,18767.899999976158,21017.300000071526,22019.899999976158,24847.100000023842,27838.800000071526,30079.800000071526,31033.5,33964.39999997616,34798.800000071526],"straightlining":0.45454545454545453,"zigzagging":0.2,"honeypot":0,"survey":"openness","trial_type":"survey-template","trial_index":2,"time_elapsed":49350,"internal_node_id":"0.0-2.0","experiment":"validation","task_version":"1.1","jspsych_version":"6.3.1","infrequency":0},{"responses":{"Q06":"3","Q07":"2","Q01":"1","Q05":"2","Q03":"2","Q02":"1","Q04":"1"},"rt":45250.39999997616,"item_order":[5,6,0,4,2,1,3],"radio_events":[14645.200000047684,18777.800000071526,26556.300000071526,28752.899999976158,33092.800000071526,37190,44154.10000002384],"key_events":[],"mouse_events":[9731.300000071526,14645.200000047684,18777.800000071526,26556.300000071526,28752.899999976158,33092.800000071526,37190,37975.60000002384,44154.10000002384,45248.39999997616],"straightlining":0.42857142857142855,"zigzagging":0.6666666666666666,"honeypot":0,"survey":"nfc6","trial_type":"survey-template","trial_index":3,"time_elapsed":94610,"internal_node_id":"0.0-3.0","experiment":"validation","task_version":"1.1","jspsych_version":"6.3.1","infrequency":0},{"responses":{"Q03":"1","Q01":"0","Q10":"1","Q08":"1","Q09":"4","Q05":"3","Q07":"1","Q02":"0","Q04":"1","Q06":"2","Q11":"4"},"rt":41339,"item_order":[2,0,9,7,8,4,6,1,3,5,10],"radio_events":[4738.199999928474,8147.099999904633,11611.699999928474,15793.599999904633,17405.699999928474,20714.299999952316,21868.299999952316,26212.799999952316,29382.899999976158,30506,31977.599999904633,36280.39999997616],"key_events":[],"mouse_events":[4738.199999928474,6446.599999904633,8147.099999904633,11611.699999928474,14968.099999904633,15793.599999904633,17405.699999928474,20714.299999952316,21868.299999952316,26212.799999952316,28269.099999904633,29382.899999976158,30506,31977.599999904633,32707.299999952316,36280.39999997616,41336.59999990463],"straightlining":0.36363636363636365,"zigzagging":0.3,"honeypot":0,"survey":"neuroticism","trial_type":"survey-template","trial_index":4,"time_elapsed":135962,"internal_node_id":"0.0-4.0","experiment":"validation","task_version":"1.1","jspsych_version":"6.3.1","infrequency":0},{"value":[0,1.2467532467532467,1.1666666666666667],"trial_type":"call-function","trial_index":5,"time_elapsed":135969,"internal_node_id":"0.0-5.0","experiment":"validation","task_version":"1.1","jspsych_version":"6.3.1","interactions":"[]"}]