[{"view_history":[{"page_index":0,"viewing_time":2687.7000000476837}],"rt":2688.100000143051,"trial_type":"instructions","trial_index":0,"time_elapsed":2704,"internal_node_id":"0.0-0.0","experiment":"validation","task_version":"1.1","jspsych_version":"6.3.1"},{"rt":10869.5,"responses":{"age":"47","gender-categorical":"Female","gender-free-response":"","ethnicity":"Not Hispanic or Latino","race":["White"],"education":"Bachelor degree"},"survey":"demographics","trial_type":"survey-demo","trial_index":1,"time_elapsed":13576,"internal_node_id":"0.0-1.0","experiment":"validation","task_version":"1.1","jspsych_version":"6.3.1"},{"responses":{"Q01":"1","Q04":"1","Q06":"1","Q07":"2","Q05":"3","Q02":"1","Q03":"1"},"rt":21771.200000047684,"item_order":[0,3,5,6,4,1,2],"radio_events":[3201.2000000476837,5691.900000095367,9168.299999952316,13071.799999952316,14191.700000047684,19157.900000095367,20408.5],"key_events":[],"mouse_events":[3201.2000000476837,5691.900000095367,7902.5,9168.299999952316,10451.5,13071.799999952316,14191.700000047684,18340.099999904633,19157.900000095367,20408.5,21769.799999952316],"straightlining":0.42857142857142855,"zigzagging":0.3333333333333333,"honeypot":0,"survey":"nfc6","trial_type":"survey-template","trial_index":2,"time_elapsed":35351,"internal_node_id":"0.0-2.0","experiment":"validation","task_version":"1.1","jspsych_version":"6.3.1","infrequency":0},{"responses":{"Q09":"3","Q04":"1","Q02":"3","Q11":"0","Q03":"0","Q08":"1","Q06":"1","Q07":"3","Q01":"4","Q05":"0","Q10":"0"},"rt":38921.39999985695,"item_order":[8,3,1,10,2,7,5,6,0,4,9],"radio_events":[4666.599999904633,18034.89999985695,18772.5,21079.39999985695,22273.099999904633,24675.700000047684,28665.599999904633,31767.599999904633,33407.799999952316,34401.59999990463,38279.09999990463],"key_events":[],"mouse_events":[4666.599999904633,15493.899999856949,16135.799999952316,18034.89999985695,18772.5,21079.39999985695,22273.099999904633,24675.700000047684,28665.599999904633,30075.099999904633,30918,31767.599999904633,33407.799999952316,34401.59999990463,35635.700000047684,36435.700000047684,37430.09999990463,38279.09999990463,38919.59999990463],"straightlining":0.36363636363636365,"zigzagging":0,"honeypot":0,"survey":"openness","trial_type":"survey-template","trial_index":3,"time_elapsed":74277,"internal_node_id":"0.0-3.0","experiment":"validation","task_version":"1.1","jspsych_version":"6.3.1","infrequency":0},{"responses":{"Q04":"0","Q01":"0","Q03":"0","Q11":"4","Q09":"1","Q02":"0","Q07":"1","Q05":"1","Q08":"1","Q10":"1","Q06":"1"},"rt":21399.700000047684,"item_order":[3,0,2,10,8,1,6,4,7,9,5],"radio_events":[4592.400000095367,5394.5,6836,8965.400000095367,11048.799999952316,12523.099999904633,14917.700000047684,17212,18113.5,19427.200000047684,20213.799999952316],"key_events":[],"mouse_events":[3469.7000000476837,4592.400000095367,5394.5,6836,8965.400000095367,11048.799999952316,12523.099999904633,14917.700000047684,16071.799999952316,17212,18113.5,19427.200000047684,20213.799999952316,21398],"straightlining":0.45454545454545453,"zigzagging":0.2,"honeypot":0,"survey":"neuroticism","trial_type":"survey-template","trial_index":4,"time_elapsed":95680,"internal_node_id":"0.0-4.0","experiment":"validation","task_version":"1.1","jspsych_version":"6.3.1","infrequency":0},{"value":[0,1.2467532467532467,0.5333333333333333],"trial_type":"call-function","trial_index":5,"time_elapsed":95682,"internal_node_id":"0.0-5.0","experiment":"validation","task_version":"1.1","jspsych_version":"6.3.1","interactions":"[]"}]