[{"view_history":[{"page_index":0,"viewing_time":1813.2999999523163}],"rt":1813.5,"trial_type":"instructions","trial_index":0,"time_elapsed":1825,"internal_node_id":"0.0-0.0","experiment":"validation","task_version":"1.1","jspsych_version":"6.3.1"},{"rt":11057.900000095367,"responses":{"age":"23","gender-categorical":"Male","gender-free-response":"","ethnicity":"Not Hispanic or Latino","race":["White"],"education":"High school"},"survey":"demographics","trial_type":"survey-demo","trial_index":1,"time_elapsed":12885,"internal_node_id":"0.0-1.0","experiment":"validation","task_version":"1.1","jspsych_version":"6.3.1"},{"responses":{"Q09":"1","Q03":"3","Q05":"4","Q11":"4","Q04":"1","Q06":"1","Q10":"1","Q07":"4","Q01":"3","Q02":"1","Q08":"1"},"rt":38637.299999952316,"item_order":[8,2,4,10,3,5,9,6,0,1,7],"radio_events":[4167.799999952316,6373.099999904633,9211.099999904633,11242.099999904633,17492.700000047684,21178.900000095367,25053.5,28003.700000047684,29024,32848.799999952316,37506.799999952316],"key_events":[],"mouse_events":[4167.799999952316,6373.099999904633,9211.099999904633,11242.099999904633,17492.700000047684,21178.900000095367,25053.5,27348.900000095367,28003.700000047684,29024,32848.799999952316,37506.799999952316,38636.299999952316],"straightlining":0.5454545454545454,"zigzagging":0.1,"honeypot":0,"survey":"neuroticism","trial_type":"survey-template","trial_index":2,"time_elapsed":51527,"internal_node_id":"0.0-2.0","experiment":"validation","task_version":"1.1","jspsych_version":"6.3.1","infrequency":0},{"responses":{"Q02":"3","Q04":"3","Q07":"2","Q05":"3","Q06":"3","Q01":"3","Q03":"4"},"rt":73371.09999990463,"item_order":[1,3,6,4,5,0,2],"radio_events":[16362.700000047684,16732.700000047684,21036.099999904633,33366.799999952316,37045.299999952316,47850.799999952316,59984.799999952316,64624.39999985695,71825.59999990463],"key_events":[],"mouse_events":[12767.299999952316,13075.099999904633,15693.299999952316,16362.700000047684,16732.700000047684,21036.099999904633,25674,26747.200000047684,33366.799999952316,37045.299999952316,47850.799999952316,59984.799999952316,64624.39999985695,71825.59999990463,73370.5],"straightlining":0.5714285714285714,"zigzagging":0.3333333333333333,"honeypot":0,"survey":"nfc6","trial_type":"survey-template","trial_index":3,"time_elapsed":124903,"internal_node_id":"0.0-3.0","experiment":"validation","task_version":"1.1","jspsych_version":"6.3.1","infrequency":0},{"responses":{"Q05":"0","Q11":"0","Q02":"4","Q03":"3","Q04":"1","Q06":"4","Q10":"4","Q09":"1","Q01":"4","Q07":"4","Q08":"4"},"rt":39950.59999990463,"item_order":[4,10,1,2,3,5,9,8,0,6,7],"radio_events":[9048.400000095367,11870.599999904633,15696.299999952316,17094.599999904633,20841.599999904633,23570.700000047684,25903.599999904633,30064.700000047684,33573.59999990463,37266.40000009537,38762.09999990463],"key_events":[],"mouse_events":[9048.400000095367,11870.599999904633,15696.299999952316,17094.599999904633,20841.599999904633,23570.700000047684,25903.599999904633,30064.700000047684,33573.59999990463,36511.799999952316,37266.40000009537,38762.09999990463,39949.700000047684],"straightlining":0.45454545454545453,"zigzagging":0.5,"honeypot":0,"survey":"openness","trial_type":"survey-template","trial_index":4,"time_elapsed":164857,"internal_node_id":"0.0-4.0","experiment":"validation","task_version":"1.1","jspsych_version":"6.3.1","infrequency":0},{"value":[0,1.5714285714285714,0.9333333333333333],"trial_type":"call-function","trial_index":5,"time_elapsed":164860,"internal_node_id":"0.0-5.0","experiment":"validation","task_version":"1.1","jspsych_version":"6.3.1","interactions":"[]"}]