[{"view_history":[{"page_index":0,"viewing_time":4700.5}],"rt":4703.5,"trial_type":"instructions","trial_index":0,"time_elapsed":4728,"internal_node_id":"0.0-0.0","experiment":"validation","task_version":"1.1","jspsych_version":"6.3.1"},{"rt":19140.799999998882,"responses":{"age":"24","gender-categorical":"Female","gender-free-response":"","ethnicity":"Hispanic or Latino","race":["Rather not say"],"education":"Bachelor degree"},"survey":"demographics","trial_type":"survey-demo","trial_index":1,"time_elapsed":23880,"internal_node_id":"0.0-1.0","experiment":"validation","task_version":"1.1","jspsych_version":"6.3.1"},{"responses":{"Q06":"3","Q03":"3","Q04":"1","Q07":"2","Q01":"3","Q02":"3","Q05":"3"},"rt":45573.09999999963,"item_order":[5,2,3,6,0,1,4],"radio_events":[13535.599999999627,21706.400000000373,28443.800000000745,31914.199999999255,35667.90000000037,39500.59999999963,44078.09999999963],"key_events":[],"mouse_events":[11978,13535.599999999627,20332.099999999627,21706.400000000373,28443.800000000745,31914.199999999255,35667.90000000037,38233,39500.59999999963,44078.09999999963,45567.40000000037],"straightlining":0.7142857142857143,"zigzagging":0.3333333333333333,"honeypot":0,"survey":"nfc6","trial_type":"survey-template","trial_index":2,"time_elapsed":69469,"internal_node_id":"0.0-2.0","experiment":"validation","task_version":"1.1","jspsych_version":"6.3.1","infrequency":0},{"responses":{"Q09":"4","Q11":"0","Q06":"3","Q08":"4","Q04":"1","Q03":"4","Q02":"3","Q10":"4","Q05":"0","Q01":"4","Q07":"4"},"rt":49419.5,"item_order":[8,10,5,7,3,2,1,9,4,0,6],"radio_events":[8584.89999999851,15261.599999999627,20146.599999999627,22727.39999999851,32021.299999998882,34250.79999999888,36104.5,39497.09999999963,44301.29999999888,46077.699999999255,47696.29999999888],"key_events":[],"mouse_events":[7519.799999998882,8584.89999999851,15261.599999999627,20146.599999999627,22727.39999999851,30469.199999999255,32021.299999998882,33308.59999999963,34250.79999999888,36104.5,39497.09999999963,44301.29999999888,46077.699999999255,47696.29999999888,49413.09999999963],"straightlining":0.45454545454545453,"zigzagging":0.6,"honeypot":0,"survey":"openness","trial_type":"survey-template","trial_index":3,"time_elapsed":118905,"internal_node_id":"0.0-3.0","experiment":"validation","task_version":"1.1","jspsych_version":"6.3.1","infrequency":0},{"responses":{"Q03":"1","Q04":"1","Q11":"4","Q07":"2","Q01":"3","Q02":"0","Q09":"3","Q06":"3","Q05":"2","Q08":"1","Q10":"1"},"rt":48144.5,"item_order":[2,3,10,6,0,1,8,5,4,7,9],"radio_events":[13084.900000000373,14537.5,17876.599999999627,21990.599999999627,25930.200000001118,27961.300000000745,33474.300000000745,38638.90000000037,40347.20000000112,44250.800000000745,45863.09999999963,47033.09999999963],"key_events":[],"mouse_events":[13084.900000000373,14537.5,17876.599999999627,20621,21990.599999999627,24027.200000001118,25930.200000001118,27961.300000000745,32580,33474.300000000745,38638.90000000037,40347.20000000112,44250.800000000745,45863.09999999963,47033.09999999963,48138.800000000745],"straightlining":0.36363636363636365,"zigzagging":0.4,"honeypot":0,"survey":"neuroticism","trial_type":"survey-template","trial_index":4,"time_elapsed":167062,"internal_node_id":"0.0-4.0","experiment":"validation","task_version":"1.1","jspsych_version":"6.3.1","infrequency":0},{"value":[0,1.5324675324675323,1.3333333333333335],"trial_type":"call-function","trial_index":5,"time_elapsed":167083,"internal_node_id":"0.0-5.0","experiment":"validation","task_version":"1.1","jspsych_version":"6.3.1","interactions":"[]"}]