[{"view_history":[{"page_index":0,"viewing_time":17295.899999976158}],"rt":17296.700000047684,"trial_type":"instructions","trial_index":0,"time_elapsed":17392,"internal_node_id":"0.0-0.0","experiment":"validation","task_version":"1.1","jspsych_version":"6.3.1"},{"rt":19601.100000023842,"responses":{"age":"33","gender-categorical":"Male","gender-free-response":"","ethnicity":"Not Hispanic or Latino","race":["Black or African American"],"education":"Master degree or higher"},"survey":"demographics","trial_type":"survey-demo","trial_index":1,"time_elapsed":37020,"internal_node_id":"0.0-1.0","experiment":"validation","task_version":"1.1","jspsych_version":"6.3.1"},{"responses":{"Q07":"1","Q02":"3","Q03":"0","Q08":"3","Q01":"3","Q05":"1","Q10":"1","Q04":"1","Q11":"0","Q09":"3","Q06":"3"},"rt":152942,"item_order":[6,1,2,7,0,4,9,3,10,8,5],"radio_events":[13486,20121.899999976158,29397.700000047684,32257.600000023842,37809.60000002384,40897.39999997616,47929.700000047684,75953.10000002384,82841.20000004768,89412.89999997616,95164.89999997616],"key_events":[],"mouse_events":[12698,13486,20121.899999976158,26125.700000047684,29397.700000047684,32257.600000023842,37809.60000002384,40897.39999997616,47929.700000047684,56537.700000047684,72249.70000004768,75953.10000002384,81761.20000004768,82841.20000004768,89412.89999997616,93184.89999997616,95164.89999997616,152940],"straightlining":0.5454545454545454,"zigzagging":0.2,"honeypot":0,"survey":"openness","trial_type":"survey-template","trial_index":2,"time_elapsed":189968,"internal_node_id":"0.0-2.0","experiment":"validation","task_version":"1.1","jspsych_version":"6.3.1","infrequency":0},{"responses":{"Q06":"1","Q03":"1","Q04":"1","Q02":"1","Q07":"2","Q01":"1","Q05":"3"},"rt":90910,"item_order":[5,2,3,1,6,0,4],"radio_events":[26625.399999976158,30953.200000047684,38873.200000047684,54064.700000047684,59333,66652.80000007153,89884.5],"key_events":[],"mouse_events":[25329.300000071526,26625.399999976158,30953.200000047684,38025.300000071526,38873.200000047684,53561.39999997616,54064.700000047684,58053,59333,65156.89999997616,66652.80000007153,74244.80000007153,81732.70000004768,89884.5,90908.60000002384],"straightlining":0.42857142857142855,"zigzagging":0.3333333333333333,"honeypot":0,"survey":"nfc6","trial_type":"survey-template","trial_index":3,"time_elapsed":280882,"internal_node_id":"0.0-3.0","experiment":"validation","task_version":"1.1","jspsych_version":"6.3.1","infrequency":0},{"responses":{"Q06":"1","Q10":"1","Q04":"0","Q11":"4","Q01":"2","Q03":"1","Q07":"2","Q09":"1","Q02":"1","Q05":"1","Q08":"1"},"rt":97446.09999990463,"item_order":[5,9,3,10,0,2,6,8,1,4,7],"radio_events":[15937.299999952316,20593.599999904633,29217.199999928474,30537.199999928474,34473.39999997616,35889.299999952316,40441,43729.09999990463,48216.89999997616,58116.59999990463,66608.79999995232,76052.69999992847,94076.29999995232,96596.29999995232],"key_events":[],"mouse_events":[11457.599999904633,12721.5,14682,15937.299999952316,20593.599999904633,27409.899999976158,29217.199999928474,30537.199999928474,34473.39999997616,35889.299999952316,40441,43224.699999928474,43729.09999990463,48216.89999997616,58116.59999990463,66608.79999995232,74264.89999997616,76052.69999992847,92692.5,93420.59999990463,94076.29999995232,96596.29999995232,97444.39999997616],"straightlining":0.36363636363636365,"zigzagging":0.4,"honeypot":0,"survey":"neuroticism","trial_type":"survey-template","trial_index":4,"time_elapsed":378333,"internal_node_id":"0.0-4.0","experiment":"validation","task_version":"1.1","jspsych_version":"6.3.1","infrequency":0},{"value":[0,1.3376623376623376,0.9333333333333333],"trial_type":"call-function","trial_index":5,"time_elapsed":378335,"internal_node_id":"0.0-5.0","experiment":"validation","task_version":"1.1","jspsych_version":"6.3.1","interactions":"[{\"event\":\"blur\",\"trial\":0,\"time\":10980},{\"event\":\"focus\",\"trial\":0,\"time\":12377},{\"event\":\"blur\",\"trial\":0,\"time\":13292},{\"event\":\"focus\",\"trial\":0,\"time\":14421},{\"event\":\"blur\",\"trial\":2,\"time\":88969},{\"event\":\"focus\",\"trial\":2,\"time\":93403},{\"event\":\"blur\",\"trial\":2,\"time\":99831},{\"event\":\"focus\",\"trial\":2,\"time\":109153},{\"event\":\"blur\",\"trial\":3,\"time\":192656},{\"event\":\"focus\",\"trial\":3,\"time\":193589}]"}]