[{"view_history":[{"page_index":0,"viewing_time":2692.100000143051}],"rt":2692.7000000476837,"trial_type":"instructions","trial_index":0,"time_elapsed":2755,"internal_node_id":"0.0-0.0","experiment":"validation","task_version":"1.1","jspsych_version":"6.3.1"},{"rt":12896.600000143051,"responses":{"age":"19","gender-categorical":"Female","gender-free-response":"","ethnicity":"Not Hispanic or Latino","race":["White"],"education":"Some college"},"survey":"demographics","trial_type":"survey-demo","trial_index":1,"time_elapsed":15658,"internal_node_id":"0.0-1.0","experiment":"validation","task_version":"1.1","jspsych_version":"6.3.1"},{"responses":{"Q08":"1","Q05":"1","Q06":"2","Q03":"2","Q09":"2","Q11":"4","Q10":"1","Q04":"2","Q02":"2","Q07":"2","Q01":"2"},"rt":23836.400000095367,"item_order":[7,4,5,2,8,10,9,3,1,6,0],"radio_events":[3774.100000143051,5838.700000047684,7425,10433.400000095367,12344.200000047684,14509.400000095367,16449.800000190735,18413.300000190735,19467.300000190735,21985.10000014305,22913.900000095367],"key_events":[],"mouse_events":[3774.100000143051,5838.700000047684,7425,10433.400000095367,12344.200000047684,14509.400000095367,16449.800000190735,18413.300000190735,19467.300000190735,21985.10000014305,22913.900000095367,23832.700000047684],"straightlining":0.6363636363636364,"zigzagging":0.3,"honeypot":0,"survey":"neuroticism","trial_type":"survey-template","trial_index":2,"time_elapsed":39506,"internal_node_id":"0.0-2.0","experiment":"validation","task_version":"1.1","jspsych_version":"6.3.1","infrequency":0},{"responses":{"Q07":"2","Q05":"1","Q02":"3","Q01":"3","Q11":"0","Q03":"3","Q10":"4","Q06":"3","Q09":"1","Q08":"2","Q04":"2"},"rt":45289.299999952316,"item_order":[6,4,1,0,10,2,9,5,8,7,3],"radio_events":[7652.700000047684,9780.399999856949,10885.899999856949,13892.200000047684,18093.200000047684,23916.39999985695,27349.599999904633,30067.599999904633,34148.700000047684,41229.39999985695,42829.299999952316,44523.299999952316],"key_events":[],"mouse_events":[7652.700000047684,9780.399999856949,10885.899999856949,13892.200000047684,18093.200000047684,23916.39999985695,27349.599999904633,30067.599999904633,34148.700000047684,40129.09999990463,41229.39999985695,42829.299999952316,44523.299999952316,45285.59999990463],"straightlining":0.45454545454545453,"zigzagging":0.3,"honeypot":0,"survey":"openness","trial_type":"survey-template","trial_index":3,"time_elapsed":84803,"internal_node_id":"0.0-3.0","experiment":"validation","task_version":"1.1","jspsych_version":"6.3.1","infrequency":0},{"responses":{"Q05":"2","Q03":"3","Q04":"3","Q07":"2","Q02":"3","Q01":"2","Q06":"3"},"rt":48218.700000047684,"item_order":[4,2,3,6,1,0,5],"radio_events":[16211.800000190735,20539.900000095367,25382.5,27404.200000047684,33732.200000047684,37236.40000009537,47324.800000190735],"key_events":[],"mouse_events":[16211.800000190735,20539.900000095367,25382.5,27404.200000047684,33732.200000047684,37236.40000009537,47324.800000190735,48216.200000047684],"straightlining":0.42857142857142855,"zigzagging":0.8333333333333334,"honeypot":0,"survey":"nfc6","trial_type":"survey-template","trial_index":4,"time_elapsed":133028,"internal_node_id":"0.0-4.0","experiment":"validation","task_version":"1.1","jspsych_version":"6.3.1","infrequency":0},{"value":[0,1.5194805194805194,1.4333333333333333],"trial_type":"call-function","trial_index":5,"time_elapsed":133033,"internal_node_id":"0.0-5.0","experiment":"validation","task_version":"1.1","jspsych_version":"6.3.1","interactions":"[]"}]