[{"success":true,"timeout":false,"failed_images":[],"failed_audio":[],"failed_video":[],"trial_type":"preload","trial_index":0,"time_elapsed":6551,"internal_node_id":"0.0-0.0","experiment":"validation","task_version":"1.1","jspsych_version":"6.3.1"},{"success":true,"trial_type":"fullscreen","trial_index":1,"time_elapsed":13128,"internal_node_id":"0.0-1.0","experiment":"validation","task_version":"1.1","jspsych_version":"6.3.1"},{"view_history":[{"page_index":0,"viewing_time":5491},{"page_index":1,"viewing_time":1551.4000000953674}],"rt":7042.700000047684,"trial_type":"instructions","trial_index":2,"time_elapsed":20173,"internal_node_id":"0.0-2.0","experiment":"validation","task_version":"1.1","jspsych_version":"6.3.1"},{"min_width":700,"min_height":600,"inner_width":1920,"inner_height":1080,"trial_type":"screen-check","trial_index":3,"time_elapsed":20174,"internal_node_id":"0.0-3.0-0.0-0.0","experiment":"validation","task_version":"1.1","jspsych_version":"6.3.1"},{"rt":null,"stimulus":"<div style=\"font-size:24px;\">Loading puzzle:<br>1 / 9</div>","response":null,"trial_type":"html-keyboard-response","trial_index":4,"time_elapsed":21377,"internal_node_id":"0.0-3.0-0.0-1.0","experiment":"validation","task_version":"1.1","jspsych_version":"6.3.1"},{"stimulus":"../static/img/rpm/a11.png","choice_order":[0,4,5,2,3,1],"correct":4,"choice":4,"accuracy":1,"rt":5535.599999904633,"screen_resolution":[1920,1080],"minimum_resolution":1,"all_loaded":true,"test_form":"a","trial_type":"rpm","trial_index":5,"time_elapsed":26919,"internal_node_id":"0.0-3.0-0.0-2.0","experiment":"validation","task_version":"1.1","jspsych_version":"6.3.1"},{"min_width":700,"min_height":600,"inner_width":1920,"inner_height":1080,"trial_type":"screen-check","trial_index":6,"time_elapsed":26920,"internal_node_id":"0.0-3.0-0.0-0.1","experiment":"validation","task_version":"1.1","jspsych_version":"6.3.1"},{"rt":null,"stimulus":"<div style=\"font-size:24px;\">Loading puzzle:<br>2 / 9</div>","response":null,"trial_type":"html-keyboard-response","trial_index":7,"time_elapsed":28133,"internal_node_id":"0.0-3.0-0.0-1.1","experiment":"validation","task_version":"1.1","jspsych_version":"6.3.1"},{"stimulus":"../static/img/rpm/a24.png","choice_order":[1,0,3,5,2,4],"correct":4,"choice":4,"accuracy":1,"rt":13641,"screen_resolution":[1920,1080],"minimum_resolution":1,"all_loaded":true,"test_form":"a","trial_type":"rpm","trial_index":8,"time_elapsed":41776,"internal_node_id":"0.0-3.0-0.0-2.1","experiment":"validation","task_version":"1.1","jspsych_version":"6.3.1"},{"min_width":700,"min_height":600,"inner_width":1920,"inner_height":1080,"trial_type":"screen-check","trial_index":9,"time_elapsed":41776,"internal_node_id":"0.0-3.0-0.0-0.2","experiment":"validation","task_version":"1.1","jspsych_version":"6.3.1"},{"rt":null,"stimulus":"<div style=\"font-size:24px;\">Loading puzzle:<br>3 / 9</div>","response":null,"trial_type":"html-keyboard-response","trial_index":10,"time_elapsed":42977,"internal_node_id":"0.0-3.0-0.0-1.2","experiment":"validation","task_version":"1.1","jspsych_version":"6.3.1"},{"stimulus":"../static/img/rpm/a28.png","choice_order":[5,3,6,1,0,2,7,4],"correct":7,"choice":7,"accuracy":1,"rt":5728.399999856949,"screen_resolution":[1920,1080],"minimum_resolution":1,"all_loaded":true,"test_form":"a","trial_type":"rpm","trial_index":11,"time_elapsed":48709,"internal_node_id":"0.0-3.0-0.0-2.2","experiment":"validation","task_version":"1.1","jspsych_version":"6.3.1"},{"min_width":700,"min_height":600,"inner_width":1920,"inner_height":1080,"trial_type":"screen-check","trial_index":12,"time_elapsed":48709,"internal_node_id":"0.0-3.0-0.0-0.3","experiment":"validation","task_version":"1.1","jspsych_version":"6.3.1"},{"rt":null,"stimulus":"<div style=\"font-size:24px;\">Loading puzzle:<br>4 / 9</div>","response":null,"trial_type":"html-keyboard-response","trial_index":13,"time_elapsed":49911,"internal_node_id":"0.0-3.0-0.0-1.3","experiment":"validation","task_version":"1.1","jspsych_version":"6.3.1"},{"stimulus":"../static/img/rpm/a36.png","choice_order":[7,1,2,4,5,0,6,3],"correct":1,"choice":2,"accuracy":0,"rt":12102.099999904633,"screen_resolution":[1920,1080],"minimum_resolution":1,"all_loaded":true,"test_form":"a","trial_type":"rpm","trial_index":14,"time_elapsed":62015,"internal_node_id":"0.0-3.0-0.0-2.3","experiment":"validation","task_version":"1.1","jspsych_version":"6.3.1"},{"min_width":700,"min_height":600,"inner_width":1920,"inner_height":1080,"trial_type":"screen-check","trial_index":15,"time_elapsed":62016,"internal_node_id":"0.0-3.0-0.0-0.4","experiment":"validation","task_version":"1.1","jspsych_version":"6.3.1"},{"rt":null,"stimulus":"<div style=\"font-size:24px;\">Loading puzzle:<br>5 / 9</div>","response":null,"trial_type":"html-keyboard-response","trial_index":16,"time_elapsed":63217,"internal_node_id":"0.0-3.0-0.0-1.4","experiment":"validation","task_version":"1.1","jspsych_version":"6.3.1"},{"stimulus":"../static/img/rpm/a43.png","choice_order":[7,5,1,6,0,2,3,4],"correct":4,"choice":7,"accuracy":0,"rt":4095.2000000476837,"screen_resolution":[1920,1080],"minimum_resolution":1,"all_loaded":true,"test_form":"a","trial_type":"rpm","trial_index":17,"time_elapsed":67314,"internal_node_id":"0.0-3.0-0.0-2.4","experiment":"validation","task_version":"1.1","jspsych_version":"6.3.1"},{"min_width":700,"min_height":600,"inner_width":1920,"inner_height":1080,"trial_type":"screen-check","trial_index":18,"time_elapsed":67314,"internal_node_id":"0.0-3.0-0.0-0.5","experiment":"validation","task_version":"1.1","jspsych_version":"6.3.1"},{"rt":null,"stimulus":"<div style=\"font-size:24px;\">Loading puzzle:<br>6 / 9</div>","response":null,"trial_type":"html-keyboard-response","trial_index":19,"time_elapsed":68516,"internal_node_id":"0.0-3.0-0.0-1.5","experiment":"validation","task_version":"1.1","jspsych_version":"6.3.1"},{"stimulus":"../static/img/rpm/a48.png","choice_order":[0,2,5,7,1,3,4,6],"correct":5,"choice":6,"accuracy":0,"rt":15393.5,"screen_resolution":[1920,1080],"minimum_resolution":1,"all_loaded":true,"test_form":"a","trial_type":"rpm","trial_index":20,"time_elapsed":83911,"internal_node_id":"0.0-3.0-0.0-2.5","experiment":"validation","task_version":"1.1","jspsych_version":"6.3.1"},{"min_width":700,"min_height":600,"inner_width":1920,"inner_height":1080,"trial_type":"screen-check","trial_index":21,"time_elapsed":83912,"internal_node_id":"0.0-3.0-0.0-0.6","experiment":"validation","task_version":"1.1","jspsych_version":"6.3.1"},{"rt":null,"stimulus":"<div style=\"font-size:24px;\">Loading puzzle:<br>7 / 9</div>","response":null,"trial_type":"html-keyboard-response","trial_index":22,"time_elapsed":85114,"internal_node_id":"0.0-3.0-0.0-1.6","experiment":"validation","task_version":"1.1","jspsych_version":"6.3.1"},{"stimulus":"../static/img/rpm/a49.png","choice_order":[6,5,2,3,7,4,1,0],"correct":6,"choice":6,"accuracy":1,"rt":10816,"screen_resolution":[1920,1080],"minimum_resolution":1,"all_loaded":true,"test_form":"a","trial_type":"rpm","trial_index":23,"time_elapsed":95933,"internal_node_id":"0.0-3.0-0.0-2.6","experiment":"validation","task_version":"1.1","jspsych_version":"6.3.1"},{"min_width":700,"min_height":600,"inner_width":1920,"inner_height":1080,"trial_type":"screen-check","trial_index":24,"time_elapsed":95934,"internal_node_id":"0.0-3.0-0.0-0.7","experiment":"validation","task_version":"1.1","jspsych_version":"6.3.1"},{"rt":null,"stimulus":"<div style=\"font-size:24px;\">Loading puzzle:<br>8 / 9</div>","response":null,"trial_type":"html-keyboard-response","trial_index":25,"time_elapsed":97136,"internal_node_id":"0.0-3.0-0.0-1.7","experiment":"validation","task_version":"1.1","jspsych_version":"6.3.1"},{"stimulus":"../static/img/rpm/a53.png","choice_order":[3,1,6,2,4,0,7,5],"correct":0,"choice":0,"accuracy":1,"rt":10195.400000095367,"screen_resolution":[1920,1080],"minimum_resolution":1,"all_loaded":true,"test_form":"a","trial_type":"rpm","trial_index":26,"time_elapsed":107335,"internal_node_id":"0.0-3.0-0.0-2.7","experiment":"validation","task_version":"1.1","jspsych_version":"6.3.1"},{"min_width":700,"min_height":600,"inner_width":1920,"inner_height":1080,"trial_type":"screen-check","trial_index":27,"time_elapsed":107336,"internal_node_id":"0.0-3.0-0.0-0.8","experiment":"validation","task_version":"1.1","jspsych_version":"6.3.1"},{"rt":null,"stimulus":"<div style=\"font-size:24px;\">Loading puzzle:<br>9 / 9</div>","response":null,"trial_type":"html-keyboard-response","trial_index":28,"time_elapsed":108538,"internal_node_id":"0.0-3.0-0.0-1.8","experiment":"validation","task_version":"1.1","jspsych_version":"6.3.1"},{"stimulus":"../static/img/rpm/a55.png","choice_order":[2,0,3,5,6,4,7,1],"correct":1,"choice":3,"accuracy":0,"rt":15353.900000095367,"screen_resolution":[1920,1080],"minimum_resolution":1,"all_loaded":true,"test_form":"a","trial_type":"rpm","trial_index":29,"time_elapsed":123895,"internal_node_id":"0.0-3.0-0.0-2.8","experiment":"validation","task_version":"1.1","jspsych_version":"6.3.1"},{"value":{"rpm_raw":5,"rpm_err":4,"rpm_adj":44.618377422921625,"rpm_rt":92861.09999990463},"trial_type":"call-function","trial_index":30,"time_elapsed":123897,"internal_node_id":"0.0-3.0-1.0","experiment":"validation","task_version":"1.1","jspsych_version":"6.3.1"},{"view_history":[{"page_index":0,"viewing_time":2211.2999999523163}],"rt":2211.4000000953674,"trial_type":"instructions","trial_index":31,"time_elapsed":126108,"internal_node_id":"0.0-4.0","experiment":"validation","task_version":"1.1","jspsych_version":"6.3.1","interactions":"[{\"event\":\"fullscreenenter\",\"trial\":1,\"time\":12133}]"}]