[{"view_history":[{"page_index":0,"viewing_time":1870.6000000014901}],"rt":1870.800000000745,"trial_type":"instructions","trial_index":0,"time_elapsed":1885,"internal_node_id":"0.0-0.0","experiment":"validation","task_version":"1.1","jspsych_version":"6.3.1"},{"rt":20496.599999999627,"responses":{"age":"42","gender-categorical":"Female","gender-free-response":"","ethnicity":"Not Hispanic or Latino","race":["White"],"education":"Some college"},"survey":"demographics","trial_type":"survey-demo","trial_index":1,"time_elapsed":22383,"internal_node_id":"0.0-1.0","experiment":"validation","task_version":"1.1","jspsych_version":"6.3.1"},{"responses":{"Q03":"2","Q08":"1","Q07":"4","Q06":"3","Q01":"4","Q04":"1","Q10":"2","Q02":"3","Q11":"0","Q05":"0","Q09":"3"},"rt":83094.5,"item_order":[2,7,6,5,0,3,9,1,10,4,8],"radio_events":[32083.39999999851,37959.29999999888,39987.5,45796.89999999851,58843.199999999255,64307.09999999963,66915.39999999851,69531.09999999963,73311.19999999925,76921,82182.79999999888],"key_events":[],"mouse_events":[32083.39999999851,37959.29999999888,39987.5,45796.89999999851,54923.09999999963,58843.199999999255,64307.09999999963,66915.39999999851,69531.09999999963,73311.19999999925,76921,78095.29999999888,82182.79999999888,83093.29999999888],"straightlining":0.2727272727272727,"zigzagging":0.6,"honeypot":0,"survey":"openness","trial_type":"survey-template","trial_index":2,"time_elapsed":105481,"internal_node_id":"0.0-2.0","experiment":"validation","task_version":"1.1","jspsych_version":"6.3.1","infrequency":0},{"responses":{"Q05":"3","Q06":"3","Q04":"1","Q01":"0","Q08":"3","Q11":"4","Q07":"1","Q03":"0","Q02":"0","Q09":"0","Q10":"1"},"rt":51724.90000000037,"item_order":[4,5,3,0,7,10,6,2,1,8,9],"radio_events":[9115.900000000373,13153.400000000373,16125.800000000745,19387.800000000745,24387.5,28483.700000001118,32335.60000000149,38231.70000000112,40859.20000000112,41875.800000000745,46491.5,48779.5,50893.60000000149],"key_events":[],"mouse_events":[9115.900000000373,13153.400000000373,16125.800000000745,19387.800000000745,24387.5,28483.700000001118,32335.60000000149,38231.70000000112,40859.20000000112,41875.800000000745,46491.5,48779.5,50893.60000000149,51723.90000000037],"straightlining":0.2727272727272727,"zigzagging":0.5,"honeypot":0,"survey":"neuroticism","trial_type":"survey-template","trial_index":3,"time_elapsed":157208,"internal_node_id":"0.0-3.0","experiment":"validation","task_version":"1.1","jspsych_version":"6.3.1","infrequency":0},{"responses":{"Q06":"3","Q05":"3","Q02":"3","Q01":"1","Q07":"2","Q04":"1","Q03":"3"},"rt":41633.09999999963,"item_order":[5,4,1,0,6,3,2],"radio_events":[10362.5,14776.39999999851,19894.39999999851,22178.699999999255,28760.699999999255,33642.39999999851,40498.59999999963],"key_events":[],"mouse_events":[10362.5,14776.39999999851,19894.39999999851,22178.699999999255,28760.699999999255,33642.39999999851,40498.59999999963,41632.39999999851],"straightlining":0.5714285714285714,"zigzagging":0.3333333333333333,"honeypot":0,"survey":"nfc6","trial_type":"survey-template","trial_index":4,"time_elapsed":198843,"internal_node_id":"0.0-4.0","experiment":"validation","task_version":"1.1","jspsych_version":"6.3.1","infrequency":0},{"value":[0,1.1168831168831168,1.4333333333333333],"trial_type":"call-function","trial_index":5,"time_elapsed":198844,"internal_node_id":"0.0-5.0","experiment":"validation","task_version":"1.1","jspsych_version":"6.3.1","interactions":"[]"}]