[{"view_history":[{"page_index":0,"viewing_time":1999.2999999970198}],"rt":1999.699999988079,"trial_type":"instructions","trial_index":0,"time_elapsed":2015,"internal_node_id":"0.0-0.0","experiment":"validation","task_version":"1.1","jspsych_version":"6.3.1"},{"rt":10704.70000000298,"responses":{"age":"35","gender-categorical":"Male","gender-free-response":"","ethnicity":"Not Hispanic or Latino","race":["White"],"education":"Bachelor degree"},"survey":"demographics","trial_type":"survey-demo","trial_index":1,"time_elapsed":12723,"internal_node_id":"0.0-1.0","experiment":"validation","task_version":"1.1","jspsych_version":"6.3.1"},{"responses":{"Q09":"1","Q05":"0","Q02":"1","Q10":"2","Q07":"3","Q03":"1","Q04":"0","Q11":"4","Q08":"1","Q06":"1","Q01":"1"},"rt":32296.20000000298,"item_order":[8,4,1,9,6,2,3,10,7,5,0],"radio_events":[3180.2999999970198,4878.5,6156.100000008941,7910.20000000298,10610.10000000894,12492,13150.29999999702,15092.20000000298,19071.90000000596,22669.90000000596,24202.20000000298,25953.79999999702,28991.79999999702,31128.90000000596],"key_events":[3180.2999999970198,4520.20000000298,4878.5,6156.100000008941,7910.20000000298,9346.79999999702,10610.10000000894,11362.20000000298,12492,13150.29999999702,15092.20000000298,17386.29999999702,19071.90000000596,20526.10000000894,20947.5,21459.70000000298,22669.90000000596,23600.20000000298,24202.20000000298,25953.79999999702,27424.10000000894,28057.20000000298,28451.79999999702,28991.79999999702,31128.90000000596,32294.20000000298],"mouse_events":[],"straightlining":0.36363636363636365,"zigzagging":0.6,"honeypot":0,"survey":"neuroticism","trial_type":"survey-template","trial_index":2,"time_elapsed":45025,"internal_node_id":"0.0-2.0","experiment":"validation","task_version":"1.1","jspsych_version":"6.3.1","infrequency":0},{"responses":{"Q09":"4","Q01":"3","Q10":"3","Q03":"3","Q04":"0","Q07":"3","Q06":"3","Q11":"0","Q05":"1","Q08":"4","Q02":"3"},"rt":56277.79999999702,"item_order":[8,0,9,2,3,6,5,10,4,7,1],"radio_events":[5665.4000000059605,7979.0999999940395,10469.29999999702,11729.09999999404,15729.59999999404,20391.09999999404,24373.29999999702,25669.90000000596,29274.59999999404,31273.40000000596,35475.40000000596,37241.09999999404,41233.29999999702,43377.29999999702,43615.29999999702,55569.29999999702],"key_events":[2413.5,4387.29999999702,5289.29999999702,5665.4000000059605,6713.5999999940395,7979.0999999940395,10119.5,10469.29999999702,11115.59999999404,11729.09999999404,15729.59999999404,19887.5,20391.09999999404,23989,24373.29999999702,25669.90000000596,28107.40000000596,28646,28973.29999999702,29274.59999999404,31273.40000000596,35475.40000000596,37241.09999999404,39223.40000000596,41233.29999999702,42609.40000000596,43027.20000000298,43377.29999999702,43615.29999999702,44230.90000000596,44701.40000000596,55569.29999999702,56275],"mouse_events":[],"straightlining":0.36363636363636365,"zigzagging":0.2,"honeypot":0,"survey":"openness","trial_type":"survey-template","trial_index":3,"time_elapsed":101307,"internal_node_id":"0.0-3.0","experiment":"validation","task_version":"1.1","jspsych_version":"6.3.1","infrequency":0},{"responses":{"Q05":"3","Q04":"3","Q07":"2","Q03":"3","Q02":"3","Q06":"3","Q01":"3"},"rt":20471,"item_order":[4,3,6,2,1,5,0],"radio_events":[3398.300000011921,6955.4000000059605,11723.5,12585.70000000298,15791.60000000894,17971.40000000596,19887.40000000596],"key_events":[2419.6000000089407,3398.300000011921,6307.600000008941,6955.4000000059605,8621.60000000894,11723.5,12585.70000000298,13897.5,15791.60000000894,17057.80000001192,17971.40000000596,18731.80000001192,19521.60000000894,19887.40000000596,20469.80000001192],"mouse_events":[],"straightlining":0.5714285714285714,"zigzagging":0.3333333333333333,"honeypot":0,"survey":"nfc6","trial_type":"survey-template","trial_index":4,"time_elapsed":121781,"internal_node_id":"0.0-4.0","experiment":"validation","task_version":"1.1","jspsych_version":"6.3.1","infrequency":0},{"value":[0,1.2987012987012987,1.1333333333333333],"trial_type":"call-function","trial_index":5,"time_elapsed":121784,"internal_node_id":"0.0-5.0","experiment":"validation","task_version":"1.1","jspsych_version":"6.3.1","interactions":"[]"}]