[{"view_history":[{"page_index":0,"viewing_time":5449}],"rt":5450.800000011921,"trial_type":"instructions","trial_index":0,"time_elapsed":5467,"internal_node_id":"0.0-0.0","experiment":"validation","task_version":"1.1","jspsych_version":"6.3.1"},{"rt":24634.80000001192,"responses":{"age":"30","gender-categorical":"Male","gender-free-response":"","ethnicity":"Not Hispanic or Latino","race":["White"],"education":"Master degree or higher"},"survey":"demographics","trial_type":"survey-demo","trial_index":1,"time_elapsed":30104,"internal_node_id":"0.0-1.0","experiment":"validation","task_version":"1.1","jspsych_version":"6.3.1"},{"responses":{"Q05":"0","Q08":"0","Q03":"0","Q11":"4","Q07":"4","Q10":"0","Q09":"0","Q02":"0","Q06":"2","Q01":"3","Q04":"1"},"rt":43006.5,"item_order":[4,7,2,10,6,9,8,1,5,0,3],"radio_events":[3827.100000023842,4390.800000011921,6837.600000023842,10074.600000023842,13442.699999988079,14024.100000023842,16437.899999976158,19674.399999976158,27914.399999976158,30998.100000023842,33210.5,34568.89999997616,37784.39999997616,41329.39999997616],"key_events":[],"mouse_events":[3100.199999988079,3827.100000023842,4390.800000011921,6837.600000023842,10074.600000023842,13442.699999988079,14024.100000023842,16437.899999976158,19674.399999976158,27173,27914.399999976158,30109,30998.100000023842,33210.5,34568.89999997616,37784.39999997616,41329.39999997616,43005.5],"straightlining":0.36363636363636365,"zigzagging":0.7,"honeypot":0,"survey":"neuroticism","trial_type":"survey-template","trial_index":2,"time_elapsed":73114,"internal_node_id":"0.0-2.0","experiment":"validation","task_version":"1.1","jspsych_version":"6.3.1","infrequency":0},{"responses":{"Q03":"0","Q02":"3","Q11":"0","Q01":"3","Q06":"4","Q07":"4","Q10":"0","Q09":"4","Q04":"1","Q08":"4","Q05":"1"},"rt":758068.8000000119,"item_order":[2,1,10,0,5,6,9,8,3,7,4],"radio_events":[723121.3000000119,725689.1999999881,728755.8000000119,732379,737012.5999999642,738673.5,742325.3999999762,744950.5,746206.8000000119,748941.3999999762,752199,753757.0999999642,756908.1999999881],"key_events":[],"mouse_events":[722694.0999999642,723121.3000000119,725689.1999999881,728755.8000000119,731418.0999999642,732379,736008.8000000119,737012.5999999642,738673.5,742325.3999999762,744950.5,746206.8000000119,748941.3999999762,752199,753757.0999999642,756908.1999999881,758067.3000000119],"straightlining":0.5454545454545454,"zigzagging":0.2,"honeypot":0,"survey":"openness","trial_type":"survey-template","trial_index":3,"time_elapsed":831184,"internal_node_id":"0.0-3.0","experiment":"validation","task_version":"1.1","jspsych_version":"6.3.1","infrequency":0},{"responses":{"Q05":"3","Q01":"3","Q02":"3","Q03":"4","Q06":"3","Q04":"3","Q07":"2"},"rt":301844.8000000119,"item_order":[4,0,1,2,5,3,6],"radio_events":[259484.90000003576,265725.90000003576,273677.10000002384,277643.8000000119,281095,289155,295292.3000000119,300563.60000002384],"key_events":[],"mouse_events":[259484.90000003576,265725.90000003576,273677.10000002384,277643.8000000119,281095,289155,294749.90000003576,295292.3000000119,300563.60000002384,301843.8000000119],"straightlining":0.5714285714285714,"zigzagging":0.16666666666666666,"honeypot":0,"survey":"nfc6","trial_type":"survey-template","trial_index":4,"time_elapsed":1133030,"internal_node_id":"0.0-4.0","experiment":"validation","task_version":"1.1","jspsych_version":"6.3.1","infrequency":0},{"value":[0,1.4805194805194803,1.0666666666666667],"trial_type":"call-function","trial_index":5,"time_elapsed":1133032,"internal_node_id":"0.0-5.0","experiment":"validation","task_version":"1.1","jspsych_version":"6.3.1","interactions":"[{\"event\":\"blur\",\"trial\":3,\"time\":556571},{\"event\":\"focus\",\"trial\":3,\"time\":558532},{\"event\":\"blur\",\"trial\":3,\"time\":786511},{\"event\":\"focus\",\"trial\":3,\"time\":787935},{\"event\":\"blur\",\"trial\":3,\"time\":789826},{\"event\":\"focus\",\"trial\":3,\"time\":791393}]"}]