[{"view_history":[{"page_index":0,"viewing_time":1717.0999999046326}],"rt":1718.0999999046326,"trial_type":"instructions","trial_index":0,"time_elapsed":1724,"internal_node_id":"0.0-0.0","experiment":"validation","task_version":"1.1","jspsych_version":"6.3.1"},{"rt":14771.5,"responses":{"age":"21","gender-categorical":"Female","gender-free-response":"","ethnicity":"Not Hispanic or Latino","race":["Asian"],"education":"Some college"},"survey":"demographics","trial_type":"survey-demo","trial_index":1,"time_elapsed":16502,"internal_node_id":"0.0-1.0","experiment":"validation","task_version":"1.1","jspsych_version":"6.3.1"},{"responses":{"Q04":"0","Q06":"1","Q03":"1","Q02":"1","Q01":"1","Q05":"1","Q08":"1","Q11":"4","Q09":"2","Q07":"2","Q10":"2"},"rt":32819.59999990463,"item_order":[3,5,2,1,0,4,7,10,8,6,9],"radio_events":[4940.799999952316,10368,11294.099999904633,14307.399999856949,15092.299999952316,16638.799999952316,19494,21549.699999809265,22920.199999809265,25817,31565.599999904633],"key_events":[],"mouse_events":[4940.799999952316,7408,8993.099999904633,10368,11294.099999904633,13414.5,14307.399999856949,15092.299999952316,16638.799999952316,18086.39999985695,19494,20738,21549.699999809265,22920.199999809265,24938.799999952316,25817,26708,31166.099999904633,31565.599999904633,32815.09999990463],"straightlining":0.36363636363636365,"zigzagging":0.1,"honeypot":0,"survey":"neuroticism","trial_type":"survey-template","trial_index":2,"time_elapsed":49330,"internal_node_id":"0.0-2.0","experiment":"validation","task_version":"1.1","jspsych_version":"6.3.1","infrequency":0},{"responses":{"Q04":"1","Q06":"2","Q07":"2","Q01":"1","Q05":"3","Q03":"3","Q02":"1"},"rt":39657.5,"item_order":[3,5,6,0,4,2,1],"radio_events":[7730.400000095367,10133.700000047684,25010.5,26340.400000095367,29758.200000047684,32436.5,36098.700000047684,38562.5],"key_events":[],"mouse_events":[7730.400000095367,10133.700000047684,25010.5,26340.400000095367,29758.200000047684,32436.5,35029.700000047684,36098.700000047684,38562.5,39653.800000190735],"straightlining":0.42857142857142855,"zigzagging":0.3333333333333333,"honeypot":0,"survey":"nfc6","trial_type":"survey-template","trial_index":3,"time_elapsed":89003,"internal_node_id":"0.0-3.0","experiment":"validation","task_version":"1.1","jspsych_version":"6.3.1","infrequency":0},{"responses":{"Q10":"2","Q11":"0","Q02":"4","Q06":"3","Q05":"1","Q07":"3","Q01":"4","Q08":"3","Q04":"0","Q09":"3","Q03":"2"},"rt":28336.299999952316,"item_order":[9,10,1,5,4,6,0,7,3,8,2],"radio_events":[5549.5,8562.599999904633,10829,13393.599999904633,15108.200000047684,17877,19881.700000047684,21441.200000047684,23665.700000047684,25317.400000095367,27257.900000095367],"key_events":[],"mouse_events":[3352,5549.5,8562.599999904633,10829,13393.599999904633,15108.200000047684,16815.700000047684,17877,19881.700000047684,21441.200000047684,23665.700000047684,25317.400000095367,27257.900000095367,28335.400000095367],"straightlining":0.36363636363636365,"zigzagging":0.2,"honeypot":0,"survey":"openness","trial_type":"survey-template","trial_index":4,"time_elapsed":117350,"internal_node_id":"0.0-4.0","experiment":"validation","task_version":"1.1","jspsych_version":"6.3.1","infrequency":0},{"value":[0,1.155844155844156,0.6333333333333333],"trial_type":"call-function","trial_index":5,"time_elapsed":117353,"internal_node_id":"0.0-5.0","experiment":"validation","task_version":"1.1","jspsych_version":"6.3.1","interactions":"[]"}]