[{"success":true,"timeout":false,"failed_images":[],"failed_audio":[],"failed_video":[],"trial_type":"preload","trial_index":0,"time_elapsed":2490,"internal_node_id":"0.0-0.0","experiment":"validation","task_version":"1.1","jspsych_version":"6.3.1"},{"success":true,"trial_type":"fullscreen","trial_index":1,"time_elapsed":6448,"internal_node_id":"0.0-1.0","experiment":"validation","task_version":"1.1","jspsych_version":"6.3.1"},{"view_history":[{"page_index":0,"viewing_time":988.7999999970198},{"page_index":1,"viewing_time":1103.7000000029802}],"rt":2092.7999999970198,"trial_type":"instructions","trial_index":2,"time_elapsed":8542,"internal_node_id":"0.0-2.0","experiment":"validation","task_version":"1.1","jspsych_version":"6.3.1"},{"min_width":700,"min_height":600,"inner_width":1745,"inner_height":982,"trial_type":"screen-check","trial_index":3,"time_elapsed":8543,"internal_node_id":"0.0-3.0-0.0-0.0","experiment":"validation","task_version":"1.1","jspsych_version":"6.3.1"},{"rt":null,"stimulus":"<div style=\"font-size:24px;\">Loading puzzle:<br>1 / 9</div>","response":null,"trial_type":"html-keyboard-response","trial_index":4,"time_elapsed":9753,"internal_node_id":"0.0-3.0-0.0-1.0","experiment":"validation","task_version":"1.1","jspsych_version":"6.3.1"},{"stimulus":"../static/img/rpm/a11.png","choice_order":[0,3,5,1,2,4],"correct":4,"choice":0,"accuracy":0,"rt":6015.699999988079,"screen_resolution":[1745,982],"minimum_resolution":1,"all_loaded":true,"test_form":"a","trial_type":"rpm","trial_index":5,"time_elapsed":15770,"internal_node_id":"0.0-3.0-0.0-2.0","experiment":"validation","task_version":"1.1","jspsych_version":"6.3.1"},{"min_width":700,"min_height":600,"inner_width":1745,"inner_height":982,"trial_type":"screen-check","trial_index":6,"time_elapsed":15771,"internal_node_id":"0.0-3.0-0.0-0.1","experiment":"validation","task_version":"1.1","jspsych_version":"6.3.1"},{"rt":null,"stimulus":"<div style=\"font-size:24px;\">Loading puzzle:<br>2 / 9</div>","response":null,"trial_type":"html-keyboard-response","trial_index":7,"time_elapsed":16986,"internal_node_id":"0.0-3.0-0.0-1.1","experiment":"validation","task_version":"1.1","jspsych_version":"6.3.1"},{"stimulus":"../static/img/rpm/a24.png","choice_order":[4,0,3,1,2,5],"correct":4,"choice":5,"accuracy":0,"rt":1999.7999999970198,"screen_resolution":[1745,982],"minimum_resolution":1,"all_loaded":true,"test_form":"a","trial_type":"rpm","trial_index":8,"time_elapsed":18987,"internal_node_id":"0.0-3.0-0.0-2.1","experiment":"validation","task_version":"1.1","jspsych_version":"6.3.1"},{"min_width":700,"min_height":600,"inner_width":1745,"inner_height":982,"trial_type":"screen-check","trial_index":9,"time_elapsed":18988,"internal_node_id":"0.0-3.0-0.0-0.2","experiment":"validation","task_version":"1.1","jspsych_version":"6.3.1"},{"rt":null,"stimulus":"<div style=\"font-size:24px;\">Loading puzzle:<br>3 / 9</div>","response":null,"trial_type":"html-keyboard-response","trial_index":10,"time_elapsed":20200,"internal_node_id":"0.0-3.0-0.0-1.2","experiment":"validation","task_version":"1.1","jspsych_version":"6.3.1"},{"stimulus":"../static/img/rpm/a28.png","choice_order":[5,6,0,4,2,3,7,1],"correct":7,"choice":7,"accuracy":1,"rt":4757.20000000298,"screen_resolution":[1745,982],"minimum_resolution":1,"all_loaded":true,"test_form":"a","trial_type":"rpm","trial_index":11,"time_elapsed":24959,"internal_node_id":"0.0-3.0-0.0-2.2","experiment":"validation","task_version":"1.1","jspsych_version":"6.3.1"},{"min_width":700,"min_height":600,"inner_width":1745,"inner_height":982,"trial_type":"screen-check","trial_index":12,"time_elapsed":24960,"internal_node_id":"0.0-3.0-0.0-0.3","experiment":"validation","task_version":"1.1","jspsych_version":"6.3.1"},{"rt":null,"stimulus":"<div style=\"font-size:24px;\">Loading puzzle:<br>4 / 9</div>","response":null,"trial_type":"html-keyboard-response","trial_index":13,"time_elapsed":26165,"internal_node_id":"0.0-3.0-0.0-1.3","experiment":"validation","task_version":"1.1","jspsych_version":"6.3.1"},{"stimulus":"../static/img/rpm/a36.png","choice_order":[2,3,0,1,6,4,5,7],"correct":1,"choice":7,"accuracy":0,"rt":7447.79999999702,"screen_resolution":[1745,982],"minimum_resolution":1,"all_loaded":true,"test_form":"a","trial_type":"rpm","trial_index":14,"time_elapsed":33614,"internal_node_id":"0.0-3.0-0.0-2.3","experiment":"validation","task_version":"1.1","jspsych_version":"6.3.1"},{"min_width":700,"min_height":600,"inner_width":1745,"inner_height":982,"trial_type":"screen-check","trial_index":15,"time_elapsed":33615,"internal_node_id":"0.0-3.0-0.0-0.4","experiment":"validation","task_version":"1.1","jspsych_version":"6.3.1"},{"rt":null,"stimulus":"<div style=\"font-size:24px;\">Loading puzzle:<br>5 / 9</div>","response":null,"trial_type":"html-keyboard-response","trial_index":16,"time_elapsed":34816,"internal_node_id":"0.0-3.0-0.0-1.4","experiment":"validation","task_version":"1.1","jspsych_version":"6.3.1"},{"stimulus":"../static/img/rpm/a43.png","choice_order":[1,3,2,4,0,6,5,7],"correct":4,"choice":5,"accuracy":0,"rt":4097.9000000059605,"screen_resolution":[1745,982],"minimum_resolution":1,"all_loaded":true,"test_form":"a","trial_type":"rpm","trial_index":17,"time_elapsed":38915,"internal_node_id":"0.0-3.0-0.0-2.4","experiment":"validation","task_version":"1.1","jspsych_version":"6.3.1"},{"min_width":700,"min_height":600,"inner_width":1745,"inner_height":982,"trial_type":"screen-check","trial_index":18,"time_elapsed":38916,"internal_node_id":"0.0-3.0-0.0-0.5","experiment":"validation","task_version":"1.1","jspsych_version":"6.3.1"},{"rt":null,"stimulus":"<div style=\"font-size:24px;\">Loading puzzle:<br>6 / 9</div>","response":null,"trial_type":"html-keyboard-response","trial_index":19,"time_elapsed":40116,"internal_node_id":"0.0-3.0-0.0-1.5","experiment":"validation","task_version":"1.1","jspsych_version":"6.3.1"},{"stimulus":"../static/img/rpm/a48.png","choice_order":[2,1,4,6,0,3,7,5],"correct":5,"choice":0,"accuracy":0,"rt":10205.39999999106,"screen_resolution":[1745,982],"minimum_resolution":1,"all_loaded":true,"test_form":"a","trial_type":"rpm","trial_index":20,"time_elapsed":50323,"internal_node_id":"0.0-3.0-0.0-2.5","experiment":"validation","task_version":"1.1","jspsych_version":"6.3.1"},{"min_width":700,"min_height":600,"inner_width":1745,"inner_height":982,"trial_type":"screen-check","trial_index":21,"time_elapsed":50323,"internal_node_id":"0.0-3.0-0.0-0.6","experiment":"validation","task_version":"1.1","jspsych_version":"6.3.1"},{"rt":null,"stimulus":"<div style=\"font-size:24px;\">Loading puzzle:<br>7 / 9</div>","response":null,"trial_type":"html-keyboard-response","trial_index":22,"time_elapsed":51524,"internal_node_id":"0.0-3.0-0.0-1.6","experiment":"validation","task_version":"1.1","jspsych_version":"6.3.1"},{"stimulus":"../static/img/rpm/a49.png","choice_order":[2,3,0,4,6,7,1,5],"correct":6,"choice":4,"accuracy":0,"rt":7494.5,"screen_resolution":[1745,982],"minimum_resolution":1,"all_loaded":true,"test_form":"a","trial_type":"rpm","trial_index":23,"time_elapsed":59020,"internal_node_id":"0.0-3.0-0.0-2.6","experiment":"validation","task_version":"1.1","jspsych_version":"6.3.1"},{"min_width":700,"min_height":600,"inner_width":1745,"inner_height":982,"trial_type":"screen-check","trial_index":24,"time_elapsed":59020,"internal_node_id":"0.0-3.0-0.0-0.7","experiment":"validation","task_version":"1.1","jspsych_version":"6.3.1"},{"rt":null,"stimulus":"<div style=\"font-size:24px;\">Loading puzzle:<br>8 / 9</div>","response":null,"trial_type":"html-keyboard-response","trial_index":25,"time_elapsed":60223,"internal_node_id":"0.0-3.0-0.0-1.7","experiment":"validation","task_version":"1.1","jspsych_version":"6.3.1"},{"stimulus":"../static/img/rpm/a53.png","choice_order":[4,1,2,5,7,3,6,0],"correct":0,"choice":0,"accuracy":1,"rt":11176.70000000298,"screen_resolution":[1745,982],"minimum_resolution":1,"all_loaded":true,"test_form":"a","trial_type":"rpm","trial_index":26,"time_elapsed":71401,"internal_node_id":"0.0-3.0-0.0-2.7","experiment":"validation","task_version":"1.1","jspsych_version":"6.3.1"},{"min_width":700,"min_height":600,"inner_width":1745,"inner_height":982,"trial_type":"screen-check","trial_index":27,"time_elapsed":71401,"internal_node_id":"0.0-3.0-0.0-0.8","experiment":"validation","task_version":"1.1","jspsych_version":"6.3.1"},{"rt":null,"stimulus":"<div style=\"font-size:24px;\">Loading puzzle:<br>9 / 9</div>","response":null,"trial_type":"html-keyboard-response","trial_index":28,"time_elapsed":72602,"internal_node_id":"0.0-3.0-0.0-1.8","experiment":"validation","task_version":"1.1","jspsych_version":"6.3.1"},{"stimulus":"../static/img/rpm/a55.png","choice_order":[5,4,0,2,6,3,1,7],"correct":1,"choice":2,"accuracy":0,"rt":10308.5,"screen_resolution":[1745,982],"minimum_resolution":1,"all_loaded":true,"test_form":"a","trial_type":"rpm","trial_index":29,"time_elapsed":82912,"internal_node_id":"0.0-3.0-0.0-2.8","experiment":"validation","task_version":"1.1","jspsych_version":"6.3.1"},{"value":{"rpm_raw":2,"rpm_err":7,"rpm_adj":32.42657899994428,"rpm_rt":63503.4999999851},"trial_type":"call-function","trial_index":30,"time_elapsed":82913,"internal_node_id":"0.0-3.0-1.0","experiment":"validation","task_version":"1.1","jspsych_version":"6.3.1"},{"view_history":[{"page_index":0,"viewing_time":2237.1000000089407}],"rt":2237.2999999970198,"trial_type":"instructions","trial_index":31,"time_elapsed":85151,"internal_node_id":"0.0-4.0","experiment":"validation","task_version":"1.1","jspsych_version":"6.3.1","interactions":"[{\"event\":\"fullscreenenter\",\"trial\":1,\"time\":5459}]"}]