[{"view_history":[{"page_index":0,"viewing_time":22933.29999999702}],"rt":22933.59999999404,"trial_type":"instructions","trial_index":0,"time_elapsed":22946,"internal_node_id":"0.0-0.0","experiment":"validation","task_version":"1.1","jspsych_version":"6.3.1"},{"rt":7768.800000011921,"responses":{"age":"58","gender-categorical":"Male","gender-free-response":"","ethnicity":"Not Hispanic or Latino","race":["White"],"education":"Associate degree"},"survey":"demographics","trial_type":"survey-demo","trial_index":1,"time_elapsed":30717,"internal_node_id":"0.0-1.0","experiment":"validation","task_version":"1.1","jspsych_version":"6.3.1"},{"responses":{"Q08":"1","Q01":"1","Q02":"1","Q09":"3","Q03":"0","Q06":"3","Q04":"0","Q05":"1","Q11":"4","Q10":"1","Q07":"1"},"rt":145778.29999999702,"item_order":[7,0,1,8,2,5,3,4,10,9,6],"radio_events":[122492.79999999702,123041,123674.79999999702,124120.70000000298,124707.60000000894,125599.70000000298,126587.60000000894,127282.5,130954.70000000298,132833.79999999702,133983.70000000298,135424.40000000596,136777.60000000894,138877.60000000894,141107.5,142101.60000000894,143001.79999999702,143807.20000000298],"key_events":[],"mouse_events":[121811.70000000298,122492.79999999702,123041,123674.79999999702,124120.70000000298,124707.60000000894,125107.20000000298,125599.70000000298,126587.60000000894,127282.5,130954.70000000298,132833.79999999702,133983.70000000298,135424.40000000596,136777.60000000894,138877.60000000894,141107.5,142101.60000000894,143001.79999999702,143807.20000000298,145777.20000000298],"straightlining":0.45454545454545453,"zigzagging":0.5,"honeypot":0,"survey":"neuroticism","trial_type":"survey-template","trial_index":2,"time_elapsed":176499,"internal_node_id":"0.0-2.0","experiment":"validation","task_version":"1.1","jspsych_version":"6.3.1","infrequency":0},{"responses":{"Q02":"1","Q05":"1","Q01":"1","Q06":"2","Q07":"2","Q03":"1","Q04":"2"},"rt":13625.5,"item_order":[1,4,0,5,6,2,3],"radio_events":[5253.199999988079,5809.399999991059,6553.199999988079,7359.0999999940395,8150,12026.79999999702,12880.699999988079],"key_events":[],"mouse_events":[4353.0999999940395,5253.199999988079,5809.399999991059,6553.199999988079,7359.0999999940395,8150,12026.79999999702,12880.699999988079,13624.59999999404],"straightlining":0.42857142857142855,"zigzagging":0.5,"honeypot":0,"survey":"nfc6","trial_type":"survey-template","trial_index":3,"time_elapsed":190127,"internal_node_id":"0.0-3.0","experiment":"validation","task_version":"1.1","jspsych_version":"6.3.1","infrequency":0},{"responses":{"Q04":"1","Q09":"1","Q08":"3","Q10":"3","Q06":"2","Q07":"2","Q05":"2","Q01":"2","Q03":"0","Q11":"0","Q02":"1"},"rt":16843.09999999404,"item_order":[3,8,7,9,5,6,4,0,2,10,1],"radio_events":[3031,3684.2999999970198,5100.20000000298,5626.5,6461.899999991059,7816.29999999702,8654.39999999106,9358.09999999404,10086.20000000298,12425.89999999106,14273.20000000298,15433.09999999404],"key_events":[],"mouse_events":[3031,3684.2999999970198,5100.20000000298,5626.5,6461.899999991059,7816.29999999702,8654.39999999106,9358.09999999404,10086.20000000298,10493.39999999106,12425.89999999106,14273.20000000298,15433.09999999404,16842.20000000298],"straightlining":0.36363636363636365,"zigzagging":0.2,"honeypot":0,"survey":"openness","trial_type":"survey-template","trial_index":4,"time_elapsed":206973,"internal_node_id":"0.0-4.0","experiment":"validation","task_version":"1.1","jspsych_version":"6.3.1","infrequency":0},{"value":[0,1.2467532467532467,1.2],"trial_type":"call-function","trial_index":5,"time_elapsed":206974,"internal_node_id":"0.0-5.0","experiment":"validation","task_version":"1.1","jspsych_version":"6.3.1","interactions":"[{\"event\":\"blur\",\"trial\":0,\"time\":697},{\"event\":\"focus\",\"trial\":0,\"time\":21628},{\"event\":\"blur\",\"trial\":2,\"time\":31932},{\"event\":\"focus\",\"trial\":2,\"time\":148673}]"}]