[{"view_history":[{"page_index":0,"viewing_time":2336.10000000149}],"rt":2336.300000000745,"trial_type":"instructions","trial_index":0,"time_elapsed":2353,"internal_node_id":"0.0-0.0","experiment":"validation","task_version":"1.1","jspsych_version":"6.3.1"},{"rt":11144.39999999851,"responses":{"age":"25","gender-categorical":"Female","gender-free-response":"","ethnicity":"Not Hispanic or Latino","race":["Asian"],"education":"Bachelor degree"},"survey":"demographics","trial_type":"survey-demo","trial_index":1,"time_elapsed":13500,"internal_node_id":"0.0-1.0","experiment":"validation","task_version":"1.1","jspsych_version":"6.3.1"},{"responses":{"Q03":"2","Q01":"3","Q06":"3","Q07":"3","Q04":"1","Q11":"0","Q09":"1","Q10":"2","Q08":"3","Q05":"0","Q02":"1"},"rt":30786.39999999851,"item_order":[2,0,5,6,3,10,8,9,7,4,1],"radio_events":[7186.89999999851,8753.10000000149,10593.10000000149,11407,13322.89999999851,15601.300000000745,18129.199999999255,22558.699999999255,24342.89999999851,26777.199999999255,28695.5,30111.199999999255],"key_events":[],"mouse_events":[6506.800000000745,7186.89999999851,7923.300000000745,8753.10000000149,9591.39999999851,10216.89999999851,10593.10000000149,11407,13322.89999999851,15601.300000000745,17744.800000000745,18129.199999999255,22558.699999999255,24342.89999999851,26777.199999999255,28163.199999999255,28695.5,30111.199999999255,30785.39999999851],"straightlining":0.36363636363636365,"zigzagging":0.3,"honeypot":0,"survey":"openness","trial_type":"survey-template","trial_index":2,"time_elapsed":44301,"internal_node_id":"0.0-2.0","experiment":"validation","task_version":"1.1","jspsych_version":"6.3.1","infrequency":0},{"responses":{"Q10":"1","Q04":"3","Q07":"3","Q05":"3","Q06":"3","Q11":"4","Q09":"3","Q01":"1","Q02":"2","Q08":"1","Q03":"2"},"rt":26157.199999999255,"item_order":[9,3,6,4,5,10,8,0,1,7,2],"radio_events":[2881.89999999851,3837.800000000745,7444.199999999255,8932.199999999255,10904,12242,14957.89999999851,20326.099999997765,21954.300000000745,23496.5,25051.800000000745],"key_events":[],"mouse_events":[2881.89999999851,3837.800000000745,5949.800000000745,6592.099999997765,7444.199999999255,8932.199999999255,10904,12242,14957.89999999851,19911.699999999255,20326.099999997765,21954.300000000745,23496.5,25051.800000000745,26156],"straightlining":0.36363636363636365,"zigzagging":0.3,"honeypot":0,"survey":"neuroticism","trial_type":"survey-template","trial_index":3,"time_elapsed":70462,"internal_node_id":"0.0-3.0","experiment":"validation","task_version":"1.1","jspsych_version":"6.3.1","infrequency":0},{"responses":{"Q01":"3","Q06":"3","Q04":"1","Q05":"3","Q07":"2","Q03":"3","Q02":"3"},"rt":26569.099999997765,"item_order":[0,5,3,4,6,2,1],"radio_events":[5291.79999999702,7115.699999999255,11561.599999997765,18178.199999999255,20870.29999999702,22028.199999999255,26052.29999999702],"key_events":[],"mouse_events":[5291.79999999702,7115.699999999255,10239.5,11014,11561.599999997765,17198.199999999255,18178.199999999255,20094.199999999255,20870.29999999702,22028.199999999255,26052.29999999702,26568.199999999255],"straightlining":0.7142857142857143,"zigzagging":0.3333333333333333,"honeypot":0,"survey":"nfc6","trial_type":"survey-template","trial_index":4,"time_elapsed":97035,"internal_node_id":"0.0-4.0","experiment":"validation","task_version":"1.1","jspsych_version":"6.3.1","infrequency":0},{"value":[0,1.4415584415584415,0.9333333333333333],"trial_type":"call-function","trial_index":5,"time_elapsed":97042,"internal_node_id":"0.0-5.0","experiment":"validation","task_version":"1.1","jspsych_version":"6.3.1","interactions":"[]"}]