[{"view_history":[{"page_index":0,"viewing_time":2069.600000023842}],"rt":2069.899999976158,"trial_type":"instructions","trial_index":0,"time_elapsed":2089,"internal_node_id":"0.0-0.0","experiment":"validation","task_version":"1.1","jspsych_version":"6.3.1"},{"rt":9569.899999976158,"responses":{"age":"46","gender-categorical":"Female","gender-free-response":"","ethnicity":"Not Hispanic or Latino","race":["White"],"education":"Some college"},"survey":"demographics","trial_type":"survey-demo","trial_index":1,"time_elapsed":11661,"internal_node_id":"0.0-1.0","experiment":"validation","task_version":"1.1","jspsych_version":"6.3.1"},{"responses":{"Q03":"4","Q05":"4","Q07":"2","Q01":"3","Q06":"3","Q02":"2","Q04":"2"},"rt":34220.299999952316,"item_order":[2,4,6,0,5,1,3],"radio_events":[4186.5,7789.799999952316,10089.799999952316,12727,22350.899999976158,26163.899999976158,33201.799999952316],"key_events":[],"mouse_events":[4186.5,7789.799999952316,10089.799999952316,12727,22350.899999976158,26163.899999976158,33201.799999952316,34219.199999928474],"straightlining":0.42857142857142855,"zigzagging":0.5,"honeypot":0,"survey":"nfc6","trial_type":"survey-template","trial_index":2,"time_elapsed":45885,"internal_node_id":"0.0-2.0","experiment":"validation","task_version":"1.1","jspsych_version":"6.3.1","infrequency":0},{"responses":{"Q05":"2","Q08":"0","Q01":"3","Q06":"3","Q07":"3","Q02":"2","Q03":"3","Q11":"4","Q09":"3","Q10":"2","Q04":"0"},"rt":48734.699999928474,"item_order":[4,7,0,5,6,1,2,10,8,9,3],"radio_events":[10565.299999952316,19100.299999952316,20677.5,24622.5,28571.199999928474,30819.299999952316,36897.199999928474,38188.199999928474,42180.199999928474,45127.299999952316,47671.199999928474],"key_events":[],"mouse_events":[10565.299999952316,19100.299999952316,20677.5,24622.5,28571.199999928474,30819.299999952316,36897.199999928474,38188.199999928474,42180.199999928474,45127.299999952316,47671.199999928474,48733.39999997616],"straightlining":0.2727272727272727,"zigzagging":0.5,"honeypot":0,"survey":"neuroticism","trial_type":"survey-template","trial_index":3,"time_elapsed":94623,"internal_node_id":"0.0-3.0","experiment":"validation","task_version":"1.1","jspsych_version":"6.3.1","infrequency":0},{"responses":{"Q07":"4","Q06":"4","Q11":"0","Q03":"4","Q02":"4","Q05":"0","Q08":"4","Q01":"4","Q10":"4","Q04":"1","Q09":"4"},"rt":22234.900000095367,"item_order":[6,5,10,2,1,4,7,0,9,3,8],"radio_events":[2991.3000000715256,4701.100000023842,6308.200000047684,9690.100000023842,10789.300000071526,11716.400000095367,13925.200000047684,15450.200000047684,17266.200000047684,19649.200000047684,21362.200000047684],"key_events":[],"mouse_events":[2991.3000000715256,4701.100000023842,6308.200000047684,9690.100000023842,10789.300000071526,11716.400000095367,13925.200000047684,15450.200000047684,17266.200000047684,19649.200000047684,21362.200000047684,22233.5],"straightlining":0.5454545454545454,"zigzagging":0.4,"honeypot":0,"survey":"openness","trial_type":"survey-template","trial_index":4,"time_elapsed":116861,"internal_node_id":"0.0-4.0","experiment":"validation","task_version":"1.1","jspsych_version":"6.3.1","infrequency":0},{"value":[0,1.2467532467532467,1.4],"trial_type":"call-function","trial_index":5,"time_elapsed":116863,"internal_node_id":"0.0-5.0","experiment":"validation","task_version":"1.1","jspsych_version":"6.3.1","interactions":"[]"}]