[{"view_history":[{"page_index":0,"viewing_time":3587.0999999940395}],"rt":3587.5999999940395,"trial_type":"instructions","trial_index":0,"time_elapsed":3598,"internal_node_id":"0.0-0.0","experiment":"validation","task_version":"1.1","jspsych_version":"6.3.1"},{"rt":21149.59999999404,"responses":{"age":"20","gender-categorical":"Male","gender-free-response":"","ethnicity":"Not Hispanic or Latino","race":["White"],"education":"High school"},"survey":"demographics","trial_type":"survey-demo","trial_index":1,"time_elapsed":24750,"internal_node_id":"0.0-1.0","experiment":"validation","task_version":"1.1","jspsych_version":"6.3.1"},{"responses":{"Q01":"3","Q06":"3","Q02":"3","Q03":"3","Q05":"2","Q07":"2","Q04":"3"},"rt":49267.40000000596,"item_order":[0,5,1,2,4,6,3],"radio_events":[6881.600000023842,20154,26426.30000001192,31313.80000001192,41506.10000002384,42561.90000000596,48610.5],"key_events":[],"mouse_events":[6881.600000023842,18530,19649.80000001192,20154,25865.70000001788,26426.30000001192,29954.5,30729.40000000596,31313.80000001192,34626.20000001788,37105.60000002384,40337.80000001192,40729.60000002384,41506.10000002384,42561.90000000596,47985.70000001788,48610.5,49265.90000000596],"straightlining":0.42857142857142855,"zigzagging":0.3333333333333333,"honeypot":0,"survey":"nfc6","trial_type":"survey-template","trial_index":2,"time_elapsed":74023,"internal_node_id":"0.0-2.0","experiment":"validation","task_version":"1.1","jspsych_version":"6.3.1","infrequency":0},{"responses":{"Q10":"1","Q09":"4","Q07":"4","Q02":"3","Q03":"1","Q11":"0","Q06":"3","Q08":"3","Q04":"1","Q05":"1","Q01":"3"},"rt":48683.09999999404,"item_order":[9,8,6,1,2,10,5,7,3,4,0],"radio_events":[11929,14201.90000000596,16009.59999999404,17393.5,20297.09999999404,23713.59999999404,32089,36721.59999999404,42258,43425.59999999404,45921,47985.40000000596],"key_events":[],"mouse_events":[10457.699999988079,11929,13714.199999988079,14201.90000000596,16009.59999999404,17393.5,20297.09999999404,23057,23713.59999999404,32089,36721.59999999404,39689.09999999404,41353.5,42258,43425.59999999404,45921,47034.09999999404,47985.40000000596,48682.09999999404],"straightlining":0.45454545454545453,"zigzagging":0.2,"honeypot":0,"survey":"openness","trial_type":"survey-template","trial_index":3,"time_elapsed":122712,"internal_node_id":"0.0-3.0","experiment":"validation","task_version":"1.1","jspsych_version":"6.3.1","infrequency":0},{"responses":{"Q10":"1","Q06":"3","Q02":"1","Q05":"0","Q04":"1","Q08":"1","Q03":"1","Q09":"1","Q01":"1","Q07":"3","Q11":"4"},"rt":60394.5,"item_order":[9,5,1,4,3,7,2,8,0,6,10],"radio_events":[10842.200000017881,13442,14898,16850.100000023842,20674,22001.40000000596,32874.30000001192,51001.80000001192,54225.60000002384,56802.5,59593.30000001192],"key_events":[],"mouse_events":[10842.200000017881,11970.300000011921,12729.800000011921,13442,14898,16850.100000023842,20674,22001.40000000596,32874.30000001192,51001.80000001192,54225.60000002384,56802.5,59593.30000001192,60393.40000000596],"straightlining":0.5454545454545454,"zigzagging":0.2,"honeypot":0,"survey":"neuroticism","trial_type":"survey-template","trial_index":4,"time_elapsed":183105,"internal_node_id":"0.0-4.0","experiment":"validation","task_version":"1.1","jspsych_version":"6.3.1","infrequency":0},{"value":[0,1.4285714285714284,0.7333333333333334],"trial_type":"call-function","trial_index":5,"time_elapsed":183109,"internal_node_id":"0.0-5.0","experiment":"validation","task_version":"1.1","jspsych_version":"6.3.1","interactions":"[]"}]