[{"view_history":[{"page_index":0,"viewing_time":5836.89999999851}],"rt":5837.39999999851,"trial_type":"instructions","trial_index":0,"time_elapsed":5852,"internal_node_id":"0.0-0.0","experiment":"validation","task_version":"1.1","jspsych_version":"6.3.1"},{"rt":9014.29999999702,"responses":{"age":"27","gender-categorical":"Female","gender-free-response":"","ethnicity":"Not Hispanic or Latino","race":["White"],"education":"Some college"},"survey":"demographics","trial_type":"survey-demo","trial_index":1,"time_elapsed":14868,"internal_node_id":"0.0-1.0","experiment":"validation","task_version":"1.1","jspsych_version":"6.3.1"},{"responses":{"Q07":"0","Q02":"4","Q04":"0","Q08":"3","Q10":"4","Q01":"4","Q09":"4","Q11":"0","Q05":"0","Q03":"4","Q06":"3"},"rt":64687.70000000298,"item_order":[6,1,3,7,9,0,8,10,4,2,5],"radio_events":[5154.39999999851,5994.39999999851,14266.20000000298,46150.39999999851,49480.30000000447,51790.39999999851,54388.30000000447,57352.39999999851,60098.39999999851,60984,64236.20000000298],"key_events":[],"mouse_events":[5154.39999999851,5994.39999999851,14266.20000000298,46150.39999999851,49480.30000000447,51790.39999999851,54388.30000000447,57352.39999999851,60098.39999999851,60984,64236.20000000298,64686.5],"straightlining":0.5454545454545454,"zigzagging":0.4,"honeypot":0,"survey":"openness","trial_type":"survey-template","trial_index":2,"time_elapsed":79559,"internal_node_id":"0.0-2.0","experiment":"validation","task_version":"1.1","jspsych_version":"6.3.1","infrequency":0},{"responses":{"Q10":"3","Q09":"3","Q02":"3","Q05":"3","Q08":"2","Q06":"1","Q07":"3","Q01":"3","Q11":"4","Q04":"3","Q03":"2"},"rt":28569.19999999553,"item_order":[9,8,1,4,7,5,6,0,10,3,2],"radio_events":[5401.69999999553,7674,9666.10000000149,11704.19999999553,13858.10000000149,17220.29999999702,20346.19999999553,21652.19999999553,23776.19999999553,25348.10000000149,27790.19999999553],"key_events":[],"mouse_events":[5401.69999999553,7674,9666.10000000149,11704.19999999553,13858.10000000149,17220.29999999702,20346.19999999553,21652.19999999553,23776.19999999553,25348.10000000149,27790.19999999553,28233.79999999702,28568.19999999553],"straightlining":0.45454545454545453,"zigzagging":0.5,"honeypot":0,"survey":"neuroticism","trial_type":"survey-template","trial_index":3,"time_elapsed":108131,"internal_node_id":"0.0-3.0","experiment":"validation","task_version":"1.1","jspsych_version":"6.3.1","infrequency":0},{"responses":{"Q04":"4","Q06":"0","Q05":"0","Q03":"0","Q07":"2","Q02":"0","Q01":"0"},"rt":57351.80000000447,"item_order":[3,5,4,2,6,1,0],"radio_events":[30340.5,39219,41637,44290.90000000596,46499.10000000149,53850.60000000149,56766.90000000596],"key_events":[],"mouse_events":[30340.5,39219,41637,44290.90000000596,46499.10000000149,53850.60000000149,56766.90000000596,57350.90000000596],"straightlining":0.7142857142857143,"zigzagging":0.16666666666666666,"honeypot":0,"survey":"nfc6","trial_type":"survey-template","trial_index":4,"time_elapsed":165485,"internal_node_id":"0.0-4.0","experiment":"validation","task_version":"1.1","jspsych_version":"6.3.1","infrequency":0},{"value":[0,1.7142857142857144,1.0666666666666667],"trial_type":"call-function","trial_index":5,"time_elapsed":165486,"internal_node_id":"0.0-5.0","experiment":"validation","task_version":"1.1","jspsych_version":"6.3.1","interactions":"[{\"event\":\"blur\",\"trial\":4,\"time\":121066},{\"event\":\"focus\",\"trial\":4,\"time\":124524}]"}]