[{"view_history":[{"page_index":0,"viewing_time":1800.7999999523163}],"rt":1801.0999999046326,"trial_type":"instructions","trial_index":0,"time_elapsed":1818,"internal_node_id":"0.0-0.0","experiment":"validation","task_version":"1.1","jspsych_version":"6.3.1"},{"rt":22644.600000023842,"responses":{"age":"36","gender-categorical":"Male","gender-free-response":"","ethnicity":"Not Hispanic or Latino","race":["White"],"education":"Bachelor degree"},"survey":"demographics","trial_type":"survey-demo","trial_index":1,"time_elapsed":24466,"internal_node_id":"0.0-1.0","experiment":"validation","task_version":"1.1","jspsych_version":"6.3.1"},{"responses":{"Q10":"1","Q08":"0","Q04":"1","Q11":"0","Q09":"0","Q03":"0","Q02":"3","Q06":"1","Q05":"1","Q07":"1","Q01":"3"},"rt":30911.5,"item_order":[9,7,3,10,8,2,1,5,4,6,0],"radio_events":[3208.600000023842,5633,8991.899999976158,13723.700000047684,17300.100000023842,19530.300000071526,21961.100000023842,24286.5,25263.700000047684,27941.899999976158,29213.800000071526,30165.800000071526],"key_events":[],"mouse_events":[3208.600000023842,5007.300000071526,5633,8199,8991.899999976158,13723.700000047684,17300.100000023842,19530.300000071526,21058.899999976158,21961.100000023842,24286.5,25263.700000047684,27941.899999976158,29213.800000071526,30165.800000071526,30910.5],"straightlining":0.6363636363636364,"zigzagging":0.4,"honeypot":0,"survey":"openness","trial_type":"survey-template","trial_index":2,"time_elapsed":55388,"internal_node_id":"0.0-2.0","experiment":"validation","task_version":"1.1","jspsych_version":"6.3.1","infrequency":0},{"responses":{"Q06":"3","Q05":"4","Q07":"2","Q03":"3","Q04":"4","Q01":"3","Q02":"3"},"rt":32353.699999928474,"item_order":[5,4,6,2,3,0,1],"radio_events":[7807,11042,16891.600000023842,20363.299999952316,23657.899999976158,27895.899999976158,31494.699999928474],"key_events":[],"mouse_events":[7807,11042,15911.799999952316,16891.600000023842,20363.299999952316,20798.100000023842,23657.899999976158,26564.699999928474,27895.899999976158,30078.899999976158,31494.699999928474,32352.799999952316],"straightlining":0.42857142857142855,"zigzagging":0.5,"honeypot":0,"survey":"nfc6","trial_type":"survey-template","trial_index":3,"time_elapsed":87746,"internal_node_id":"0.0-3.0","experiment":"validation","task_version":"1.1","jspsych_version":"6.3.1","infrequency":0},{"responses":{"Q09":"3","Q10":"1","Q03":"2","Q04":"3","Q11":"4","Q08":"2","Q01":"3","Q05":"2","Q07":"3","Q02":"2","Q06":"2"},"rt":115503.19999992847,"item_order":[8,9,2,3,10,7,0,4,6,1,5],"radio_events":[58991.799999952316,60262.5,64018.799999952316,66351.29999995232,81498.60000002384,84652.29999995232,87324,107174.19999992847,108713,110667.89999997616,113116.19999992847,114400.79999995232],"key_events":[],"mouse_events":[56826.39999997616,58991.799999952316,60262.5,64018.799999952316,66351.29999995232,78345.60000002384,81498.60000002384,84652.29999995232,87324,107174.19999992847,108713,110667.89999997616,113116.19999992847,114400.79999995232,115501.79999995232],"straightlining":0.45454545454545453,"zigzagging":0.7,"honeypot":0,"survey":"neuroticism","trial_type":"survey-template","trial_index":4,"time_elapsed":203254,"internal_node_id":"0.0-4.0","experiment":"validation","task_version":"1.1","jspsych_version":"6.3.1","infrequency":0},{"value":[0,1.5194805194805194,1.6],"trial_type":"call-function","trial_index":5,"time_elapsed":203261,"internal_node_id":"0.0-5.0","experiment":"validation","task_version":"1.1","jspsych_version":"6.3.1","interactions":"[{\"event\":\"blur\",\"trial\":1,\"time\":19965},{\"event\":\"focus\",\"trial\":1,\"time\":20745},{\"event\":\"blur\",\"trial\":4,\"time\":91045},{\"event\":\"focus\",\"trial\":4,\"time\":144456}]"}]