[{"view_history":[{"page_index":0,"viewing_time":1751.5}],"rt":1751.5999999642372,"trial_type":"instructions","trial_index":0,"time_elapsed":1761,"internal_node_id":"0.0-0.0","experiment":"validation","task_version":"1.1","jspsych_version":"6.3.1"},{"rt":14445.300000011921,"responses":{"age":"29","gender-categorical":"Female","gender-free-response":"","ethnicity":"Not Hispanic or Latino","race":["White"],"education":"Master degree or higher"},"survey":"demographics","trial_type":"survey-demo","trial_index":1,"time_elapsed":16207,"internal_node_id":"0.0-1.0","experiment":"validation","task_version":"1.1","jspsych_version":"6.3.1"},{"responses":{"Q10":"4","Q09":"4","Q05":"0","Q06":"3","Q04":"0","Q02":"4","Q07":"4","Q01":"4","Q08":"3","Q11":"0","Q03":"4"},"rt":35845.700000047684,"item_order":[9,8,4,5,3,1,6,0,7,10,2],"radio_events":[3580.900000035763,6405.900000035763,8987.800000011921,14366.600000023842,17087,18342.700000047684,21240.700000047684,22958.30000001192,26464.80000001192,30856.80000001192,33448.10000002384],"key_events":[],"mouse_events":[3580.900000035763,6405.900000035763,8987.800000011921,14366.600000023842,16467.200000047684,17087,18342.700000047684,20435.100000023842,21240.700000047684,22958.30000001192,26464.80000001192,30856.80000001192,33448.10000002384,35844.90000003576],"straightlining":0.45454545454545453,"zigzagging":0.5,"honeypot":0,"survey":"openness","trial_type":"survey-template","trial_index":2,"time_elapsed":52055,"internal_node_id":"0.0-2.0","experiment":"validation","task_version":"1.1","jspsych_version":"6.3.1","infrequency":0},{"responses":{"Q04":"4","Q03":"4","Q02":"4","Q01":"3","Q05":"4","Q07":"2","Q06":"4"},"rt":30780.599999964237,"item_order":[3,2,1,0,4,6,5],"radio_events":[10605.599999964237,13188.899999976158,16927.799999952316,19916.19999998808,22412.5,25405.5,30246.69999998808],"key_events":[],"mouse_events":[10605.599999964237,13188.899999976158,16927.799999952316,19916.19999998808,22412.5,25405.5,29729.599999964237,30246.69999998808,30780.099999964237],"straightlining":0.42857142857142855,"zigzagging":0.5,"honeypot":0,"survey":"nfc6","trial_type":"survey-template","trial_index":3,"time_elapsed":82837,"internal_node_id":"0.0-3.0","experiment":"validation","task_version":"1.1","jspsych_version":"6.3.1","infrequency":0},{"responses":{"Q03":"3","Q01":"3","Q04":"2","Q07":"3","Q05":"3","Q06":"2","Q09":"3","Q02":"0","Q08":"1","Q10":"1","Q11":"4"},"rt":35819.10000002384,"item_order":[2,0,3,6,4,5,8,1,7,9,10],"radio_events":[5298.600000023842,8184.5,10308.300000011921,12767.800000011921,14487.600000023842,16545.5,19700.5,23719.30000001192,29151.400000035763,31285.400000035763,32965.40000003576,35101.30000001192],"key_events":[],"mouse_events":[4319.200000047684,5298.600000023842,6072.400000035763,8184.5,10308.300000011921,12767.800000011921,14487.600000023842,16545.5,19281,19700.5,23719.30000001192,27245.900000035763,29151.400000035763,31285.400000035763,32965.40000003576,34686.10000002384,35101.30000001192,35818.5],"straightlining":0.45454545454545453,"zigzagging":0.6,"honeypot":0,"survey":"neuroticism","trial_type":"survey-template","trial_index":4,"time_elapsed":118658,"internal_node_id":"0.0-4.0","experiment":"validation","task_version":"1.1","jspsych_version":"6.3.1","infrequency":0},{"value":[0,1.3376623376623376,1.6],"trial_type":"call-function","trial_index":5,"time_elapsed":118658,"internal_node_id":"0.0-5.0","experiment":"validation","task_version":"1.1","jspsych_version":"6.3.1","interactions":"[]"}]