[{"view_history":[{"page_index":0,"viewing_time":1504.2000000476837}],"rt":1504.3999999761581,"trial_type":"instructions","trial_index":0,"time_elapsed":1516,"internal_node_id":"0.0-0.0","experiment":"validation","task_version":"1.1","jspsych_version":"6.3.1"},{"rt":17739,"responses":{"age":"20","gender-categorical":"Female","gender-free-response":"","ethnicity":"Hispanic or Latino","race":["Rather not say"],"education":"Some college"},"survey":"demographics","trial_type":"survey-demo","trial_index":1,"time_elapsed":19258,"internal_node_id":"0.0-1.0","experiment":"validation","task_version":"1.1","jspsych_version":"6.3.1"},{"responses":{"Q10":"1","Q01":"3","Q05":"1","Q04":"0","Q06":"2","Q03":"1","Q11":"4","Q09":"0","Q02":"2","Q07":"4","Q08":"2"},"rt":38935.5,"item_order":[9,0,4,3,5,2,10,8,1,6,7],"radio_events":[4904.5,7861,10408.100000023842,14432.199999928474,18478.199999928474,19767.899999976158,23714.299999952316,27452.100000023842,29290.100000023842,31212.100000023842,35698.10000002384,38216.10000002384],"key_events":[],"mouse_events":[4904.5,7861,10408.100000023842,14432.199999928474,17074.199999928474,17852.100000023842,18478.199999928474,19767.899999976158,23420.299999952316,23714.299999952316,26262.399999976158,27452.100000023842,29290.100000023842,31212.100000023842,34818.299999952316,35698.10000002384,38216.10000002384,38934.39999997616],"straightlining":0.2727272727272727,"zigzagging":0.2,"honeypot":0,"survey":"neuroticism","trial_type":"survey-template","trial_index":2,"time_elapsed":58200,"internal_node_id":"0.0-2.0","experiment":"validation","task_version":"1.1","jspsych_version":"6.3.1","infrequency":0},{"responses":{"Q01":"1","Q07":"2","Q03":"1","Q04":"3","Q05":"3","Q02":"3","Q06":"3"},"rt":47602.799999952316,"item_order":[0,6,2,3,4,1,5],"radio_events":[7678.199999928474,9014.100000023842,12474,22814.199999928474,33145.89999997616,41238.10000002384,44722.299999952316,46884.10000002384],"key_events":[],"mouse_events":[7678.199999928474,9014.100000023842,12474,22814.199999928474,33145.89999997616,41238.10000002384,44722.299999952316,46884.10000002384,47602.10000002384],"straightlining":0.5714285714285714,"zigzagging":0.3333333333333333,"honeypot":0,"survey":"nfc6","trial_type":"survey-template","trial_index":3,"time_elapsed":105807,"internal_node_id":"0.0-3.0","experiment":"validation","task_version":"1.1","jspsych_version":"6.3.1","infrequency":0},{"responses":{"Q10":"4","Q07":"4","Q04":"3","Q02":"4","Q01":"4","Q06":"4","Q03":"4","Q11":"0","Q09":"4","Q05":"0","Q08":"3"},"rt":33408.699999928474,"item_order":[9,6,3,1,0,5,2,10,8,4,7],"radio_events":[5454,7384.199999928474,10520.099999904633,13300.199999928474,15456.199999928474,17856.099999904633,21154.199999928474,25068.099999904633,27672,30962,32544.099999904633],"key_events":[],"mouse_events":[5454,7384.199999928474,10520.099999904633,12768.099999904633,13300.199999928474,15456.199999928474,17856.099999904633,21154.199999928474,25068.099999904633,27672,30166.299999952316,30962,32544.099999904633,33407.799999952316],"straightlining":0.45454545454545453,"zigzagging":0.5,"honeypot":0,"survey":"openness","trial_type":"survey-template","trial_index":4,"time_elapsed":139220,"internal_node_id":"0.0-4.0","experiment":"validation","task_version":"1.1","jspsych_version":"6.3.1","infrequency":0},{"value":[0,1.2987012987012987,1.0333333333333332],"trial_type":"call-function","trial_index":5,"time_elapsed":139223,"internal_node_id":"0.0-5.0","experiment":"validation","task_version":"1.1","jspsych_version":"6.3.1","interactions":"[]"}]