[{"view_history":[{"page_index":0,"viewing_time":4740.199999988079}],"rt":4740.800000011921,"trial_type":"instructions","trial_index":0,"time_elapsed":4800,"internal_node_id":"0.0-0.0","experiment":"validation","task_version":"1.1","jspsych_version":"6.3.1"},{"rt":13608.5,"responses":{"age":"26","gender-categorical":"Male","gender-free-response":"","ethnicity":"Not Hispanic or Latino","race":["White"],"education":"Master degree or higher"},"survey":"demographics","trial_type":"survey-demo","trial_index":1,"time_elapsed":18417,"internal_node_id":"0.0-1.0","experiment":"validation","task_version":"1.1","jspsych_version":"6.3.1"},{"responses":{"Q04":"1","Q05":"1","Q08":"1","Q11":"4","Q03":"3","Q02":"1","Q07":"2","Q10":"1","Q01":"2","Q09":"1","Q06":"3"},"rt":42651.40000000596,"item_order":[3,4,7,10,2,1,6,9,0,8,5],"radio_events":[6609.5999999940395,8681.5,12137.200000017881,15377.09999999404,18153.09999999404,21209.09999999404,24433,26553.09999999404,31088.90000000596,33145.09999999404,36840.90000000596,36888.70000001788,41376.70000001788],"key_events":[],"mouse_events":[6609.5999999940395,8681.5,9145.200000017881,12137.200000017881,15377.09999999404,18153.09999999404,21209.09999999404,24433,26553.09999999404,31088.90000000596,33145.09999999404,36193.09999999404,36840.90000000596,36888.70000001788,40025,40712.80000001192,41376.70000001788,42648.80000001192],"straightlining":0.36363636363636365,"zigzagging":0.6,"honeypot":0,"survey":"neuroticism","trial_type":"survey-template","trial_index":2,"time_elapsed":61075,"internal_node_id":"0.0-2.0","experiment":"validation","task_version":"1.1","jspsych_version":"6.3.1","infrequency":0},{"responses":{"Q02":"2","Q07":"3","Q03":"1","Q05":"3","Q01":"2","Q04":"2","Q06":"2"},"rt":16545.59999999404,"item_order":[1,6,2,4,0,3,5],"radio_events":[5976,6872,8288.700000017881,9983.90000000596,12600,13608,15519.800000011921],"key_events":[],"mouse_events":[5976,6872,7288,7753.5,8288.700000017881,8800.09999999404,9983.90000000596,10728,11399.90000000596,12600,13608,15519.800000011921,16544],"straightlining":0.5714285714285714,"zigzagging":0.3333333333333333,"honeypot":0,"survey":"nfc6","trial_type":"survey-template","trial_index":3,"time_elapsed":77625,"internal_node_id":"0.0-3.0","experiment":"validation","task_version":"1.1","jspsych_version":"6.3.1","infrequency":1},{"responses":{"Q07":"3","Q05":"1","Q03":"3","Q01":"3","Q08":"1","Q09":"2","Q02":"3","Q04":"1","Q06":"2","Q10":"2","Q11":"0"},"rt":30620.40000000596,"item_order":[6,4,2,0,7,8,1,3,5,9,10],"radio_events":[2497.9000000059605,4937.9000000059605,7321.9000000059605,8554,9689.800000011921,11681.800000011921,16161.90000000596,18097.80000001192,19465.80000001192,20122.30000001192,25177.70000001788],"key_events":[],"mouse_events":[2497.9000000059605,4937.9000000059605,5761.700000017881,7321.9000000059605,7826,8554,9689.800000011921,11681.800000011921,16161.90000000596,16737.600000023842,18097.80000001192,18761.90000000596,19465.80000001192,20122.30000001192,20873.90000000596,25177.70000001788,30618],"straightlining":0.5454545454545454,"zigzagging":0.3,"honeypot":0,"survey":"openness","trial_type":"survey-template","trial_index":4,"time_elapsed":108249,"internal_node_id":"0.0-4.0","experiment":"validation","task_version":"1.1","jspsych_version":"6.3.1","infrequency":0},{"value":[1,1.4805194805194803,1.2333333333333334],"trial_type":"call-function","trial_index":5,"time_elapsed":108252,"internal_node_id":"0.0-5.0","experiment":"validation","task_version":"1.1","jspsych_version":"6.3.1","interactions":"[{\"event\":\"focus\",\"trial\":0,\"time\":3625}]"}]