[{"view_history":[{"page_index":0,"viewing_time":3232.4000000059605}],"rt":3232.5,"trial_type":"instructions","trial_index":0,"time_elapsed":3238,"internal_node_id":"0.0-0.0","experiment":"validation","task_version":"1.1","jspsych_version":"6.3.1"},{"rt":13774.29999999702,"responses":{"age":"23","gender-categorical":"Male","gender-free-response":"","ethnicity":"Not Hispanic or Latino","race":["Black or African American"],"education":"Associate degree"},"survey":"demographics","trial_type":"survey-demo","trial_index":1,"time_elapsed":17014,"internal_node_id":"0.0-1.0","experiment":"validation","task_version":"1.1","jspsych_version":"6.3.1"},{"responses":{"Q06":"4","Q11":"0","Q05":"0","Q03":"3","Q04":"2","Q08":"3","Q07":"4","Q01":"4","Q09":"2","Q02":"4","Q10":"3"},"rt":50965.20000000298,"item_order":[5,10,4,2,3,7,6,0,8,1,9],"radio_events":[7738.70000000298,11336,16997.70000000298,20999,34738.10000000894,35908,38793.90000000596,41397,43994.90000000596,46028.10000000894,49692],"key_events":[],"mouse_events":[6677.600000008941,7738.70000000298,10541.90000000596,11336,15439,16535.70000000298,16997.70000000298,20999,30001,33742.10000000894,34346.90000000596,34738.10000000894,35613,35908,38353.79999999702,38793.90000000596,41397,43994.90000000596,46028.10000000894,48741.10000000894,49692,50964],"straightlining":0.2727272727272727,"zigzagging":0.6,"honeypot":0,"survey":"openness","trial_type":"survey-template","trial_index":2,"time_elapsed":67982,"internal_node_id":"0.0-2.0","experiment":"validation","task_version":"1.1","jspsych_version":"6.3.1","infrequency":0},{"responses":{"Q04":"3","Q05":"3","Q06":"2","Q02":"2","Q01":"2","Q07":"2","Q03":"4"},"rt":70961.79999999702,"item_order":[3,4,5,1,0,6,2],"radio_events":[26447.79999999702,32442.79999999702,42415.79999999702,51127.89999999106,58504,59598,67343.89999999106],"key_events":[],"mouse_events":[26447.79999999702,32442.79999999702,42415.79999999702,51127.89999999106,51885,58504,59598,62289,67343.89999999106,70960.89999999106],"straightlining":0.5714285714285714,"zigzagging":0.16666666666666666,"honeypot":0,"survey":"nfc6","trial_type":"survey-template","trial_index":3,"time_elapsed":138946,"internal_node_id":"0.0-3.0","experiment":"validation","task_version":"1.1","jspsych_version":"6.3.1","infrequency":0},{"responses":{"Q09":"0","Q08":"0","Q10":"0","Q06":"0","Q01":"1","Q03":"2","Q07":"1","Q04":"0","Q11":"4","Q02":"0","Q05":"1"},"rt":38703.70000000298,"item_order":[8,7,9,5,0,2,6,3,10,1,4],"radio_events":[6098.20000000298,9892.09999999404,11258.09999999404,13117,17783,21538.29999999702,25324.20000000298,28213.20000000298,31290,34033.09999999404,37615.59999999404],"key_events":[],"mouse_events":[4600.0999999940395,5627.0999999940395,6098.20000000298,8313.20000000298,9427.90000000596,9892.09999999404,11258.09999999404,13117,17783,21538.29999999702,25324.20000000298,28213.20000000298,31290,34033.09999999404,35494.29999999702,37615.59999999404,38702.70000000298],"straightlining":0.45454545454545453,"zigzagging":0.5,"honeypot":0,"survey":"neuroticism","trial_type":"survey-template","trial_index":4,"time_elapsed":177652,"internal_node_id":"0.0-4.0","experiment":"validation","task_version":"1.1","jspsych_version":"6.3.1","infrequency":0},{"value":[0,1.2987012987012987,1.2666666666666666],"trial_type":"call-function","trial_index":5,"time_elapsed":177653,"internal_node_id":"0.0-5.0","experiment":"validation","task_version":"1.1","jspsych_version":"6.3.1","interactions":"[]"}]