[{"view_history":[{"page_index":0,"viewing_time":2790.2999999970198}],"rt":2790.89999999851,"trial_type":"instructions","trial_index":0,"time_elapsed":2802,"internal_node_id":"0.0-0.0","experiment":"validation","task_version":"1.1","jspsych_version":"6.3.1"},{"rt":13103,"responses":{"age":"23","gender-categorical":"Male","gender-free-response":"","ethnicity":"Not Hispanic or Latino","race":["White"],"education":"Associate degree"},"survey":"demographics","trial_type":"survey-demo","trial_index":1,"time_elapsed":15910,"internal_node_id":"0.0-1.0","experiment":"validation","task_version":"1.1","jspsych_version":"6.3.1"},{"responses":{"Q02":"4","Q06":"1","Q05":"3","Q03":"3","Q04":"1","Q01":"3","Q07":"2"},"rt":43500.89999999851,"item_order":[1,5,4,2,3,0,6],"radio_events":[5811.70000000298,19928.79999999702,24431.60000000149,28567.60000000149,34110.89999999851,37785.20000000298,42353.5],"key_events":[],"mouse_events":[5811.70000000298,19928.79999999702,24431.60000000149,28567.60000000149,34110.89999999851,37785.20000000298,42353.5,43498.60000000149],"straightlining":0.42857142857142855,"zigzagging":0.16666666666666666,"honeypot":0,"survey":"nfc6","trial_type":"survey-template","trial_index":2,"time_elapsed":59425,"internal_node_id":"0.0-2.0","experiment":"validation","task_version":"1.1","jspsych_version":"6.3.1","infrequency":0},{"responses":{"Q07":"3","Q09":"0","Q04":"0","Q10":"1","Q08":"1","Q06":"0","Q01":"1","Q05":"3","Q02":"1","Q11":"4","Q03":"0"},"rt":57735.5,"item_order":[6,8,3,9,7,5,0,4,1,10,2],"radio_events":[8834.10000000149,15533.39999999851,19778,23178.10000000149,24814.20000000298,28207.20000000298,42274.29999999702,46374.89999999851,50085.89999999851,52920.5,56346],"key_events":[],"mouse_events":[8834.10000000149,15533.39999999851,19778,23178.10000000149,24814.20000000298,28207.20000000298,42274.29999999702,46374.89999999851,50085.89999999851,52920.5,56346,57731.10000000149],"straightlining":0.2727272727272727,"zigzagging":0.3,"honeypot":0,"survey":"neuroticism","trial_type":"survey-template","trial_index":3,"time_elapsed":117173,"internal_node_id":"0.0-3.0","experiment":"validation","task_version":"1.1","jspsych_version":"6.3.1","infrequency":0},{"responses":{"Q04":"3","Q02":"1","Q07":"3","Q05":"1","Q08":"2","Q01":"3","Q09":"3","Q10":"4","Q03":"3","Q11":"0","Q06":"3"},"rt":43321.60000000149,"item_order":[3,1,6,4,7,0,8,9,2,10,5],"radio_events":[5877,8028.30000000447,10123.30000000447,12516.70000000298,16748,19728.70000000298,24504.20000000298,28148.10000000149,31426.60000000149,34898.80000000447,42266.30000000447],"key_events":[],"mouse_events":[5877,8028.30000000447,10123.30000000447,12516.70000000298,16748,19728.70000000298,24504.20000000298,28148.10000000149,31426.60000000149,34898.80000000447,42266.30000000447,43317.90000000596],"straightlining":0.45454545454545453,"zigzagging":0.4,"honeypot":0,"survey":"openness","trial_type":"survey-template","trial_index":4,"time_elapsed":160513,"internal_node_id":"0.0-4.0","experiment":"validation","task_version":"1.1","jspsych_version":"6.3.1","infrequency":0},{"value":[0,1.155844155844156,0.8666666666666667],"trial_type":"call-function","trial_index":5,"time_elapsed":160526,"internal_node_id":"0.0-5.0","experiment":"validation","task_version":"1.1","jspsych_version":"6.3.1","interactions":"[]"}]