[{"view_history":[{"page_index":0,"viewing_time":6591.5}],"rt":6592.199999999255,"trial_type":"instructions","trial_index":0,"time_elapsed":6629,"internal_node_id":"0.0-0.0","experiment":"validation","task_version":"1.1","jspsych_version":"6.3.1"},{"rt":33485.79999999702,"responses":{"age":"37","gender-categorical":"Male","gender-free-response":"","ethnicity":"Rather not say","race":["White"],"education":"Master degree or higher"},"survey":"demographics","trial_type":"survey-demo","trial_index":1,"time_elapsed":40117,"internal_node_id":"0.0-1.0","experiment":"validation","task_version":"1.1","jspsych_version":"6.3.1"},{"responses":{"Q08":"0","Q10":"1","Q03":"2","Q09":"1","Q01":"2","Q07":"2","Q11":"4","Q06":"2","Q04":"3","Q05":"0","Q02":"0"},"rt":34636.89999999851,"item_order":[7,9,2,8,0,6,10,5,3,4,1],"radio_events":[5531.60000000149,9259.699999999255,12803.60000000149,15203.5,17467.39999999851,18331.5,23227.39999999851,24971.39999999851,28507.39999999851,30947.39999999851,33003.5],"key_events":[],"mouse_events":[3971.60000000149,5531.60000000149,8627.5,9259.699999999255,12123.5,12803.60000000149,13811.300000000745,14443.39999999851,15203.5,16555.5,17467.39999999851,18331.5,21755.5,23227.39999999851,24203.5,24971.39999999851,27059.39999999851,28507.39999999851,29779.5,30947.39999999851,31699.5,33003.5,34635.39999999851],"straightlining":0.36363636363636365,"zigzagging":0.5,"honeypot":0,"survey":"neuroticism","trial_type":"survey-template","trial_index":2,"time_elapsed":74758,"internal_node_id":"0.0-2.0","experiment":"validation","task_version":"1.1","jspsych_version":"6.3.1","infrequency":0},{"responses":{"Q08":"1","Q10":"2","Q04":"2","Q03":"2","Q07":"3","Q11":"1","Q09":"2","Q01":"1","Q05":"1","Q06":"4","Q02":"3"},"rt":39604.20000000298,"item_order":[7,9,3,2,6,10,8,0,4,5,1],"radio_events":[5699,8379,10011,10947,16074.900000002235,19002.900000002235,21346.900000002235,25178.900000002235,27890.900000002235,31410.800000000745,35578.800000000745,38602.800000000745],"key_events":[],"mouse_events":[5035.10000000149,5699,6899.10000000149,7746.900000002235,8379,9258.900000002235,10011,10947,13450.900000002235,16074.900000002235,19002.900000002235,21346.900000002235,25178.900000002235,27066.900000002235,27890.900000002235,29266.900000002235,30706.800000000745,31410.800000000745,35578.800000000745,38019,38602.800000000745,39602.900000002235],"straightlining":0.36363636363636365,"zigzagging":0.4,"honeypot":0,"survey":"openness","trial_type":"survey-template","trial_index":3,"time_elapsed":114366,"internal_node_id":"0.0-3.0","experiment":"validation","task_version":"1.1","jspsych_version":"6.3.1","infrequency":0},{"responses":{"Q05":"3","Q02":"2","Q07":"2","Q04":"1","Q01":"2","Q06":"3","Q03":"1"},"rt":16236.400000002235,"item_order":[4,1,6,3,0,5,2],"radio_events":[3899.400000002235,5915.5,6819.5,9731.5,10851.5,12627.5,14659.400000002235],"key_events":[],"mouse_events":[3323.60000000149,3899.400000002235,4995.400000002235,5915.5,6819.5,8131.5,9075.5,9731.5,10851.5,12627.5,14659.400000002235,16235.5],"straightlining":0.5714285714285714,"zigzagging":0.6666666666666666,"honeypot":0,"survey":"nfc6","trial_type":"survey-template","trial_index":4,"time_elapsed":130605,"internal_node_id":"0.0-4.0","experiment":"validation","task_version":"1.1","jspsych_version":"6.3.1","infrequency":0},{"value":[0,1.2987012987012987,1.5666666666666667],"trial_type":"call-function","trial_index":5,"time_elapsed":130607,"internal_node_id":"0.0-5.0","experiment":"validation","task_version":"1.1","jspsych_version":"6.3.1","interactions":"[]"}]