[{"view_history":[{"page_index":0,"viewing_time":4159.299999952316}],"rt":4160,"trial_type":"instructions","trial_index":0,"time_elapsed":4172,"internal_node_id":"0.0-0.0","experiment":"validation","task_version":"1.1","jspsych_version":"6.3.1"},{"rt":9511.899999976158,"responses":{"age":"21","gender-categorical":"Female","gender-free-response":"","ethnicity":"Not Hispanic or Latino","race":["White"],"education":"Bachelor degree"},"survey":"demographics","trial_type":"survey-demo","trial_index":1,"time_elapsed":13689,"internal_node_id":"0.0-1.0","experiment":"validation","task_version":"1.1","jspsych_version":"6.3.1"},{"responses":{"Q10":"3","Q06":"2","Q04":"3","Q03":"3","Q01":"3","Q02":"2","Q05":"0","Q08":"2","Q09":"2","Q11":"0","Q07":"3"},"rt":49757.5,"item_order":[9,5,3,2,0,1,4,7,8,10,6],"radio_events":[5678,10112.400000095367,13475.300000071526,19422.100000023842,21375.200000047684,25029.900000095367,28700.300000071526,32244.600000023842,35962.10000002384,39246.40000009537,45317.90000009537,48705.200000047684],"key_events":[],"mouse_events":[5678,10112.400000095367,13475.300000071526,19422.100000023842,21375.200000047684,25029.900000095367,28700.300000071526,30937.100000023842,32244.600000023842,35962.10000002384,39246.40000009537,45317.90000009537,48705.200000047684,49752.10000002384],"straightlining":0.36363636363636365,"zigzagging":0.4,"honeypot":0,"survey":"openness","trial_type":"survey-template","trial_index":2,"time_elapsed":63454,"internal_node_id":"0.0-2.0","experiment":"validation","task_version":"1.1","jspsych_version":"6.3.1","infrequency":0},{"responses":{"Q02":"3","Q07":"2","Q01":"3","Q03":"3","Q06":"2","Q04":"3","Q05":"3"},"rt":61016.5,"item_order":[1,6,0,2,5,3,4],"radio_events":[29868.700000047684,33122.10000002384,37490.90000009537,40755.700000047684,51414.60000002384,57778,60156.40000009537],"key_events":[],"mouse_events":[29868.700000047684,33122.10000002384,37490.90000009537,40755.700000047684,51414.60000002384,56943.800000071526,57778,60156.40000009537,61014.700000047684],"straightlining":0.42857142857142855,"zigzagging":0.6666666666666666,"honeypot":0,"survey":"nfc6","trial_type":"survey-template","trial_index":3,"time_elapsed":124474,"internal_node_id":"0.0-3.0","experiment":"validation","task_version":"1.1","jspsych_version":"6.3.1","infrequency":0},{"responses":{"Q07":"1","Q02":"2","Q11":"4","Q05":"2","Q10":"1","Q04":"3","Q09":"3","Q08":"1","Q06":"3","Q03":"1","Q01":"1"},"rt":39374.200000047684,"item_order":[6,1,10,4,9,3,8,7,5,2,0],"radio_events":[3602,11367,13982.100000023842,17321.100000023842,18919.5,20179.799999952316,23022.5,25322.5,27684.899999976158,30156.5,36497.10000002384,38001.200000047684],"key_events":[],"mouse_events":[3602,11367,13982.100000023842,17321.100000023842,18919.5,20179.799999952316,23022.5,25322.5,27684.899999976158,30156.5,36497.10000002384,38001.200000047684,39371.700000047684],"straightlining":0.36363636363636365,"zigzagging":0.2,"honeypot":0,"survey":"neuroticism","trial_type":"survey-template","trial_index":4,"time_elapsed":163853,"internal_node_id":"0.0-4.0","experiment":"validation","task_version":"1.1","jspsych_version":"6.3.1","infrequency":0},{"value":[0,1.155844155844156,1.2666666666666666],"trial_type":"call-function","trial_index":5,"time_elapsed":163856,"internal_node_id":"0.0-5.0","experiment":"validation","task_version":"1.1","jspsych_version":"6.3.1","interactions":"[]"}]