[{"view_history":[{"page_index":0,"viewing_time":4262.399999991059}],"rt":4262.899999991059,"trial_type":"instructions","trial_index":0,"time_elapsed":4296,"internal_node_id":"0.0-0.0","experiment":"validation","task_version":"1.1","jspsych_version":"6.3.1"},{"rt":31153.39999999106,"responses":{"age":"28","gender-categorical":"Female","gender-free-response":"","ethnicity":"Hispanic or Latino","race":["White"],"education":"Bachelor degree"},"survey":"demographics","trial_type":"survey-demo","trial_index":1,"time_elapsed":35452,"internal_node_id":"0.0-1.0","experiment":"validation","task_version":"1.1","jspsych_version":"6.3.1"},{"responses":{"Q10":"2","Q07":"1","Q04":"1","Q02":"1","Q11":"4","Q06":"1","Q05":"3","Q01":"1","Q09":"1","Q08":"2","Q03":"0"},"rt":52078.90000000596,"item_order":[9,6,3,1,10,5,4,0,8,7,2],"radio_events":[3719.7000000029802,9358.40000000596,14352.90000000596,17045.29999999702,20403.40000000596,23651,27190.20000000298,28644,36905.5,42816.79999999702,45793.79999999702,50398.5],"key_events":[],"mouse_events":[3719.7000000029802,9358.40000000596,14352.90000000596,17045.29999999702,20403.40000000596,23651,27190.20000000298,28644,36905.5,42816.79999999702,45793.79999999702,50398.5,52076.79999999702],"straightlining":0.36363636363636365,"zigzagging":0.3,"honeypot":0,"survey":"neuroticism","trial_type":"survey-template","trial_index":2,"time_elapsed":87538,"internal_node_id":"0.0-2.0","experiment":"validation","task_version":"1.1","jspsych_version":"6.3.1","infrequency":0},{"responses":{"Q03":"2","Q10":"3","Q05":"0","Q08":"3","Q02":"3","Q06":"3","Q01":"3","Q04":"0","Q11":"0","Q07":"4","Q09":"3"},"rt":60135,"item_order":[2,9,4,7,1,5,0,3,10,6,8],"radio_events":[7942.29999999702,12725.90000000596,20446.90000000596,25388.90000000596,30153.79999999702,34141.90000000596,38765.70000000298,45195,51506.40000000596,54761.59999999404,59043],"key_events":[],"mouse_events":[7942.29999999702,12725.90000000596,20446.90000000596,25388.90000000596,30153.79999999702,34141.90000000596,38765.70000000298,45195,51506.40000000596,54761.59999999404,59043,60133.09999999404],"straightlining":0.36363636363636365,"zigzagging":0.4,"honeypot":0,"survey":"openness","trial_type":"survey-template","trial_index":3,"time_elapsed":147677,"internal_node_id":"0.0-3.0","experiment":"validation","task_version":"1.1","jspsych_version":"6.3.1","infrequency":0},{"responses":{"Q05":"4","Q04":"3","Q07":"2","Q06":"4","Q01":"1","Q02":"3","Q03":"4"},"rt":58650.70000000298,"item_order":[4,3,6,5,0,1,2],"radio_events":[19484.20000000298,25903.20000000298,28520.59999999404,39213,43314.79999999702,50995.89999999106,57586.29999999702],"key_events":[],"mouse_events":[19484.20000000298,25903.20000000298,28520.59999999404,39213,43314.79999999702,50995.89999999106,54884.29999999702,57586.29999999702,58649.39999999106],"straightlining":0.2857142857142857,"zigzagging":0.16666666666666666,"honeypot":0,"survey":"nfc6","trial_type":"survey-template","trial_index":4,"time_elapsed":206331,"internal_node_id":"0.0-4.0","experiment":"validation","task_version":"1.1","jspsych_version":"6.3.1","infrequency":0},{"value":[0,1.012987012987013,0.8666666666666666],"trial_type":"call-function","trial_index":5,"time_elapsed":206333,"internal_node_id":"0.0-5.0","experiment":"validation","task_version":"1.1","jspsych_version":"6.3.1","interactions":"[]"}]