[{"view_history":[{"page_index":0,"viewing_time":1575.4000000953674}],"rt":1575.7000000476837,"trial_type":"instructions","trial_index":0,"time_elapsed":1598,"internal_node_id":"0.0-0.0","experiment":"validation","task_version":"1.1","jspsych_version":"6.3.1"},{"rt":11966,"responses":{"age":"29","gender-categorical":"Female","gender-free-response":"","ethnicity":"Not Hispanic or Latino","race":["White"],"education":"Bachelor degree"},"survey":"demographics","trial_type":"survey-demo","trial_index":1,"time_elapsed":13571,"internal_node_id":"0.0-1.0","experiment":"validation","task_version":"1.1","jspsych_version":"6.3.1"},{"responses":{"Q04":"2","Q09":"1","Q10":"4","Q01":"4","Q03":"3","Q02":"4","Q07":"3","Q11":"0","Q08":"3","Q06":"3","Q05":"1"},"rt":55172.799999952316,"item_order":[3,8,9,0,2,1,6,10,7,5,4],"radio_events":[11324.199999809265,19141.699999809265,21822,26122.89999985695,28090.699999809265,34937.89999985695,36487.09999990463,41251.799999952316,44722.699999809265,48600.89999985695,52271.59999990463,54563.799999952316],"key_events":[],"mouse_events":[11324.199999809265,15463.5,19141.699999809265,21005.39999985695,21822,26122.89999985695,28090.699999809265,33474.799999952316,34259.699999809265,34937.89999985695,36487.09999990463,41251.799999952316,44722.699999809265,48600.89999985695,52271.59999990463,54563.799999952316,55169.199999809265],"straightlining":0.2727272727272727,"zigzagging":0.6,"honeypot":0,"survey":"openness","trial_type":"survey-template","trial_index":2,"time_elapsed":68753,"internal_node_id":"0.0-2.0","experiment":"validation","task_version":"1.1","jspsych_version":"6.3.1","infrequency":0},{"responses":{"Q05":"3","Q06":"1","Q03":"1","Q01":"1","Q07":"2","Q04":"1","Q02":"1"},"rt":90819.89999985695,"item_order":[4,5,2,0,6,3,1],"radio_events":[12279.199999809265,20520.099999904633,25478.299999952316,76668.5,78129.69999980927,84128.39999985695,89703],"key_events":[],"mouse_events":[10387.299999952316,12279.199999809265,20520.099999904633,25478.299999952316,74980.19999980927,76668.5,78129.69999980927,84128.39999985695,89703,90818.69999980927],"straightlining":0.42857142857142855,"zigzagging":0.3333333333333333,"honeypot":0,"survey":"nfc6","trial_type":"survey-template","trial_index":3,"time_elapsed":159580,"internal_node_id":"0.0-3.0","experiment":"validation","task_version":"1.1","jspsych_version":"6.3.1","infrequency":0},{"responses":{"Q08":"1","Q07":"3","Q11":"4","Q06":"3","Q02":"1","Q04":"1","Q01":"3","Q10":"1","Q09":"3","Q05":"1","Q03":"3"},"rt":79175,"item_order":[7,6,10,5,1,3,0,9,8,4,2],"radio_events":[4089.5999999046326,5881.700000047684,8354.299999952316,10347.200000047684,53358,53907.90000009537,63243.299999952316,67434.79999995232,70269.29999995232,72999,78316.20000004768],"key_events":[],"mouse_events":[4089.5999999046326,5881.700000047684,8354.299999952316,10347.200000047684,49666.799999952316,52158.09999990463,52768.299999952316,53358,53907.90000009537,63243.299999952316,67434.79999995232,69542.59999990463,70269.29999995232,72999,77508.40000009537,78316.20000004768,79173.20000004768],"straightlining":0.5454545454545454,"zigzagging":0,"honeypot":0,"survey":"neuroticism","trial_type":"survey-template","trial_index":4,"time_elapsed":238761,"internal_node_id":"0.0-4.0","experiment":"validation","task_version":"1.1","jspsych_version":"6.3.1","infrequency":0},{"value":[0,1.2467532467532467,0.9333333333333333],"trial_type":"call-function","trial_index":5,"time_elapsed":238767,"internal_node_id":"0.0-5.0","experiment":"validation","task_version":"1.1","jspsych_version":"6.3.1","interactions":"[]"}]