[{"success":true,"timeout":false,"failed_images":[],"failed_audio":[],"failed_video":[],"trial_type":"preload","trial_index":0,"time_elapsed":821,"internal_node_id":"0.0-0.0","experiment":"validation","task_version":"1.1","jspsych_version":"6.3.1"},{"success":true,"trial_type":"fullscreen","trial_index":1,"time_elapsed":4158,"internal_node_id":"0.0-1.0","experiment":"validation","task_version":"1.1","jspsych_version":"6.3.1"},{"view_history":[{"page_index":0,"viewing_time":935},{"page_index":1,"viewing_time":8827.000000000002},{"page_index":2,"viewing_time":3964.999999999998},{"page_index":3,"viewing_time":1790.0000000000036}],"rt":15517.000000000004,"trial_type":"instructions","trial_index":2,"time_elapsed":19677,"internal_node_id":"0.0-3.0","experiment":"validation","task_version":"1.1","jspsych_version":"6.3.1"},{"item":5,"shape_set":1,"distractor":"pd","choice_order":[1,2,0,3],"correct":0,"choice":0,"accuracy":1,"rt":2272,"screen_resolution":[1152,720],"minimum_resolution":1,"all_loaded":true,"item_set":"practice","trial_type":"mars","trial_index":3,"time_elapsed":22706,"internal_node_id":"0.0-4.0-0.0","experiment":"validation","task_version":"1.1","jspsych_version":"6.3.1"},{"item":2,"shape_set":1,"distractor":"pd","choice_order":[3,0,2,1],"correct":0,"choice":0,"accuracy":1,"rt":2919.9999999999964,"screen_resolution":[1152,720],"minimum_resolution":1,"all_loaded":true,"item_set":"practice","trial_type":"mars","trial_index":4,"time_elapsed":26384,"internal_node_id":"0.0-5.0-0.0","experiment":"validation","task_version":"1.1","jspsych_version":"6.3.1"},{"item":8,"shape_set":1,"distractor":"pd","choice_order":[3,0,1,2],"correct":0,"choice":0,"accuracy":1,"rt":6977,"screen_resolution":[1152,720],"minimum_resolution":1,"all_loaded":true,"item_set":"practice","trial_type":"mars","trial_index":5,"time_elapsed":34120,"internal_node_id":"0.0-6.0-0.0","experiment":"validation","task_version":"1.1","jspsych_version":"6.3.1"},{"view_history":[{"page_index":0,"viewing_time":1338},{"page_index":1,"viewing_time":8122}],"rt":9460,"trial_type":"instructions","trial_index":6,"time_elapsed":43585,"internal_node_id":"0.0-7.0","experiment":"validation","task_version":"1.1","jspsych_version":"6.3.1"},{"rt":null,"stimulus":"<div style=\"font-size:24px;\">Loading puzzle:<br>1 / 12</div>","response":null,"trial_type":"html-keyboard-response","trial_index":7,"time_elapsed":44790,"internal_node_id":"0.0-8.0-1.0","experiment":"validation","task_version":"1.1","jspsych_version":"6.3.1"},{"item":71,"shape_set":1,"distractor":"pd","choice_order":[1,2,3,0],"correct":0,"choice":0,"accuracy":1,"rt":8970,"screen_resolution":[1152,720],"minimum_resolution":1,"all_loaded":true,"item_set":3,"trial_type":"mars","trial_index":8,"time_elapsed":53763,"internal_node_id":"0.0-8.0-2.0","experiment":"validation","task_version":"1.1","jspsych_version":"6.3.1","browser_interactions":0},{"rt":null,"stimulus":"<div style=\"font-size:24px;\">Loading puzzle:<br>2 / 12</div>","response":null,"trial_type":"html-keyboard-response","trial_index":9,"time_elapsed":54970,"internal_node_id":"0.0-9.0-1.0","experiment":"validation","task_version":"1.1","jspsych_version":"6.3.1"},{"item":55,"shape_set":2,"distractor":"pd","choice_order":[0,2,3,1],"correct":0,"choice":1,"accuracy":0,"rt":11916,"screen_resolution":[1152,720],"minimum_resolution":1,"all_loaded":true,"item_set":3,"trial_type":"mars","trial_index":10,"time_elapsed":66890,"internal_node_id":"0.0-9.0-2.0","experiment":"validation","task_version":"1.1","jspsych_version":"6.3.1","browser_interactions":0},{"rt":null,"stimulus":"<div style=\"font-size:24px;\">Loading puzzle:<br>3 / 12</div>","response":null,"trial_type":"html-keyboard-response","trial_index":11,"time_elapsed":68097,"internal_node_id":"0.0-10.0-1.0","experiment":"validation","task_version":"1.1","jspsych_version":"6.3.1"},{"item":30,"shape_set":3,"distractor":"pd","choice_order":[3,0,1,2],"correct":0,"choice":0,"accuracy":1,"rt":13540,"screen_resolution":[1152,720],"minimum_resolution":1,"all_loaded":true,"item_set":3,"trial_type":"mars","trial_index":12,"time_elapsed":81642,"internal_node_id":"0.0-10.0-2.0","experiment":"validation","task_version":"1.1","jspsych_version":"6.3.1","browser_interactions":0},{"rt":null,"stimulus":"<div style=\"font-size:24px;\">Loading puzzle:<br>4 / 12</div>","response":null,"trial_type":"html-keyboard-response","trial_index":13,"time_elapsed":82849,"internal_node_id":"0.0-11.0-1.0","experiment":"validation","task_version":"1.1","jspsych_version":"6.3.1"},{"item":45,"shape_set":1,"distractor":"pd","choice_order":[2,3,1,0],"correct":0,"choice":0,"accuracy":1,"rt":21202,"screen_resolution":[1152,720],"minimum_resolution":1,"all_loaded":true,"item_set":3,"trial_type":"mars","trial_index":14,"time_elapsed":104055,"internal_node_id":"0.0-11.0-2.0","experiment":"validation","task_version":"1.1","jspsych_version":"6.3.1","browser_interactions":0},{"rt":null,"stimulus":"<div style=\"font-size:24px;\">Loading puzzle:<br>5 / 12</div>","response":null,"trial_type":"html-keyboard-response","trial_index":15,"time_elapsed":105261,"internal_node_id":"0.0-12.0-1.0","experiment":"validation","task_version":"1.1","jspsych_version":"6.3.1"},{"item":11,"shape_set":2,"distractor":"pd","choice_order":[1,3,0,2],"correct":0,"choice":3,"accuracy":0,"rt":12475.999999999985,"screen_resolution":[1152,720],"minimum_resolution":1,"all_loaded":true,"item_set":3,"trial_type":"mars","trial_index":16,"time_elapsed":117740,"internal_node_id":"0.0-12.0-2.0","experiment":"validation","task_version":"1.1","jspsych_version":"6.3.1","browser_interactions":0},{"rt":null,"stimulus":"<div style=\"font-size:24px;\">Loading puzzle:<br>6 / 12</div>","response":null,"trial_type":"html-keyboard-response","trial_index":17,"time_elapsed":118945,"internal_node_id":"0.0-13.0-1.0","experiment":"validation","task_version":"1.1","jspsych_version":"6.3.1"},{"item":29,"shape_set":3,"distractor":"pd","choice_order":[3,0,2,1],"correct":0,"choice":0,"accuracy":1,"rt":26519,"screen_resolution":[1152,720],"minimum_resolution":1,"all_loaded":true,"item_set":3,"trial_type":"mars","trial_index":18,"time_elapsed":145468,"internal_node_id":"0.0-13.0-2.0","experiment":"validation","task_version":"1.1","jspsych_version":"6.3.1","browser_interactions":0},{"rt":null,"stimulus":"<div style=\"font-size:24px;\">Loading puzzle:<br>7 / 12</div>","response":null,"trial_type":"html-keyboard-response","trial_index":19,"time_elapsed":146674,"internal_node_id":"0.0-14.0-1.0","experiment":"validation","task_version":"1.1","jspsych_version":"6.3.1"},{"item":16,"shape_set":1,"distractor":"md","choice_order":[2,3,1,0],"correct":0,"choice":0,"accuracy":1,"rt":8547,"screen_resolution":[1152,720],"minimum_resolution":1,"all_loaded":true,"item_set":3,"trial_type":"mars","trial_index":20,"time_elapsed":155225,"internal_node_id":"0.0-14.0-2.0","experiment":"validation","task_version":"1.1","jspsych_version":"6.3.1","browser_interactions":0},{"rt":null,"stimulus":"<div style=\"font-size:24px;\">Loading puzzle:<br>8 / 12</div>","response":null,"trial_type":"html-keyboard-response","trial_index":21,"time_elapsed":156431,"internal_node_id":"0.0-15.0-1.0","experiment":"validation","task_version":"1.1","jspsych_version":"6.3.1"},{"item":17,"shape_set":2,"distractor":"pd","choice_order":[1,2,0,3],"correct":0,"choice":1,"accuracy":0,"rt":26059.00000000003,"screen_resolution":[1152,720],"minimum_resolution":1,"all_loaded":true,"item_set":3,"trial_type":"mars","trial_index":22,"time_elapsed":182492,"internal_node_id":"0.0-15.0-2.0","experiment":"validation","task_version":"1.1","jspsych_version":"6.3.1","browser_interactions":0},{"rt":null,"stimulus":"<div style=\"font-size:24px;\">Loading puzzle:<br>9 / 12</div>","response":null,"trial_type":"html-keyboard-response","trial_index":23,"time_elapsed":183696,"internal_node_id":"0.0-16.0-1.0","experiment":"validation","task_version":"1.1","jspsych_version":"6.3.1"},{"item":23,"shape_set":3,"distractor":"md","choice_order":[2,1,3,0],"correct":0,"choice":0,"accuracy":1,"rt":24837.99999999997,"screen_resolution":[1152,720],"minimum_resolution":1,"all_loaded":true,"item_set":3,"trial_type":"mars","trial_index":24,"time_elapsed":208538,"internal_node_id":"0.0-16.0-2.0","experiment":"validation","task_version":"1.1","jspsych_version":"6.3.1","browser_interactions":0},{"rt":null,"stimulus":"<div style=\"font-size:24px;\">Loading puzzle:<br>10 / 12</div>","response":null,"trial_type":"html-keyboard-response","trial_index":25,"time_elapsed":209745,"internal_node_id":"0.0-17.0-1.0","experiment":"validation","task_version":"1.1","jspsych_version":"6.3.1"},{"item":58,"shape_set":1,"distractor":"md","choice_order":[2,1,0,3],"correct":0,"choice":0,"accuracy":1,"rt":22187,"screen_resolution":[1152,720],"minimum_resolution":1,"all_loaded":true,"item_set":3,"trial_type":"mars","trial_index":26,"time_elapsed":231935,"internal_node_id":"0.0-17.0-2.0","experiment":"validation","task_version":"1.1","jspsych_version":"6.3.1","browser_interactions":0},{"rt":null,"stimulus":"<div style=\"font-size:24px;\">Loading puzzle:<br>11 / 12</div>","response":null,"trial_type":"html-keyboard-response","trial_index":27,"time_elapsed":233144,"internal_node_id":"0.0-18.0-1.0","experiment":"validation","task_version":"1.1","jspsych_version":"6.3.1"},{"item":35,"shape_set":2,"distractor":"pd","choice_order":[0,3,1,2],"correct":0,"choice":2,"accuracy":0,"rt":29573,"screen_resolution":[1152,720],"minimum_resolution":1,"all_loaded":true,"item_set":3,"trial_type":"mars","trial_index":28,"time_elapsed":262723,"internal_node_id":"0.0-18.0-2.0","experiment":"validation","task_version":"1.1","jspsych_version":"6.3.1","browser_interactions":0},{"rt":null,"stimulus":"<div style=\"font-size:24px;\">Loading puzzle:<br>12 / 12</div>","response":null,"trial_type":"html-keyboard-response","trial_index":29,"time_elapsed":263931,"internal_node_id":"0.0-19.0-1.0","experiment":"validation","task_version":"1.1","jspsych_version":"6.3.1"},{"item":76,"shape_set":3,"distractor":"pd","choice_order":[1,0,2,3],"correct":0,"choice":1,"accuracy":0,"rt":22154,"screen_resolution":[1152,720],"minimum_resolution":1,"all_loaded":true,"item_set":3,"trial_type":"mars","trial_index":30,"time_elapsed":286089,"internal_node_id":"0.0-19.0-2.0","experiment":"validation","task_version":"1.1","jspsych_version":"6.3.1","browser_interactions":0},{"value":[0,0,0],"trial_type":"call-function","trial_index":31,"time_elapsed":286094,"internal_node_id":"0.0-20.0","experiment":"validation","task_version":"1.1","jspsych_version":"6.3.1"},{"view_history":[{"page_index":0,"viewing_time":2095}],"rt":2095,"trial_type":"instructions","trial_index":32,"time_elapsed":288191,"internal_node_id":"0.0-21.0","experiment":"validation","task_version":"1.1","jspsych_version":"6.3.1","interactions":"[{\"event\":\"fullscreenenter\",\"trial\":1,\"time\":3188}]"}]