[{"view_history":[{"page_index":0,"viewing_time":3208.600000143051}],"rt":3208.9000000953674,"trial_type":"instructions","trial_index":0,"time_elapsed":3222,"internal_node_id":"0.0-0.0","experiment":"validation","task_version":"1.1","jspsych_version":"6.3.1"},{"rt":15574.299999952316,"responses":{"age":"46","gender-categorical":"Male","gender-free-response":"","ethnicity":"Not Hispanic or Latino","race":["White"],"education":"Bachelor degree"},"survey":"demographics","trial_type":"survey-demo","trial_index":1,"time_elapsed":18799,"internal_node_id":"0.0-1.0","experiment":"validation","task_version":"1.1","jspsych_version":"6.3.1"},{"responses":{"Q10":"1","Q05":"2","Q09":"2","Q02":"2","Q03":"1","Q06":"2","Q07":"3","Q08":"1","Q11":"4","Q04":"2","Q01":"1"},"rt":25172.599999904633,"item_order":[9,4,8,1,2,5,6,7,10,3,0],"radio_events":[5067.700000047684,6459.5,7739.700000047684,8899.599999904633,12499.5,14219.5,16875.5,19731.5,21379.5,23267.39999985695,24227.39999985695],"key_events":[],"mouse_events":[5067.700000047684,6459.5,7739.700000047684,8899.599999904633,12499.5,14219.5,16875.5,19731.5,21379.5,23267.39999985695,24227.39999985695,25171.200000047684],"straightlining":0.45454545454545453,"zigzagging":0.6,"honeypot":0,"survey":"neuroticism","trial_type":"survey-template","trial_index":2,"time_elapsed":43976,"internal_node_id":"0.0-2.0","experiment":"validation","task_version":"1.1","jspsych_version":"6.3.1","infrequency":0},{"responses":{"Q05":"1","Q07":"2","Q09":"3","Q02":"3","Q03":"0","Q01":"1","Q08":"1","Q04":"1","Q10":"2","Q06":"1","Q11":"0"},"rt":33228.59999990463,"item_order":[4,6,8,1,2,0,7,3,9,5,10],"radio_events":[4043.5,5315.599999904633,7707.599999904633,9995.400000095367,11411.599999904633,13019.599999904633,14427.5,15907.5,19051.299999952316,20523.5,26771.400000095367,30267.400000095367,32011.299999952316],"key_events":[],"mouse_events":[4043.5,5315.599999904633,7707.599999904633,9995.400000095367,11411.599999904633,13019.599999904633,14427.5,15907.5,19051.299999952316,20523.5,23067.5,26187.200000047684,26771.400000095367,27579.5,30267.400000095367,32011.299999952316,33227.40000009537],"straightlining":0.45454545454545453,"zigzagging":0.5,"honeypot":0,"survey":"openness","trial_type":"survey-template","trial_index":3,"time_elapsed":77207,"internal_node_id":"0.0-3.0","experiment":"validation","task_version":"1.1","jspsych_version":"6.3.1","infrequency":0},{"responses":{"Q01":"2","Q03":"1","Q02":"1","Q07":"2","Q05":"1","Q04":"3","Q06":"1"},"rt":15132.799999952316,"item_order":[0,2,1,6,4,3,5],"radio_events":[3244,5139.899999856949,5700,10059.899999856949,11507.799999952316,12651.799999952316,13428.099999904633,14043.799999952316],"key_events":[],"mouse_events":[3244,5139.899999856949,5700,10059.899999856949,11507.799999952316,12651.799999952316,13428.099999904633,14043.799999952316,15131.899999856949],"straightlining":0.5714285714285714,"zigzagging":0.5,"honeypot":0,"survey":"nfc6","trial_type":"survey-template","trial_index":4,"time_elapsed":92343,"internal_node_id":"0.0-4.0","experiment":"validation","task_version":"1.1","jspsych_version":"6.3.1","infrequency":0},{"value":[0,1.4805194805194803,1.6],"trial_type":"call-function","trial_index":5,"time_elapsed":92344,"internal_node_id":"0.0-5.0","experiment":"validation","task_version":"1.1","jspsych_version":"6.3.1","interactions":"[]"}]