[{"view_history":[{"page_index":0,"viewing_time":1623.2999999998137}],"rt":1623.5,"trial_type":"instructions","trial_index":0,"time_elapsed":1640,"internal_node_id":"0.0-0.0","experiment":"validation","task_version":"1.1","jspsych_version":"6.3.1"},{"rt":16495.10000000056,"responses":{"age":"22","gender-categorical":"Female","gender-free-response":"","ethnicity":"Not Hispanic or Latino","race":["White"],"education":"Bachelor degree"},"survey":"demographics","trial_type":"survey-demo","trial_index":1,"time_elapsed":18138,"internal_node_id":"0.0-1.0","experiment":"validation","task_version":"1.1","jspsych_version":"6.3.1"},{"responses":{"Q07":"3","Q01":"1","Q04":"1","Q03":"1","Q08":"1","Q05":"1","Q10":"1","Q11":"4","Q02":"1","Q06":"4","Q09":"3"},"rt":43957.299999999814,"item_order":[6,0,3,2,7,4,9,10,1,5,8],"radio_events":[6394.399999999441,13618.599999999627,21474.299999999814,24008.599999999627,27011.299999999814,30132.599999999627,33707.5,35409.09999999963,38671.5,41064.59999999963,42885.5],"key_events":[],"mouse_events":[4454.399999999441,5480.299999999814,6394.399999999441,7628.399999999441,8869.199999999255,9761.199999999255,10741.699999999255,13618.599999999627,19638.89999999944,21474.299999999814,24008.599999999627,27011.299999999814,28928.599999999627,30132.599999999627,32555.299999999814,33707.5,35409.09999999963,38671.5,41064.59999999963,42885.5,43955.89999999944],"straightlining":0.6363636363636364,"zigzagging":0.3,"honeypot":0,"survey":"neuroticism","trial_type":"survey-template","trial_index":2,"time_elapsed":62101,"internal_node_id":"0.0-2.0","experiment":"validation","task_version":"1.1","jspsych_version":"6.3.1","infrequency":0},{"responses":{"Q01":"1","Q05":"3","Q06":"1","Q03":"3","Q04":"3","Q02":"3","Q07":"2"},"rt":48696.90000000037,"item_order":[0,4,5,2,3,1,6],"radio_events":[7695.5999999996275,10510.400000000373,12695.299999999814,15585.900000000373,21107,25349.900000000373,29102.799999999814,41065.5,45048.09999999963,47157.59999999963],"key_events":[],"mouse_events":[6445.799999999814,7695.5999999996275,10510.400000000373,11818.200000000186,12695.299999999814,15585.900000000373,20170.700000000186,21107,24398.900000000373,25349.900000000373,29102.799999999814,40196.09999999963,41065.5,45048.09999999963,47157.59999999963,48696],"straightlining":0.5714285714285714,"zigzagging":0.16666666666666666,"honeypot":0,"survey":"nfc6","trial_type":"survey-template","trial_index":3,"time_elapsed":110800,"internal_node_id":"0.0-3.0","experiment":"validation","task_version":"1.1","jspsych_version":"6.3.1","infrequency":0},{"responses":{"Q06":"3","Q02":"3","Q10":"0","Q08":"3","Q04":"1","Q11":"0","Q07":"3","Q03":"0","Q05":"1","Q09":"3","Q01":"3"},"rt":35152.5,"item_order":[5,1,9,7,3,10,6,2,4,8,0],"radio_events":[3436.100000000559,6482.100000000559,8057.300000000745,11890,13495.200000000186,16563.5,18554.400000000373,24623.5,28137.900000000373,31785.5,34296.5],"key_events":[],"mouse_events":[3436.100000000559,6482.100000000559,8057.300000000745,10687.300000000745,11890,13495.200000000186,16563.5,18554.400000000373,24623.5,26956.900000000373,28137.900000000373,31785.5,34296.5,35151.200000000186],"straightlining":0.36363636363636365,"zigzagging":0.3,"honeypot":0,"survey":"openness","trial_type":"survey-template","trial_index":4,"time_elapsed":145956,"internal_node_id":"0.0-4.0","experiment":"validation","task_version":"1.1","jspsych_version":"6.3.1","infrequency":0},{"value":[0,1.5714285714285716,0.7666666666666666],"trial_type":"call-function","trial_index":5,"time_elapsed":145958,"internal_node_id":"0.0-5.0","experiment":"validation","task_version":"1.1","jspsych_version":"6.3.1","interactions":"[]"}]