[{"view_history":[{"page_index":0,"viewing_time":2826.4000000003725}],"rt":2826.5999999996275,"trial_type":"instructions","trial_index":0,"time_elapsed":2843,"internal_node_id":"0.0-0.0","experiment":"validation","task_version":"1.1","jspsych_version":"6.3.1"},{"rt":15239.099999999627,"responses":{"age":"24","gender-categorical":"Male","gender-free-response":"","ethnicity":"Hispanic or Latino","race":["White"],"education":"Associate degree"},"survey":"demographics","trial_type":"survey-demo","trial_index":1,"time_elapsed":18083,"internal_node_id":"0.0-1.0","experiment":"validation","task_version":"1.1","jspsych_version":"6.3.1"},{"responses":{"Q05":"4","Q02":"4","Q03":"4","Q01":"4","Q04":"3","Q07":"2","Q06":"3"},"rt":195619.59999999963,"item_order":[4,1,2,0,3,6,5],"radio_events":[9658.899999999441,12618.799999999814,14146.899999999441,18818.89999999944,22714.89999999944,30194.699999999255,32778.59999999963,33706.699999999255,35826.59999999963,167050.89999999944,168018.89999999944,169962.59999999963,177291,178498.69999999925,187458.59999999963,194754.7999999998],"key_events":[],"mouse_events":[4019,4435,9266.699999999255,9658.899999999441,12618.799999999814,14146.899999999441,18818.89999999944,22186.699999999255,22714.89999999944,30194.699999999255,32778.59999999963,33706.699999999255,35338.89999999944,35826.59999999963,166426.59999999963,167050.89999999944,168018.89999999944,168994.89999999944,169554.59999999963,169962.59999999963,177291,178498.69999999925,186762.89999999944,187458.59999999963,188171,193034.69999999925,194298.5,194754.7999999998,195618.7999999998],"straightlining":0.42857142857142855,"zigzagging":0.6666666666666666,"honeypot":0,"survey":"nfc6","trial_type":"survey-template","trial_index":2,"time_elapsed":213707,"internal_node_id":"0.0-2.0","experiment":"validation","task_version":"1.1","jspsych_version":"6.3.1","infrequency":0},{"responses":{"Q06":"4","Q05":"0","Q09":"2","Q08":"3","Q07":"4","Q03":"2","Q02":"4","Q01":"4","Q11":"0","Q04":"1","Q10":"2"},"rt":43203.199999999255,"item_order":[5,4,8,7,6,2,1,0,10,3,9],"radio_events":[8947.199999999255,12050.399999999441,15346.299999999814,18642.39999999944,20786.39999999944,24706,27746.5,31426.39999999944,33802.39999999944,37362.299999999814,40306.09999999963,42522.299999999814],"key_events":[],"mouse_events":[8402.299999999814,8947.199999999255,12050.399999999441,14570.399999999441,15346.299999999814,18642.39999999944,20786.39999999944,24706,27746.5,30626.5,31426.39999999944,33802.39999999944,36602.299999999814,37362.299999999814,40306.09999999963,42522.299999999814,43202.199999999255],"straightlining":0.2727272727272727,"zigzagging":0.5,"honeypot":0,"survey":"openness","trial_type":"survey-template","trial_index":3,"time_elapsed":256915,"internal_node_id":"0.0-3.0","experiment":"validation","task_version":"1.1","jspsych_version":"6.3.1","infrequency":0},{"responses":{"Q07":"3","Q02":"2","Q01":"3","Q06":"4","Q10":"2","Q04":"3","Q03":"2","Q11":"4","Q05":"0","Q09":"0","Q08":"1"},"rt":30987.900000000373,"item_order":[6,1,0,5,9,3,2,10,4,8,7],"radio_events":[6379.4000000003725,8059.100000000559,10827.200000000186,13139.200000000186,15962.700000000186,17907,20122.900000000373,23218.800000000745,25603.200000000186,27442.900000000373,29442.800000000745],"key_events":[],"mouse_events":[3650.7000000001863,3915.2000000001863,4194.9000000003725,4802.800000000745,5107.200000000186,6379.4000000003725,8059.100000000559,9947.200000000186,10459.100000000559,10827.200000000186,13139.200000000186,15515.300000000745,15962.700000000186,17907,20122.900000000373,22659,23218.800000000745,25603.200000000186,27442.900000000373,28986.900000000373,29442.800000000745,30987],"straightlining":0.2727272727272727,"zigzagging":0.7,"honeypot":0,"survey":"neuroticism","trial_type":"survey-template","trial_index":4,"time_elapsed":287907,"internal_node_id":"0.0-4.0","experiment":"validation","task_version":"1.1","jspsych_version":"6.3.1","infrequency":0},{"value":[0,0.974025974025974,1.8666666666666665],"trial_type":"call-function","trial_index":5,"time_elapsed":287911,"internal_node_id":"0.0-5.0","experiment":"validation","task_version":"1.1","jspsych_version":"6.3.1","interactions":"[{\"event\":\"blur\",\"trial\":2,\"time\":189277},{\"event\":\"focus\",\"trial\":2,\"time\":190749}]"}]