[{"view_history":[{"page_index":0,"viewing_time":5033.600000023842}],"rt":5035.5,"trial_type":"instructions","trial_index":0,"time_elapsed":5053,"internal_node_id":"0.0-0.0","experiment":"validation","task_version":"1.1","jspsych_version":"6.3.1"},{"rt":17723.399999976158,"responses":{"age":"44","gender-categorical":"Male","gender-free-response":"","ethnicity":"Not Hispanic or Latino","race":["White"],"education":"Master degree or higher"},"survey":"demographics","trial_type":"survey-demo","trial_index":1,"time_elapsed":22782,"internal_node_id":"0.0-1.0","experiment":"validation","task_version":"1.1","jspsych_version":"6.3.1"},{"responses":{"Q10":"1","Q09":"1","Q08":"1","Q04":"1","Q06":"2","Q11":"4","Q01":"1","Q02":"1","Q07":"1","Q05":"1","Q03":"0"},"rt":48761.10000002384,"item_order":[9,8,7,3,5,10,0,1,6,4,2],"radio_events":[5414.200000047684,9842.399999976158,11454.399999976158,13735.700000047684,18562.399999976158,21722.399999976158,24601.899999976158,27055.100000023842,30504.200000047684,34478.799999952316,37098.10000002384,44555.299999952316],"key_events":[],"mouse_events":[5414.200000047684,9842.399999976158,11454.399999976158,13735.700000047684,18562.399999976158,21722.399999976158,24601.899999976158,27055.100000023842,30504.200000047684,34478.799999952316,37098.10000002384,44555.299999952316,48757.200000047684],"straightlining":0.36363636363636365,"zigzagging":0.2,"honeypot":0,"survey":"neuroticism","trial_type":"survey-template","trial_index":2,"time_elapsed":71551,"internal_node_id":"0.0-2.0","experiment":"validation","task_version":"1.1","jspsych_version":"6.3.1","infrequency":0},{"responses":{"Q10":"1","Q07":"4","Q06":"4","Q04":"1","Q08":"4","Q03":"2","Q09":"4","Q05":"1","Q01":"3","Q02":"2","Q11":"0"},"rt":62664.90000009537,"item_order":[9,6,5,3,7,2,8,4,0,1,10],"radio_events":[8170.200000047684,12596.100000023842,15485.700000047684,21234.600000023842,25756,33266.40000009537,38869.800000071526,44223.40000009537,51349.90000009537,54285.300000071526,60897],"key_events":[],"mouse_events":[8170.200000047684,12596.100000023842,15485.700000047684,21234.600000023842,25756,33266.40000009537,38869.800000071526,44223.40000009537,51349.90000009537,54285.300000071526,60897,62661.60000002384],"straightlining":0.45454545454545453,"zigzagging":0.1,"honeypot":0,"survey":"openness","trial_type":"survey-template","trial_index":3,"time_elapsed":134225,"internal_node_id":"0.0-3.0","experiment":"validation","task_version":"1.1","jspsych_version":"6.3.1","infrequency":0},{"responses":{"Q01":"1","Q02":"2","Q06":"3","Q03":"3","Q04":"3","Q07":"2","Q05":"3"},"rt":39999.300000071526,"item_order":[0,1,5,2,3,6,4],"radio_events":[9067.800000071526,19087.300000071526,22154,26367.900000095367,30033.300000071526,33147.10000002384,39034.60000002384],"key_events":[],"mouse_events":[9067.800000071526,19087.300000071526,22154,26367.900000095367,30033.300000071526,33147.10000002384,39034.60000002384,39996.800000071526],"straightlining":0.42857142857142855,"zigzagging":0.6666666666666666,"honeypot":0,"survey":"nfc6","trial_type":"survey-template","trial_index":4,"time_elapsed":174231,"internal_node_id":"0.0-4.0","experiment":"validation","task_version":"1.1","jspsych_version":"6.3.1","infrequency":0},{"value":[0,1.2467532467532467,0.9666666666666667],"trial_type":"call-function","trial_index":5,"time_elapsed":174236,"internal_node_id":"0.0-5.0","experiment":"validation","task_version":"1.1","jspsych_version":"6.3.1","interactions":"[]"}]