[{"view_history":[{"page_index":0,"viewing_time":1725}],"rt":1726,"trial_type":"instructions","trial_index":0,"time_elapsed":1733,"internal_node_id":"0.0-0.0","experiment":"validation","task_version":"1.1","jspsych_version":"6.3.1"},{"rt":10296,"responses":{"age":"22","gender-categorical":"Female","gender-free-response":"","ethnicity":"Not Hispanic or Latino","race":["White"],"education":"Bachelor degree"},"survey":"demographics","trial_type":"survey-demo","trial_index":1,"time_elapsed":12033,"internal_node_id":"0.0-1.0","experiment":"validation","task_version":"1.1","jspsych_version":"6.3.1"},{"responses":{"Q02":"3","Q04":"3","Q03":"3","Q06":"4","Q07":"2","Q01":"3","Q05":"3"},"rt":42218,"item_order":[1,3,2,5,6,0,4],"radio_events":[6928,11130,13465.000000000004,24548.000000000007,26827,30511,41590],"key_events":[],"mouse_events":[6141,6928,10408,11130,13465.000000000004,24548.000000000007,26827,29692,30511,40914.00000000001,41590,42207],"straightlining":0.42857142857142855,"zigzagging":0.16666666666666666,"honeypot":0,"survey":"nfc6","trial_type":"survey-template","trial_index":2,"time_elapsed":54262,"internal_node_id":"0.0-2.0","experiment":"validation","task_version":"1.1","jspsych_version":"6.3.1","infrequency":0},{"responses":{"Q09":"3","Q03":"1","Q10":"1","Q04":"3","Q02":"0","Q06":"3","Q11":"4","Q01":"1","Q05":"1","Q08":"1","Q07":"2"},"rt":40336.99999999999,"item_order":[8,2,9,3,1,5,10,0,4,7,6],"radio_events":[6043.999999999993,8539.999999999993,12094.999999999993,12912.999999999993,15328.999999999993,16186.999999999993,19539.999999999993,21571.999999999993,25269.999999999993,27944.999999999993,32853.99999999999,39056.99999999999],"key_events":[],"mouse_events":[6043.999999999993,8539.999999999993,9936.999999999993,12094.999999999993,12912.999999999993,14245.999999999993,15328.999999999993,16186.999999999993,18586.999999999993,19539.999999999993,21571.999999999993,24347.999999999993,25269.999999999993,27944.999999999993,30807.999999999993,32203.999999999993,32853.99999999999,39056.99999999999,40325.99999999999],"straightlining":0.45454545454545453,"zigzagging":0.2,"honeypot":0,"survey":"neuroticism","trial_type":"survey-template","trial_index":3,"time_elapsed":94608,"internal_node_id":"0.0-3.0","experiment":"validation","task_version":"1.1","jspsych_version":"6.3.1","infrequency":0},{"responses":{"Q07":"4","Q10":"2","Q04":"3","Q11":"0","Q08":"3","Q03":"2","Q05":"0","Q09":"4","Q06":"4","Q01":"4","Q02":"3"},"rt":34473,"item_order":[6,9,3,10,7,2,4,8,5,0,1],"radio_events":[2666.0000000000146,6720,12367,13355,18931,21933,26579,29162,30239,32613,33616],"key_events":[],"mouse_events":[2666.0000000000146,6720,10035.000000000015,12367,13355,16244,17969,18931,21933,25135,26579,27456,28225,29162,30239,31771,32613,33616,34467],"straightlining":0.36363636363636365,"zigzagging":0.7,"honeypot":0,"survey":"openness","trial_type":"survey-template","trial_index":4,"time_elapsed":129092,"internal_node_id":"0.0-4.0","experiment":"validation","task_version":"1.1","jspsych_version":"6.3.1","infrequency":0},{"value":[0,1.2467532467532467,1.0666666666666667],"trial_type":"call-function","trial_index":5,"time_elapsed":129100,"internal_node_id":"0.0-5.0","experiment":"validation","task_version":"1.1","jspsych_version":"6.3.1","interactions":"[]"}]