[{"view_history":[{"page_index":0,"viewing_time":5652.899999999907}],"rt":5653.799999999814,"trial_type":"instructions","trial_index":0,"time_elapsed":5663,"internal_node_id":"0.0-0.0","experiment":"validation","task_version":"1.1","jspsych_version":"6.3.1"},{"rt":19436.399999999907,"responses":{"age":"36","gender-categorical":"Female","gender-free-response":"","ethnicity":"Not Hispanic or Latino","race":["White"],"education":"High school"},"survey":"demographics","trial_type":"survey-demo","trial_index":1,"time_elapsed":25103,"internal_node_id":"0.0-1.0","experiment":"validation","task_version":"1.1","jspsych_version":"6.3.1"},{"responses":{"Q01":"2","Q07":"2","Q06":"2","Q05":"3","Q04":"3","Q02":"3","Q03":"3"},"rt":59184.89999999991,"item_order":[0,6,5,4,3,1,2],"radio_events":[16156.90000000014,18885.600000000093,27276.800000000047,32058.100000000093,38602.60000000009,54180.200000000186,57652.200000000186],"key_events":[],"mouse_events":[16156.90000000014,17886.100000000093,18885.600000000093,26142.300000000047,27276.800000000047,32058.100000000093,38602.60000000009,54180.200000000186,57652.200000000186,59182.60000000009],"straightlining":0.42857142857142855,"zigzagging":0.16666666666666666,"honeypot":0,"survey":"nfc6","trial_type":"survey-template","trial_index":2,"time_elapsed":84296,"internal_node_id":"0.0-2.0","experiment":"validation","task_version":"1.1","jspsych_version":"6.3.1","infrequency":0},{"responses":{"Q06":"1","Q04":"1","Q11":"4","Q09":"1","Q07":"0","Q01":"0","Q10":"1","Q02":"0","Q08":"0","Q03":"0","Q05":"0"},"rt":59915.5,"item_order":[5,3,10,8,6,0,9,1,7,2,4],"radio_events":[11305.399999999907,16606.899999999907,19851.69999999972,23296.399999999907,32114.600000000093,36833.60000000009,38905.5,42377.39999999991,45596.69999999972,48870.10000000009,55343.299999999814],"key_events":[],"mouse_events":[11305.399999999907,16606.899999999907,19851.69999999972,23296.399999999907,28569.100000000093,30972.19999999972,32114.600000000093,36833.60000000009,38905.5,42377.39999999991,45596.69999999972,47206.5,48870.10000000009,50287.799999999814,54215,55343.299999999814,59913.69999999972],"straightlining":0.36363636363636365,"zigzagging":0.5,"honeypot":0,"survey":"neuroticism","trial_type":"survey-template","trial_index":3,"time_elapsed":144218,"internal_node_id":"0.0-3.0","experiment":"validation","task_version":"1.1","jspsych_version":"6.3.1","infrequency":0},{"responses":{"Q04":"1","Q01":"2","Q06":"4","Q10":"1","Q02":"2","Q07":"3","Q11":"0","Q03":"0","Q08":"2","Q09":"4","Q05":"0"},"rt":48675.69999999972,"item_order":[3,0,5,9,1,6,10,2,7,8,4],"radio_events":[3576.5,11535.299999999814,14236.599999999627,18158.899999999907,20035.599999999627,22014,26790.799999999814,32486,40118.69999999972,43944.299999999814,46631.299999999814],"key_events":[],"mouse_events":[3576.5,11535.299999999814,14236.599999999627,18158.899999999907,20035.599999999627,22014,26790.799999999814,31405.399999999907,32486,40118.69999999972,43944.299999999814,46631.299999999814,48674.59999999963],"straightlining":0.36363636363636365,"zigzagging":0.5,"honeypot":0,"survey":"openness","trial_type":"survey-template","trial_index":4,"time_elapsed":192896,"internal_node_id":"0.0-4.0","experiment":"validation","task_version":"1.1","jspsych_version":"6.3.1","infrequency":0},{"value":[0,1.155844155844156,1.1666666666666665],"trial_type":"call-function","trial_index":5,"time_elapsed":192899,"internal_node_id":"0.0-5.0","experiment":"validation","task_version":"1.1","jspsych_version":"6.3.1","interactions":"[]"}]