[{"view_history":[{"page_index":0,"viewing_time":2346.599999964237}],"rt":2347,"trial_type":"instructions","trial_index":0,"time_elapsed":2395,"internal_node_id":"0.0-0.0","experiment":"validation","task_version":"1.1","jspsych_version":"6.3.1"},{"rt":21674.100000023842,"responses":{"age":"19","gender-categorical":"Female","gender-free-response":"","ethnicity":"Not Hispanic or Latino","race":["White"],"education":"Some college"},"survey":"demographics","trial_type":"survey-demo","trial_index":1,"time_elapsed":24077,"internal_node_id":"0.0-1.0","experiment":"validation","task_version":"1.1","jspsych_version":"6.3.1"},{"responses":{"Q10":"2","Q03":"2","Q04":"1","Q11":"4","Q08":"1","Q09":"1","Q01":"1","Q02":"1","Q07":"1","Q06":"1","Q05":"1"},"rt":28691.700000047684,"item_order":[9,2,3,10,7,8,0,1,6,5,4],"radio_events":[8223.600000023842,10420.800000011921,11870.5,13216.200000047684,15625.600000023842,17410,20950.200000047684,21926.5,23912,25744,27735.30000001192],"key_events":[],"mouse_events":[8223.600000023842,10420.800000011921,11870.5,13216.200000047684,15625.600000023842,17410,20950.200000047684,21926.5,23912,25744,27735.30000001192,28686],"straightlining":0.36363636363636365,"zigzagging":0.2,"honeypot":0,"survey":"neuroticism","trial_type":"survey-template","trial_index":2,"time_elapsed":52801,"internal_node_id":"0.0-2.0","experiment":"validation","task_version":"1.1","jspsych_version":"6.3.1","infrequency":0},{"responses":{"Q10":"4","Q02":"2","Q08":"3","Q01":"3","Q04":"1","Q03":"3","Q06":"3","Q07":"3","Q09":"3","Q05":"0","Q11":"0"},"rt":42390.10000002384,"item_order":[9,1,7,0,3,2,5,6,8,4,10],"radio_events":[4292.600000023842,8104,9960,12582,16869.30000001192,19048.80000001192,26237.5,30491.200000047684,31804.5,33968.10000002384,36334.80000001192,38267.30000001192,41221.5],"key_events":[],"mouse_events":[4292.600000023842,8104,9960,12582,15457.800000011921,16869.30000001192,19048.80000001192,26237.5,30491.200000047684,31804.5,33968.10000002384,35517.10000002384,36334.80000001192,38267.30000001192,41221.5,42384.30000001192],"straightlining":0.36363636363636365,"zigzagging":0.2,"honeypot":0,"survey":"openness","trial_type":"survey-template","trial_index":3,"time_elapsed":95201,"internal_node_id":"0.0-3.0","experiment":"validation","task_version":"1.1","jspsych_version":"6.3.1","infrequency":0},{"responses":{"Q01":"3","Q03":"3","Q04":"3","Q02":"3","Q05":"3","Q06":"3","Q07":"2"},"rt":64098.799999952316,"item_order":[0,2,3,1,4,5,6],"radio_events":[4758,9464,15303.199999988079,32391.299999952316,35007,60072.299999952316,63068],"key_events":[],"mouse_events":[4758,9464,15303.199999988079,32391.299999952316,35007,60072.299999952316,63068,64089.69999998808],"straightlining":0.5714285714285714,"zigzagging":0.16666666666666666,"honeypot":0,"survey":"nfc6","trial_type":"survey-template","trial_index":4,"time_elapsed":159312,"internal_node_id":"0.0-4.0","experiment":"validation","task_version":"1.1","jspsych_version":"6.3.1","infrequency":0},{"value":[0,1.2987012987012987,0.5666666666666667],"trial_type":"call-function","trial_index":5,"time_elapsed":159319,"internal_node_id":"0.0-5.0","experiment":"validation","task_version":"1.1","jspsych_version":"6.3.1","interactions":"[]"}]