[{"view_history":[{"page_index":0,"viewing_time":2699.2999999998137}],"rt":2699.9000000003725,"trial_type":"instructions","trial_index":0,"time_elapsed":2718,"internal_node_id":"0.0-0.0","experiment":"validation","task_version":"1.1","jspsych_version":"6.3.1"},{"rt":8354.5,"responses":{"age":"25","gender-categorical":"Male","gender-free-response":"","ethnicity":"Not Hispanic or Latino","race":["White"],"education":"Bachelor degree"},"survey":"demographics","trial_type":"survey-demo","trial_index":1,"time_elapsed":11077,"internal_node_id":"0.0-1.0","experiment":"validation","task_version":"1.1","jspsych_version":"6.3.1"},{"responses":{"Q06":"3","Q02":"3","Q03":"2","Q07":"2","Q01":"1","Q04":"1","Q05":"3"},"rt":17363.5,"item_order":[5,1,2,6,0,3,4],"radio_events":[4840.199999999255,6327.199999999255,8070.699999999255,9189.599999999627,11978.799999999814,14344.5,16363.199999999255],"key_events":[],"mouse_events":[4840.199999999255,6327.199999999255,8070.699999999255,9189.599999999627,11978.799999999814,14344.5,15553.799999999814,16363.199999999255,17361.599999999627],"straightlining":0.5714285714285714,"zigzagging":0.3333333333333333,"honeypot":0,"survey":"nfc6","trial_type":"survey-template","trial_index":2,"time_elapsed":28446,"internal_node_id":"0.0-2.0","experiment":"validation","task_version":"1.1","jspsych_version":"6.3.1","infrequency":0},{"responses":{"Q10":"0","Q07":"1","Q04":"0","Q02":"0","Q11":"4","Q09":"1","Q01":"0","Q05":"0","Q08":"1","Q03":"0","Q06":"1"},"rt":13918.200000000186,"item_order":[9,6,3,1,10,8,0,4,7,2,5],"radio_events":[2176.100000000559,2940.7000000001863,4479,5126.700000000186,6788.799999999814,8716,10076.5,10564.5,11687.299999999814,13000.600000000559,13507.900000000373],"key_events":[],"mouse_events":[2176.100000000559,2940.7000000001863,4479,5126.700000000186,6788.799999999814,8716,10076.5,10564.5,11687.299999999814,13000.600000000559,13507.900000000373,13916.700000000186],"straightlining":0.45454545454545453,"zigzagging":0.3,"honeypot":0,"survey":"neuroticism","trial_type":"survey-template","trial_index":3,"time_elapsed":42368,"internal_node_id":"0.0-3.0","experiment":"validation","task_version":"1.1","jspsych_version":"6.3.1","infrequency":0},{"responses":{"Q06":"1","Q11":"0","Q09":"0","Q07":"1","Q08":"1","Q04":"3","Q05":"1","Q10":"0","Q02":"2","Q01":"0","Q03":"0"},"rt":18844.299999999814,"item_order":[5,10,8,6,7,3,4,9,1,0,2],"radio_events":[2970.399999999441,4387.699999999255,6014.5999999996275,6823.199999999255,7821.5,9623.299999999814,11041.899999999441,12660,13826.399999999441,14498.099999999627,15942.199999999255,16554.599999999627,18122.299999999814],"key_events":[],"mouse_events":[2970.399999999441,4387.699999999255,6014.5999999996275,6823.199999999255,7821.5,9623.299999999814,11041.899999999441,12660,13826.399999999441,14498.099999999627,15942.199999999255,16554.599999999627,18122.299999999814,18841.799999999814],"straightlining":0.36363636363636365,"zigzagging":0.3,"honeypot":0,"survey":"openness","trial_type":"survey-template","trial_index":4,"time_elapsed":61217,"internal_node_id":"0.0-4.0","experiment":"validation","task_version":"1.1","jspsych_version":"6.3.1","infrequency":0},{"value":[0,1.3896103896103895,0.9333333333333333],"trial_type":"call-function","trial_index":5,"time_elapsed":61220,"internal_node_id":"0.0-5.0","experiment":"validation","task_version":"1.1","jspsych_version":"6.3.1","interactions":"[]"}]