[{"view_history":[{"page_index":0,"viewing_time":2797.4000000953674}],"rt":2797.5999999046326,"trial_type":"instructions","trial_index":0,"time_elapsed":2816,"internal_node_id":"0.0-0.0","experiment":"validation","task_version":"1.1","jspsych_version":"6.3.1"},{"rt":12895.299999713898,"responses":{"age":"30","gender-categorical":"Male","gender-free-response":"","ethnicity":"Not Hispanic or Latino","race":["White"],"education":"Associate degree"},"survey":"demographics","trial_type":"survey-demo","trial_index":1,"time_elapsed":15713,"internal_node_id":"0.0-1.0","experiment":"validation","task_version":"1.1","jspsych_version":"6.3.1"},{"responses":{"Q04":"0","Q02":"0","Q07":"0","Q03":"0","Q09":"0","Q11":"4","Q05":"0","Q06":"0","Q08":"0","Q01":"0","Q10":"1"},"rt":63368.199999809265,"item_order":[3,1,6,2,8,10,4,5,7,0,9],"radio_events":[4805.300000190735,10034.900000095367,11016.800000190735,13445.099999904633,21594.800000190735,24787.300000190735,28425.300000190735,34131.300000190735,37924.90000009537,40540.800000190735,44264.800000190735,47739.300000190735,61525.09999990463],"key_events":[],"mouse_events":[3555,4805.300000190735,10034.900000095367,11016.800000190735,13445.099999904633,21204.900000095367,21594.800000190735,24787.300000190735,28425.300000190735,34131.300000190735,37480.90000009537,37924.90000009537,40540.800000190735,44264.800000190735,47739.300000190735,61525.09999990463,63367.09999990463],"straightlining":0.45454545454545453,"zigzagging":0.6,"honeypot":0,"survey":"neuroticism","trial_type":"survey-template","trial_index":2,"time_elapsed":79084,"internal_node_id":"0.0-2.0","experiment":"validation","task_version":"1.1","jspsych_version":"6.3.1","infrequency":0},{"responses":{"Q03":"4","Q02":"4","Q01":"3","Q05":"4","Q07":"2","Q04":"3","Q06":"3"},"rt":73267.7000002861,"item_order":[2,1,0,4,6,3,5],"radio_events":[6708.800000190735,19112.800000190735,29369.10000038147,38284.5,45244.90000009537,54432.60000038147,60902.90000009537,63314.60000038147,71651],"key_events":[],"mouse_events":[6708.800000190735,19112.800000190735,29369.10000038147,38284.5,45244.90000009537,54432.60000038147,60902.90000009537,62424.90000009537,63073.300000190735,63314.60000038147,71651,73267.10000038147],"straightlining":0.2857142857142857,"zigzagging":0.6666666666666666,"honeypot":0,"survey":"nfc6","trial_type":"survey-template","trial_index":3,"time_elapsed":152353,"internal_node_id":"0.0-3.0","experiment":"validation","task_version":"1.1","jspsych_version":"6.3.1","infrequency":0},{"responses":{"Q05":"0","Q11":"0","Q02":"2","Q07":"2","Q06":"4","Q09":"2","Q03":"4","Q01":"2","Q10":"4","Q04":"1","Q08":"3"},"rt":59464.5,"item_order":[4,10,1,6,5,8,2,0,9,3,7],"radio_events":[3885.800000190735,7141.699999809265,14071.699999809265,16734,20107.800000190735,24743.699999809265,29685.699999809265,33533.800000190735,37591.59999990463,44937.699999809265,54015.59999990463,57973.699999809265],"key_events":[],"mouse_events":[2528.0999999046326,2909.5999999046326,3885.800000190735,7141.699999809265,14071.699999809265,16734,20107.800000190735,24743.699999809265,29685.699999809265,33533.800000190735,37591.59999990463,40425.59999990463,44937.699999809265,54015.59999990463,57333.699999809265,57973.699999809265,59463.59999990463],"straightlining":0.36363636363636365,"zigzagging":0.1,"honeypot":0,"survey":"openness","trial_type":"survey-template","trial_index":4,"time_elapsed":211819,"internal_node_id":"0.0-4.0","experiment":"validation","task_version":"1.1","jspsych_version":"6.3.1","infrequency":0},{"value":[0,1.103896103896104,1.3666666666666667],"trial_type":"call-function","trial_index":5,"time_elapsed":211820,"internal_node_id":"0.0-5.0","experiment":"validation","task_version":"1.1","jspsych_version":"6.3.1","interactions":"[]"}]