[{"view_history":[{"page_index":0,"viewing_time":1430.1000000014901}],"rt":1430.7999999970198,"trial_type":"instructions","trial_index":0,"time_elapsed":1441,"internal_node_id":"0.0-0.0","experiment":"validation","task_version":"1.1","jspsych_version":"6.3.1"},{"rt":11812.20000000298,"responses":{"age":"24","gender-categorical":"Female","gender-free-response":"","ethnicity":"Not Hispanic or Latino","race":["Black or African American"],"education":"Bachelor degree"},"survey":"demographics","trial_type":"survey-demo","trial_index":1,"time_elapsed":13258,"internal_node_id":"0.0-1.0","experiment":"validation","task_version":"1.1","jspsych_version":"6.3.1"},{"responses":{"Q05":"3","Q02":"1","Q11":"0","Q04":"3","Q08":"1","Q01":"3","Q10":"3","Q03":"2","Q06":"2","Q09":"3","Q07":"4"},"rt":34448.20000000298,"item_order":[4,1,10,3,7,0,9,2,5,8,6],"radio_events":[8480.5,11301.60000000149,14754.60000000149,17382.60000000149,18571.10000000149,21117.70000000298,23713.39999999851,26196.39999999851,28274.30000000447,31338.60000000149,33481.70000000298],"key_events":[],"mouse_events":[8480.5,11301.60000000149,14754.60000000149,17382.60000000149,18571.10000000149,20196.30000000447,21117.70000000298,23713.39999999851,26196.39999999851,28274.30000000447,31338.60000000149,33481.70000000298,34443.80000000447],"straightlining":0.36363636363636365,"zigzagging":0.4,"honeypot":0,"survey":"neuroticism","trial_type":"survey-template","trial_index":2,"time_elapsed":47713,"internal_node_id":"0.0-2.0","experiment":"validation","task_version":"1.1","jspsych_version":"6.3.1","infrequency":1},{"responses":{"Q05":"3","Q03":"4","Q01":"3","Q07":"2","Q02":"4","Q06":"3","Q04":"3"},"rt":40039.10000000149,"item_order":[4,2,0,6,1,5,3],"radio_events":[6726.89999999851,12091,13077,17314.79999999702,21555.5,26257.39999999851,32542.79999999702,39154.79999999702],"key_events":[],"mouse_events":[6726.89999999851,12091,13077,17314.79999999702,21555.5,26257.39999999851,32542.79999999702,39154.79999999702,40036.39999999851],"straightlining":0.42857142857142855,"zigzagging":0.3333333333333333,"honeypot":0,"survey":"nfc6","trial_type":"survey-template","trial_index":3,"time_elapsed":87757,"internal_node_id":"0.0-3.0","experiment":"validation","task_version":"1.1","jspsych_version":"6.3.1","infrequency":0},{"responses":{"Q08":"3","Q05":"0","Q03":"4","Q01":"4","Q06":"3","Q11":"0","Q04":"1","Q07":"2","Q09":"2","Q10":"4","Q02":"4"},"rt":38925.10000000149,"item_order":[7,4,2,0,5,10,3,6,8,9,1],"radio_events":[8210.70000000298,11209.90000000596,13029.70000000298,15827.20000000298,20573.70000000298,24544,30641,32508.60000000149,33915.20000000298,36365.40000000596,38249.70000000298],"key_events":[],"mouse_events":[8210.70000000298,11209.90000000596,13029.70000000298,15827.20000000298,20573.70000000298,24544,30641,32508.60000000149,33915.20000000298,36365.40000000596,38249.70000000298,38921],"straightlining":0.36363636363636365,"zigzagging":0.3,"honeypot":0,"survey":"openness","trial_type":"survey-template","trial_index":4,"time_elapsed":126688,"internal_node_id":"0.0-4.0","experiment":"validation","task_version":"1.1","jspsych_version":"6.3.1","infrequency":0},{"value":[1,1.155844155844156,1.0333333333333334],"trial_type":"call-function","trial_index":5,"time_elapsed":126691,"internal_node_id":"0.0-5.0","experiment":"validation","task_version":"1.1","jspsych_version":"6.3.1","interactions":"[]"}]