[{"view_history":[{"page_index":0,"viewing_time":7230.600000143051}],"rt":7231.200000047684,"trial_type":"instructions","trial_index":0,"time_elapsed":7249,"internal_node_id":"0.0-0.0","experiment":"validation","task_version":"1.1","jspsych_version":"6.3.1"},{"rt":33103.60000014305,"responses":{"age":"45","gender-categorical":"Male","gender-free-response":"","ethnicity":"Not Hispanic or Latino","race":["Black or African American"],"education":"Bachelor degree"},"survey":"demographics","trial_type":"survey-demo","trial_index":1,"time_elapsed":40356,"internal_node_id":"0.0-1.0","experiment":"validation","task_version":"1.1","jspsych_version":"6.3.1"},{"responses":{"Q02":"4","Q01":"4","Q07":"2","Q06":"4","Q04":"3","Q03":"4","Q05":"4"},"rt":126526.30000019073,"item_order":[1,0,6,5,3,2,4],"radio_events":[26592,31316.10000014305,34515.700000047684,113543.80000019073,119666.80000019073,122628.40000009537,125620.5],"key_events":[],"mouse_events":[26592,31316.10000014305,34515.700000047684,113543.80000019073,119666.80000019073,122628.40000009537,125620.5,126524.10000014305],"straightlining":0.5714285714285714,"zigzagging":0.3333333333333333,"honeypot":0,"survey":"nfc6","trial_type":"survey-template","trial_index":2,"time_elapsed":166884,"internal_node_id":"0.0-2.0","experiment":"validation","task_version":"1.1","jspsych_version":"6.3.1","infrequency":0},{"responses":{"Q08":"4","Q04":"1","Q05":"0","Q06":"4","Q02":"2","Q03":"4","Q07":"4","Q09":"4","Q01":"4","Q10":"4","Q11":"0"},"rt":40426.5,"item_order":[7,3,4,5,1,2,6,8,0,9,10],"radio_events":[10867.900000095367,15517.200000047684,17026.400000095367,19381.700000047684,22307.700000047684,25748.5,29072.10000014305,30533.200000047684,33330.10000014305,36593.700000047684,38428.300000190735],"key_events":[],"mouse_events":[10867.900000095367,15517.200000047684,17026.400000095367,19381.700000047684,22307.700000047684,25748.5,29072.10000014305,30533.200000047684,33330.10000014305,36593.700000047684,38428.300000190735,40423.60000014305],"straightlining":0.5454545454545454,"zigzagging":0.5,"honeypot":0,"survey":"openness","trial_type":"survey-template","trial_index":3,"time_elapsed":207313,"internal_node_id":"0.0-3.0","experiment":"validation","task_version":"1.1","jspsych_version":"6.3.1","infrequency":0},{"responses":{"Q03":"0","Q01":"1","Q09":"1","Q11":"4","Q05":"1","Q06":"2","Q07":"3","Q02":"0","Q08":"0","Q04":"1","Q10":"0"},"rt":43067.799999952316,"item_order":[2,0,8,10,4,5,6,1,7,3,9],"radio_events":[9072.299999952316,11619,15807.200000047684,18864.299999952316,22839.799999952316,26257.60000014305,31145.200000047684,34516.700000047684,37016,40089.40000009537,42119.799999952316],"key_events":[],"mouse_events":[9072.299999952316,11619,15807.200000047684,18864.299999952316,22839.799999952316,26257.60000014305,31145.200000047684,34516.700000047684,37016,40089.40000009537,42119.799999952316,43065.40000009537],"straightlining":0.36363636363636365,"zigzagging":0.6,"honeypot":0,"survey":"neuroticism","trial_type":"survey-template","trial_index":4,"time_elapsed":250384,"internal_node_id":"0.0-4.0","experiment":"validation","task_version":"1.1","jspsych_version":"6.3.1","infrequency":0},{"value":[0,1.4805194805194803,1.4333333333333331],"trial_type":"call-function","trial_index":5,"time_elapsed":250386,"internal_node_id":"0.0-5.0","experiment":"validation","task_version":"1.1","jspsych_version":"6.3.1","interactions":"[]"}]