[{"view_history":[{"page_index":0,"viewing_time":2076}],"rt":2077.0999999996275,"trial_type":"instructions","trial_index":0,"time_elapsed":2218,"internal_node_id":"0.0-0.0","experiment":"validation","task_version":"1.1","jspsych_version":"6.3.1"},{"rt":9210.400000000373,"responses":{"age":"33","gender-categorical":"Male","gender-free-response":"","ethnicity":"Not Hispanic or Latino","race":["White"],"education":"Bachelor degree"},"survey":"demographics","trial_type":"survey-demo","trial_index":1,"time_elapsed":11436,"internal_node_id":"0.0-1.0","experiment":"validation","task_version":"1.1","jspsych_version":"6.3.1"},{"responses":{"Q01":"3","Q02":"4","Q06":"3","Q03":"4","Q07":"2","Q05":"3","Q04":"4"},"rt":42863.799999999814,"item_order":[0,1,5,2,6,4,3],"radio_events":[17938.099999999627,20390.89999999944,24350.39999999944,28699.39999999944,30830.299999999814,34478.299999999814,38838.200000000186,41998.299999999814],"key_events":[],"mouse_events":[16070.599999999627,17938.099999999627,20390.89999999944,24350.39999999944,28699.39999999944,30830.299999999814,34478.299999999814,38838.200000000186,41998.299999999814,42862.299999999814],"straightlining":0.42857142857142855,"zigzagging":0.5,"honeypot":0,"survey":"nfc6","trial_type":"survey-template","trial_index":2,"time_elapsed":54308,"internal_node_id":"0.0-2.0","experiment":"validation","task_version":"1.1","jspsych_version":"6.3.1","infrequency":0},{"responses":{"Q08":"4","Q05":"0","Q06":"4","Q11":"0","Q03":"3","Q01":"3","Q10":"4","Q02":"3","Q09":"3","Q04":"1","Q07":"3"},"rt":37169.799999999814,"item_order":[7,4,5,10,2,0,9,1,8,3,6],"radio_events":[3454.699999999255,6382.799999999814,8559.699999999255,12182.399999999441,16799.5,18894.5,21391,23454.5,26679.299999999814,34983,36558.39999999944],"key_events":[],"mouse_events":[3454.699999999255,6382.799999999814,8559.699999999255,12182.399999999441,16799.5,18894.5,21391,23454.5,26679.299999999814,34983,36558.39999999944,37167],"straightlining":0.36363636363636365,"zigzagging":0.2,"honeypot":0,"survey":"openness","trial_type":"survey-template","trial_index":3,"time_elapsed":91485,"internal_node_id":"0.0-3.0","experiment":"validation","task_version":"1.1","jspsych_version":"6.3.1","infrequency":0},{"responses":{"Q05":"0","Q11":"4","Q02":"0","Q07":"0","Q09":"1","Q04":"1","Q03":"0","Q08":"0","Q06":"1","Q10":"1","Q01":"0"},"rt":37401.799999999814,"item_order":[4,10,1,6,8,3,2,7,5,9,0],"radio_events":[12071.299999999814,14646.5,17150.60000000056,19182.60000000056,23255.5,25230.10000000056,27742.5,29927,32567.299999999814,35006,36622.700000000186],"key_events":[],"mouse_events":[12071.299999999814,14646.5,16175.200000000186,17150.60000000056,18510.60000000056,19182.60000000056,23255.5,25230.10000000056,27742.5,29927,31975,32567.299999999814,35006,36622.700000000186,37399.10000000056],"straightlining":0.36363636363636365,"zigzagging":0.7,"honeypot":0,"survey":"neuroticism","trial_type":"survey-template","trial_index":4,"time_elapsed":128896,"internal_node_id":"0.0-4.0","experiment":"validation","task_version":"1.1","jspsych_version":"6.3.1","infrequency":0},{"value":[0,1.155844155844156,1.4],"trial_type":"call-function","trial_index":5,"time_elapsed":128899,"internal_node_id":"0.0-5.0","experiment":"validation","task_version":"1.1","jspsych_version":"6.3.1","interactions":"[]"}]