[{"view_history":[{"page_index":0,"viewing_time":2862.7999999523163}],"rt":2864.399999976158,"trial_type":"instructions","trial_index":0,"time_elapsed":2925,"internal_node_id":"0.0-0.0","experiment":"validation","task_version":"1.1","jspsych_version":"6.3.1"},{"rt":13713.699999988079,"responses":{"age":"37","gender-categorical":"Female","gender-free-response":"","ethnicity":"Not Hispanic or Latino","race":["White"],"education":"Master degree or higher"},"survey":"demographics","trial_type":"survey-demo","trial_index":1,"time_elapsed":16646,"internal_node_id":"0.0-1.0","experiment":"validation","task_version":"1.1","jspsych_version":"6.3.1"},{"responses":{"Q05":"0","Q02":"4","Q10":"0","Q09":"4","Q11":"0","Q08":"4","Q04":"0","Q06":"4","Q07":"4","Q01":"4","Q03":"0"},"rt":29103.19999998808,"item_order":[4,1,9,8,10,7,3,5,6,0,2],"radio_events":[8114.899999976158,8874.300000011921,11521.800000011921,14026.300000011921,15554.199999988079,16953.899999976158,19545.899999976158,20786.19999998808,23082.100000023842,24058.19999998808,28178.100000023842],"key_events":[],"mouse_events":[8114.899999976158,8874.300000011921,9986.399999976158,11521.800000011921,14026.300000011921,15554.199999988079,16953.899999976158,19545.899999976158,20786.19999998808,23082.100000023842,24058.19999998808,28178.100000023842,29098.30000001192],"straightlining":0.5454545454545454,"zigzagging":0.5,"honeypot":0,"survey":"openness","trial_type":"survey-template","trial_index":2,"time_elapsed":45762,"internal_node_id":"0.0-2.0","experiment":"validation","task_version":"1.1","jspsych_version":"6.3.1","infrequency":0},{"responses":{"Q03":"0","Q01":"0","Q11":"4","Q06":"0","Q07":"0","Q09":"0","Q08":"0","Q05":"0","Q10":"0","Q02":"0","Q04":"0"},"rt":48365.30000001192,"item_order":[2,0,10,5,6,8,7,4,9,1,3],"radio_events":[22912.69999998808,23945.099999964237,30952.69999998808,31512.899999976158,32025,32648.899999976158,37896.89999997616,42088.80000001192,43792.89999997616,44328.80000001192,45272.89999997616,46784.89999997616],"key_events":[],"mouse_events":[22912.69999998808,23945.099999964237,30952.69999998808,31512.899999976158,32025,32648.899999976158,35992.09999996424,37896.89999997616,42088.80000001192,42601.09999996424,43792.89999997616,44328.80000001192,45272.89999997616,46784.89999997616,48361.09999996424],"straightlining":0.5454545454545454,"zigzagging":0.4,"honeypot":0,"survey":"neuroticism","trial_type":"survey-template","trial_index":3,"time_elapsed":94137,"internal_node_id":"0.0-3.0","experiment":"validation","task_version":"1.1","jspsych_version":"6.3.1","infrequency":0},{"responses":{"Q05":"4","Q07":"2","Q01":"4","Q06":"4","Q03":"4","Q02":"4","Q04":"0"},"rt":19926.5,"item_order":[4,6,0,5,2,1,3],"radio_events":[4835.199999988079,7627.099999964237,9387.5,11179.300000011921,11803.399999976158,13555.399999976158,17019.30000001192,17683.69999998808],"key_events":[],"mouse_events":[4835.199999988079,7627.099999964237,9387.5,10291.599999964237,11179.300000011921,11803.399999976158,13555.399999976158,14819.300000011921,15747.199999988079,17019.30000001192,17683.69999998808,19923.69999998808],"straightlining":0.7142857142857143,"zigzagging":0.3333333333333333,"honeypot":0,"survey":"nfc6","trial_type":"survey-template","trial_index":4,"time_elapsed":114071,"internal_node_id":"0.0-4.0","experiment":"validation","task_version":"1.1","jspsych_version":"6.3.1","infrequency":0},{"value":[0,1.8051948051948052,1.2333333333333334],"trial_type":"call-function","trial_index":5,"time_elapsed":114076,"internal_node_id":"0.0-5.0","experiment":"validation","task_version":"1.1","jspsych_version":"6.3.1","interactions":"[]"}]