[{"view_history":[{"page_index":0,"viewing_time":4520.5}],"rt":4521.199999988079,"trial_type":"instructions","trial_index":0,"time_elapsed":4523,"internal_node_id":"0.0-0.0","experiment":"validation","task_version":"1.1","jspsych_version":"6.3.1"},{"rt":19999.19999998808,"responses":{"age":"35","gender-categorical":"Male","gender-free-response":"","ethnicity":"Hispanic or Latino","race":["Rather not say"],"education":"Some college"},"survey":"demographics","trial_type":"survey-demo","trial_index":1,"time_elapsed":24523,"internal_node_id":"0.0-1.0","experiment":"validation","task_version":"1.1","jspsych_version":"6.3.1"},{"responses":{"Q06":"0","Q07":"0","Q01":"0","Q08":"0","Q10":"0","Q11":"4","Q04":"0","Q03":"0","Q05":"0","Q02":"0","Q09":"0"},"rt":31647.19999998808,"item_order":[5,6,0,7,9,10,3,2,4,1,8],"radio_events":[9557.90000000596,11639.699999988079,13937,16868.80000001192,18847.69999998808,19943.80000001192,22647.59999999404,23825.59999999404,25274.59999999404,26499.59999999404,29971.80000001192],"key_events":[],"mouse_events":[9557.90000000596,11639.699999988079,13937,16868.80000001192,18847.69999998808,19943.80000001192,22647.59999999404,23825.59999999404,25274.59999999404,26499.59999999404,29971.80000001192,31645.5],"straightlining":0.5454545454545454,"zigzagging":0.4,"honeypot":0,"survey":"neuroticism","trial_type":"survey-template","trial_index":2,"time_elapsed":56175,"internal_node_id":"0.0-2.0","experiment":"validation","task_version":"1.1","jspsych_version":"6.3.1","infrequency":0},{"responses":{"Q09":"2","Q02":"1","Q05":"1","Q01":"3","Q10":"1","Q07":"1","Q08":"3","Q03":"1","Q06":"3","Q11":"0","Q04":"1"},"rt":60741.59999999404,"item_order":[8,1,4,0,9,6,7,2,5,10,3],"radio_events":[6582.799999982119,9828.09999999404,11293.799999982119,14311.199999988079,23263.79999998212,30746.09999999404,34758.5,41492.40000000596,43666.40000000596,47233.19999998808,50749.5,54093.90000000596],"key_events":[],"mouse_events":[6582.799999982119,9828.09999999404,11293.799999982119,14311.199999988079,17494.90000000596,23263.79999998212,30746.09999999404,34758.5,40063.29999998212,41492.40000000596,43666.40000000596,47233.19999998808,50749.5,54093.90000000596,60739.19999998808],"straightlining":0.45454545454545453,"zigzagging":0.2,"honeypot":0,"survey":"openness","trial_type":"survey-template","trial_index":3,"time_elapsed":116918,"internal_node_id":"0.0-3.0","experiment":"validation","task_version":"1.1","jspsych_version":"6.3.1","infrequency":0},{"responses":{"Q06":"2","Q02":"3","Q04":"1","Q01":"2","Q03":"1","Q05":"3","Q07":"2"},"rt":52183.29999998212,"item_order":[5,1,3,0,2,4,6],"radio_events":[18877,27030.69999998808,32099.59999999404,37323.79999998212,41301.29999998212,46459.39999997616,49528.19999998808],"key_events":[],"mouse_events":[18877,27030.69999998808,32099.59999999404,37323.79999998212,41301.29999998212,46459.39999997616,49528.19999998808,52182.19999998808],"straightlining":0.5714285714285714,"zigzagging":0.6666666666666666,"honeypot":0,"survey":"nfc6","trial_type":"survey-template","trial_index":4,"time_elapsed":169102,"internal_node_id":"0.0-4.0","experiment":"validation","task_version":"1.1","jspsych_version":"6.3.1","infrequency":0},{"value":[0,1.5714285714285714,1.2666666666666666],"trial_type":"call-function","trial_index":5,"time_elapsed":169105,"internal_node_id":"0.0-5.0","experiment":"validation","task_version":"1.1","jspsych_version":"6.3.1","interactions":"[]"}]