[{"view_history":[{"page_index":0,"viewing_time":2004}],"rt":2004.300000000745,"trial_type":"instructions","trial_index":0,"time_elapsed":2015,"internal_node_id":"0.0-0.0","experiment":"validation","task_version":"1.1","jspsych_version":"6.3.1"},{"rt":13185.199999999255,"responses":{"age":"27","gender-categorical":"Male","gender-free-response":"","ethnicity":"Not Hispanic or Latino","race":["White"],"education":"High school"},"survey":"demographics","trial_type":"survey-demo","trial_index":1,"time_elapsed":15204,"internal_node_id":"0.0-1.0","experiment":"validation","task_version":"1.1","jspsych_version":"6.3.1"},{"responses":{"Q05":"0","Q01":"3","Q10":"2","Q02":"2","Q03":"3","Q07":"4","Q04":"3","Q11":"4","Q09":"3","Q06":"4","Q08":"2"},"rt":37511.699999999255,"item_order":[4,0,9,1,2,6,3,10,8,5,7],"radio_events":[15672.699999999255,16570.199999999255,18037.099999999627,19952.099999999627,21628.799999998882,23466.599999999627,24987.89999999851,27143.799999998882,30271.599999999627,31951.5,34318.5,36082.699999999255],"key_events":[],"mouse_events":[15672.699999999255,16570.199999999255,18037.099999999627,19952.099999999627,21628.799999998882,23466.599999999627,24987.89999999851,27143.799999998882,30271.599999999627,31951.5,34318.5,36082.699999999255,37509.79999999888],"straightlining":0.2727272727272727,"zigzagging":0.4,"honeypot":0,"survey":"neuroticism","trial_type":"survey-template","trial_index":2,"time_elapsed":52722,"internal_node_id":"0.0-2.0","experiment":"validation","task_version":"1.1","jspsych_version":"6.3.1","infrequency":0},{"responses":{"Q05":"0","Q08":"4","Q10":"4","Q11":"0","Q03":"3","Q09":"4","Q04":"1","Q02":"3","Q01":"3","Q07":"4","Q06":"4"},"rt":25281.39999999851,"item_order":[4,7,9,10,2,8,3,1,0,6,5],"radio_events":[3500.5999999996275,5782.5,7537.299999998882,12175.89999999851,14521.89999999851,16592.599999999627,19615.099999999627,20747.39999999851,21887.89999999851,22986.5,24380.799999998882],"key_events":[],"mouse_events":[3500.5999999996275,5782.5,7537.299999998882,12175.89999999851,14521.89999999851,16592.599999999627,19615.099999999627,20747.39999999851,21887.89999999851,22986.5,24380.799999998882,25279.599999999627],"straightlining":0.5454545454545454,"zigzagging":0.1,"honeypot":0,"survey":"openness","trial_type":"survey-template","trial_index":3,"time_elapsed":78009,"internal_node_id":"0.0-3.0","experiment":"validation","task_version":"1.1","jspsych_version":"6.3.1","infrequency":0},{"responses":{"Q03":"4","Q05":"4","Q02":"4","Q07":"2","Q06":"4","Q04":"4","Q01":"2"},"rt":21392.099999999627,"item_order":[2,4,1,6,5,3,0],"radio_events":[3056.699999999255,6817.5999999996275,9895.5,13201.5,15357.199999999255,17796.900000000373,20640.400000000373],"key_events":[],"mouse_events":[3056.699999999255,6817.5999999996275,9895.5,13201.5,15357.199999999255,17796.900000000373,20640.400000000373,21390.900000000373],"straightlining":0.42857142857142855,"zigzagging":0.3333333333333333,"honeypot":0,"survey":"nfc6","trial_type":"survey-template","trial_index":4,"time_elapsed":99405,"internal_node_id":"0.0-4.0","experiment":"validation","task_version":"1.1","jspsych_version":"6.3.1","infrequency":0},{"value":[0,1.2467532467532467,0.8333333333333333],"trial_type":"call-function","trial_index":5,"time_elapsed":99408,"internal_node_id":"0.0-5.0","experiment":"validation","task_version":"1.1","jspsych_version":"6.3.1","interactions":"[]"}]