[{"view_history":[{"page_index":0,"viewing_time":3340.7000002861023}],"rt":3341.1000003814697,"trial_type":"instructions","trial_index":0,"time_elapsed":3358,"internal_node_id":"0.0-0.0","experiment":"validation","task_version":"1.1","jspsych_version":"6.3.1"},{"rt":170768.2999997139,"responses":{"age":"35","gender-categorical":"Female","gender-free-response":"","ethnicity":"Not Hispanic or Latino","race":["White"],"education":"Master degree or higher"},"survey":"demographics","trial_type":"survey-demo","trial_index":1,"time_elapsed":173779,"internal_node_id":"0.0-1.0","experiment":"validation","task_version":"1.1","jspsych_version":"6.3.1"},{"responses":{"Q06":"3","Q09":"2","Q07":"4","Q03":"1","Q05":"3","Q01":"3","Q08":"1","Q04":"2","Q02":"2","Q10":"2","Q11":"4"},"rt":60007.800000190735,"item_order":[5,8,6,2,4,0,7,3,1,9,10],"radio_events":[32363.800000190735,35477.800000190735,37667.699999809265,39827.699999809265,41707.199999809265,43151.59999990463,46277.90000009537,51241.5,52304.800000190735,55281.59999990463,56234.09999990463,59412.90000009537],"key_events":[],"mouse_events":[32363.800000190735,35477.800000190735,37667.699999809265,39827.699999809265,41707.199999809265,43151.59999990463,46277.90000009537,49777.800000190735,51241.5,52304.800000190735,53909.699999809265,54921.5,55281.59999990463,56234.09999990463,58989.800000190735,59412.90000009537,60005.59999990463],"straightlining":0.36363636363636365,"zigzagging":0.3,"honeypot":0,"survey":"neuroticism","trial_type":"survey-template","trial_index":2,"time_elapsed":233688,"internal_node_id":"0.0-2.0","experiment":"validation","task_version":"1.1","jspsych_version":"6.3.1","infrequency":0},{"responses":{"Q06":"3","Q04":"3","Q02":"2","Q07":"2","Q05":"3","Q01":"3","Q03":"4"},"rt":34188.90000009537,"item_order":[5,3,1,6,4,0,2],"radio_events":[6283.699999809265,12603.400000095367,16573.699999809265,19413.699999809265,29089.900000095367,30250.5,33329.7999997139],"key_events":[],"mouse_events":[6283.699999809265,12603.400000095367,16573.699999809265,19413.699999809265,29089.900000095367,30250.5,33329.7999997139,34187.699999809265],"straightlining":0.42857142857142855,"zigzagging":0.3333333333333333,"honeypot":0,"survey":"nfc6","trial_type":"survey-template","trial_index":3,"time_elapsed":267881,"internal_node_id":"0.0-3.0","experiment":"validation","task_version":"1.1","jspsych_version":"6.3.1","infrequency":0},{"responses":{"Q10":"4","Q09":"4","Q01":"3","Q06":"4","Q05":"0","Q11":"0","Q07":"4","Q03":"4","Q02":"4","Q04":"1","Q08":"4"},"rt":23429.199999809265,"item_order":[9,8,0,5,4,10,6,2,1,3,7],"radio_events":[2649.0999999046326,4549.299999713898,5885,9091,11261.299999713898,13227.299999713898,15099.199999809265,17003.199999809265,18617.5,20211.199999809265,22738.89999961853],"key_events":[],"mouse_events":[2649.0999999046326,4549.299999713898,5885,9091,11261.299999713898,13227.299999713898,15099.199999809265,17003.199999809265,18617.5,20211.199999809265,22738.89999961853,23427.39999961853],"straightlining":0.5454545454545454,"zigzagging":0.4,"honeypot":0,"survey":"openness","trial_type":"survey-template","trial_index":4,"time_elapsed":291266,"internal_node_id":"0.0-4.0","experiment":"validation","task_version":"1.1","jspsych_version":"6.3.1","infrequency":0},{"value":[0,1.3376623376623376,1.0333333333333332],"trial_type":"call-function","trial_index":5,"time_elapsed":291268,"internal_node_id":"0.0-5.0","experiment":"validation","task_version":"1.1","jspsych_version":"6.3.1","interactions":"[]"}]