[{"view_history":[{"page_index":0,"viewing_time":1140.9000000059605}],"rt":1141.300000011921,"trial_type":"instructions","trial_index":0,"time_elapsed":1150,"internal_node_id":"0.0-0.0","experiment":"validation","task_version":"1.1","jspsych_version":"6.3.1"},{"rt":6997.299999982119,"responses":{"age":"21","gender-categorical":"Female","gender-free-response":"","ethnicity":"Hispanic or Latino","race":["White"],"education":"Some college"},"survey":"demographics","trial_type":"survey-demo","trial_index":1,"time_elapsed":8150,"internal_node_id":"0.0-1.0","experiment":"validation","task_version":"1.1","jspsych_version":"6.3.1"},{"responses":{"Q08":"3","Q07":"4","Q02":"4","Q09":"4","Q01":"4","Q10":"2","Q04":"1","Q03":"2","Q06":"4","Q05":"1","Q11":"0"},"rt":30514.40000000596,"item_order":[7,6,1,8,0,9,3,2,5,4,10],"radio_events":[5015.5999999940395,6888.5,8394.5,10043.800000011921,12742.09999999404,15774.800000011921,19070.09999999404,21521.09999999404,23906.40000000596,25135.80000001192,26315.59999999404,28945.90000000596],"key_events":[],"mouse_events":[5015.5999999940395,6888.5,8394.5,10043.800000011921,12742.09999999404,15257.300000011921,15774.800000011921,19070.09999999404,21521.09999999404,23906.40000000596,25135.80000001192,26315.59999999404,28945.90000000596,30511.5],"straightlining":0.36363636363636365,"zigzagging":0.6,"honeypot":0,"survey":"openness","trial_type":"survey-template","trial_index":2,"time_elapsed":38672,"internal_node_id":"0.0-2.0","experiment":"validation","task_version":"1.1","jspsych_version":"6.3.1","infrequency":0},{"responses":{"Q06":"3","Q05":"3","Q07":"2","Q02":"3","Q04":"3","Q03":"3","Q01":"3"},"rt":43323.70000001788,"item_order":[5,4,6,1,3,2,0],"radio_events":[4404.200000017881,6060.300000011921,28117.20000001788,30912.80000001192,31706.100000023842,35267.5,39264.60000002384,40498.80000001192,42750.10000002384],"key_events":[],"mouse_events":[3345.9000000059605,4404.200000017881,6060.300000011921,25635.90000000596,28117.20000001788,28660.100000023842,30912.80000001192,31706.100000023842,35267.5,39264.60000002384,40498.80000001192,42202.90000000596,42750.10000002384,43322],"straightlining":0.5714285714285714,"zigzagging":0.3333333333333333,"honeypot":0,"survey":"nfc6","trial_type":"survey-template","trial_index":3,"time_elapsed":82000,"internal_node_id":"0.0-3.0","experiment":"validation","task_version":"1.1","jspsych_version":"6.3.1","infrequency":0},{"responses":{"Q06":"2","Q04":"3","Q01":"3","Q05":"2","Q07":"3","Q08":"3","Q02":"3","Q10":"3","Q11":"4","Q09":"3","Q03":"3"},"rt":26598.40000000596,"item_order":[5,3,0,4,6,7,1,9,10,8,2],"radio_events":[3620.9000000059605,4616.300000011921,5875.200000017881,8430.100000023842,9416,12396.800000011921,17265.600000023842,18051.70000001788,19754.600000023842,22477.90000000596,23630.600000023842,25203.600000023842],"key_events":[],"mouse_events":[3620.9000000059605,4616.300000011921,5875.200000017881,8430.100000023842,9416,12396.800000011921,15763.100000023842,17265.600000023842,18051.70000001788,19754.600000023842,22477.90000000596,23630.600000023842,25203.600000023842,26595.600000023842],"straightlining":0.36363636363636365,"zigzagging":0.3,"honeypot":0,"survey":"neuroticism","trial_type":"survey-template","trial_index":4,"time_elapsed":108604,"internal_node_id":"0.0-4.0","experiment":"validation","task_version":"1.1","jspsych_version":"6.3.1","infrequency":0},{"value":[0,1.2987012987012987,1.2333333333333334],"trial_type":"call-function","trial_index":5,"time_elapsed":108608,"internal_node_id":"0.0-5.0","experiment":"validation","task_version":"1.1","jspsych_version":"6.3.1","interactions":"[{\"event\":\"blur\",\"trial\":3,\"time\":49816},{\"event\":\"focus\",\"trial\":3,\"time\":60096}]"}]