[{"view_history":[{"page_index":0,"viewing_time":3968.60000000149}],"rt":3969.89999999851,"trial_type":"instructions","trial_index":0,"time_elapsed":3987,"internal_node_id":"0.0-0.0","experiment":"validation","task_version":"1.1","jspsych_version":"6.3.1"},{"rt":14800.79999999702,"responses":{"age":"35","gender-categorical":"Female","gender-free-response":"","ethnicity":"Hispanic or Latino","race":["Rather not say"],"education":"High school"},"survey":"demographics","trial_type":"survey-demo","trial_index":1,"time_elapsed":18794,"internal_node_id":"0.0-1.0","experiment":"validation","task_version":"1.1","jspsych_version":"6.3.1"},{"responses":{"Q01":"1","Q06":"3","Q07":"2","Q04":"0","Q03":"1","Q02":"1","Q05":"2"},"rt":29696,"item_order":[0,5,6,3,2,1,4],"radio_events":[4964.4000000059605,11293.90000000596,13586.10000000149,17532.90000000596,21653.20000000298,25429.20000000298,28641.10000000149],"key_events":[],"mouse_events":[4964.4000000059605,11293.90000000596,13586.10000000149,17532.90000000596,21653.20000000298,25429.20000000298,28641.10000000149,29693],"straightlining":0.2857142857142857,"zigzagging":0.5,"honeypot":0,"survey":"nfc6","trial_type":"survey-template","trial_index":2,"time_elapsed":48501,"internal_node_id":"0.0-2.0","experiment":"validation","task_version":"1.1","jspsych_version":"6.3.1","infrequency":0},{"responses":{"Q04":"4","Q02":"0","Q01":"2","Q11":"4","Q10":"0","Q08":"0","Q06":"4","Q05":"4","Q03":"3","Q07":"4","Q09":"4"},"rt":27114.10000000149,"item_order":[3,1,0,10,9,7,5,4,2,6,8],"radio_events":[3612.39999999851,5235,6705,10550,12125.80000000447,13074.80000000447,16684.30000000447,18569.5,20989.60000000149,22951.70000000298,25951],"key_events":[],"mouse_events":[3612.39999999851,5235,6705,10550,12125.80000000447,13074.80000000447,15558.39999999851,16684.30000000447,18569.5,20989.60000000149,22951.70000000298,25951,27110.39999999851],"straightlining":0.45454545454545453,"zigzagging":0.4,"honeypot":0,"survey":"neuroticism","trial_type":"survey-template","trial_index":3,"time_elapsed":75624,"internal_node_id":"0.0-3.0","experiment":"validation","task_version":"1.1","jspsych_version":"6.3.1","infrequency":0},{"responses":{"Q07":"3","Q01":"3","Q04":"2","Q09":"4","Q02":"4","Q03":"2","Q06":"1","Q08":"1","Q10":"2","Q05":"1","Q11":"0"},"rt":29763.10000000149,"item_order":[6,0,3,8,1,2,5,7,9,4,10],"radio_events":[2623,4832.80000000447,7436.10000000149,10333.40000000596,11968.70000000298,14207.80000000447,18035,19602.20000000298,21179.90000000596,24964,28810],"key_events":[],"mouse_events":[2623,4832.80000000447,7436.10000000149,10333.40000000596,11968.70000000298,14207.80000000447,18035,19602.20000000298,21179.90000000596,24964,28810,29760.10000000149],"straightlining":0.36363636363636365,"zigzagging":0.5,"honeypot":0,"survey":"openness","trial_type":"survey-template","trial_index":4,"time_elapsed":105394,"internal_node_id":"0.0-4.0","experiment":"validation","task_version":"1.1","jspsych_version":"6.3.1","infrequency":0},{"value":[0,1.103896103896104,1.4],"trial_type":"call-function","trial_index":5,"time_elapsed":105398,"internal_node_id":"0.0-5.0","experiment":"validation","task_version":"1.1","jspsych_version":"6.3.1","interactions":"[]"}]