[{"view_history":[{"page_index":0,"viewing_time":4541.5}],"rt":4542.199999988079,"trial_type":"instructions","trial_index":0,"time_elapsed":4563,"internal_node_id":"0.0-0.0","experiment":"validation","task_version":"1.1","jspsych_version":"6.3.1"},{"rt":30422.900000035763,"responses":{"age":"23","gender-categorical":"Female","gender-free-response":"","ethnicity":"Not Hispanic or Latino","race":["Asian","Black or African American"],"education":"Bachelor degree"},"survey":"demographics","trial_type":"survey-demo","trial_index":1,"time_elapsed":34996,"internal_node_id":"0.0-1.0","experiment":"validation","task_version":"1.1","jspsych_version":"6.3.1"},{"responses":{"Q01":"3","Q06":"3","Q04":"1","Q02":"3","Q05":"3","Q07":"2","Q03":"3"},"rt":41964.30000001192,"item_order":[0,5,3,1,4,6,2],"radio_events":[11765.800000011921,16686.599999964237,25908.19999998808,30470.69999998808,32320.899999976158,34370.5,38150.19999998808],"key_events":[],"mouse_events":[11765.800000011921,16686.599999964237,25908.19999998808,30470.69999998808,32320.899999976158,34370.5,38150.19999998808,41962.39999997616],"straightlining":0.7142857142857143,"zigzagging":0.3333333333333333,"honeypot":0,"survey":"nfc6","trial_type":"survey-template","trial_index":2,"time_elapsed":76968,"internal_node_id":"0.0-2.0","experiment":"validation","task_version":"1.1","jspsych_version":"6.3.1","infrequency":0},{"responses":{"Q10":"4","Q09":"4","Q11":"0","Q02":"3","Q04":"1","Q03":"4","Q01":"4","Q06":"3","Q08":"3","Q05":"1","Q07":"4"},"rt":68837.19999998808,"item_order":[9,8,10,1,3,2,0,5,7,4,6],"radio_events":[6022.199999988079,9121.100000023842,12364.100000023842,17376.80000001192,25285.30000001192,29361.100000023842,34894.80000001192,40155.69999998808,54047.39999997616,55824.60000002384,62799.60000002384],"key_events":[],"mouse_events":[6022.199999988079,9121.100000023842,12364.100000023842,17376.80000001192,25285.30000001192,29361.100000023842,34894.80000001192,39034.69999998808,40155.69999998808,48085.60000002384,54047.39999997616,55824.60000002384,62799.60000002384,68834.80000001192],"straightlining":0.36363636363636365,"zigzagging":0.1,"honeypot":0,"survey":"openness","trial_type":"survey-template","trial_index":3,"time_elapsed":145812,"internal_node_id":"0.0-3.0","experiment":"validation","task_version":"1.1","jspsych_version":"6.3.1","infrequency":0},{"responses":{"Q07":"3","Q11":"4","Q06":"3","Q04":"3","Q03":"2","Q08":"1","Q02":"3","Q09":"3","Q10":"1","Q05":"4","Q01":"2"},"rt":72098.5,"item_order":[6,10,5,3,2,7,1,8,9,4,0],"radio_events":[5019.800000011921,7526.300000011921,11266.699999988079,13724.699999988079,18601.100000023842,19770,26700.5,28902.69999998808,32946,40396.5,51190.19999998808,54737.5,59860.90000003576,64520.80000001192],"key_events":[],"mouse_events":[5019.800000011921,7526.300000011921,11266.699999988079,13724.699999988079,16102.900000035763,17495.900000035763,18601.100000023842,19770,26700.5,28902.69999998808,30095.5,31104.19999998808,31760.80000001192,32946,40396.5,46666.90000003576,50430.80000001192,51190.19999998808,54737.5,59860.90000003576,64520.80000001192,72095.80000001192],"straightlining":0.36363636363636365,"zigzagging":0.3,"honeypot":0,"survey":"neuroticism","trial_type":"survey-template","trial_index":4,"time_elapsed":217918,"internal_node_id":"0.0-4.0","experiment":"validation","task_version":"1.1","jspsych_version":"6.3.1","infrequency":0},{"value":[0,1.4415584415584415,0.7333333333333334],"trial_type":"call-function","trial_index":5,"time_elapsed":217921,"internal_node_id":"0.0-5.0","experiment":"validation","task_version":"1.1","jspsych_version":"6.3.1","interactions":"[]"}]