[{"view_history":[{"page_index":0,"viewing_time":3474.800000190735}],"rt":3475.0999994277954,"trial_type":"instructions","trial_index":0,"time_elapsed":3509,"internal_node_id":"0.0-0.0","experiment":"validation","task_version":"1.1","jspsych_version":"6.3.1"},{"rt":17738.60000038147,"responses":{"age":"37","gender-categorical":"Male","gender-free-response":"","ethnicity":"Not Hispanic or Latino","race":["White"],"education":"Bachelor degree"},"survey":"demographics","trial_type":"survey-demo","trial_index":1,"time_elapsed":21252,"internal_node_id":"0.0-1.0","experiment":"validation","task_version":"1.1","jspsych_version":"6.3.1"},{"responses":{"Q03":"3","Q04":"3","Q05":"3","Q01":"2","Q02":"2","Q07":"2","Q06":"3"},"rt":50271.10000038147,"item_order":[2,3,4,0,1,6,5],"radio_events":[6707.900000572205,13613.60000038147,19365.900000572205,21373.60000038147,23633.699999809265,27918.10000038147,30713.699999809265,44149.5,49487.900000572205],"key_events":[],"mouse_events":[6707.900000572205,13613.60000038147,19365.900000572205,21373.60000038147,23633.699999809265,27918.10000038147,30713.699999809265,44149.5,49487.900000572205,50269.5],"straightlining":0.42857142857142855,"zigzagging":0.3333333333333333,"honeypot":0,"survey":"nfc6","trial_type":"survey-template","trial_index":2,"time_elapsed":71531,"internal_node_id":"0.0-2.0","experiment":"validation","task_version":"1.1","jspsych_version":"6.3.1","infrequency":0},{"responses":{"Q09":"0","Q03":"0","Q01":"0","Q02":"0","Q11":"4","Q08":"0","Q05":"0","Q10":"1","Q06":"0","Q04":"0","Q07":"0"},"rt":38681.400000572205,"item_order":[8,2,0,1,10,7,4,9,5,3,6],"radio_events":[12380.10000038147,14610,15531.800000190735,16574.20000076294,19765.900000572205,21013.800000190735,26577.60000038147,28082.20000076294,31197.800000190735,35035.70000076294,37249.800000190735],"key_events":[],"mouse_events":[12380.10000038147,14610,15531.800000190735,16574.20000076294,19765.900000572205,21013.800000190735,26577.60000038147,28082.20000076294,31197.800000190735,35035.70000076294,37249.800000190735,38679.70000076294],"straightlining":0.45454545454545453,"zigzagging":0.6,"honeypot":0,"survey":"neuroticism","trial_type":"survey-template","trial_index":3,"time_elapsed":110217,"internal_node_id":"0.0-3.0","experiment":"validation","task_version":"1.1","jspsych_version":"6.3.1","infrequency":0},{"responses":{"Q06":"3","Q03":"4","Q11":"0","Q01":"4","Q07":"4","Q05":"0","Q04":"1","Q08":"4","Q09":"4","Q10":"4","Q02":"4"},"rt":45147.800000190735,"item_order":[5,2,10,0,6,4,3,7,8,9,1],"radio_events":[14571.800000190735,17049.900000572205,21159.900000572205,24251.70000076294,26583.60000038147,28731.800000190735,31416.300000190735,35383.900000572205,40117.800000190735,41727.70000076294,44323.70000076294],"key_events":[],"mouse_events":[14571.800000190735,17049.900000572205,21159.900000572205,24251.70000076294,26583.60000038147,28731.800000190735,31416.300000190735,35383.900000572205,40117.800000190735,41727.70000076294,44323.70000076294,45145.900000572205],"straightlining":0.45454545454545453,"zigzagging":0.6,"honeypot":0,"survey":"openness","trial_type":"survey-template","trial_index":4,"time_elapsed":155370,"internal_node_id":"0.0-4.0","experiment":"validation","task_version":"1.1","jspsych_version":"6.3.1","infrequency":0},{"value":[0,1.3376623376623376,1.5333333333333332],"trial_type":"call-function","trial_index":5,"time_elapsed":155372,"internal_node_id":"0.0-5.0","experiment":"validation","task_version":"1.1","jspsych_version":"6.3.1","interactions":"[]"}]