[{"view_history":[{"page_index":0,"viewing_time":1882.7000000029802}],"rt":1883,"trial_type":"instructions","trial_index":0,"time_elapsed":1901,"internal_node_id":"0.0-0.0","experiment":"validation","task_version":"1.1","jspsych_version":"6.3.1"},{"rt":17438.29999999702,"responses":{"age":"25","gender-categorical":"Male","gender-free-response":"","ethnicity":"Not Hispanic or Latino","race":["White"],"education":"Bachelor degree"},"survey":"demographics","trial_type":"survey-demo","trial_index":1,"time_elapsed":19342,"internal_node_id":"0.0-1.0","experiment":"validation","task_version":"1.1","jspsych_version":"6.3.1"},{"responses":{"Q03":"1","Q04":"1","Q09":"4","Q11":"0","Q05":"1","Q02":"2","Q01":"1","Q10":"1","Q08":"2","Q07":"1","Q06":"1"},"rt":26723,"item_order":[2,3,8,10,4,1,0,9,7,6,5],"radio_events":[2758.5999999940395,5468.5999999940395,7449.5999999940395,9453,12770.89999999106,14841.20000000298,17001.89999999106,18093.09999999404,19711.09999999404,22086.29999999702,25990.20000000298],"key_events":[],"mouse_events":[2758.5999999940395,5468.5999999940395,7449.5999999940395,9453,12770.89999999106,14841.20000000298,17001.89999999106,18093.09999999404,19711.09999999404,22086.29999999702,24979.39999999106,25990.20000000298,26721.09999999404],"straightlining":0.45454545454545453,"zigzagging":0.4,"honeypot":0,"survey":"openness","trial_type":"survey-template","trial_index":2,"time_elapsed":46073,"internal_node_id":"0.0-2.0","experiment":"validation","task_version":"1.1","jspsych_version":"6.3.1","infrequency":0},{"responses":{"Q04":"2","Q02":"2","Q05":"2","Q07":"2","Q06":"2","Q03":"2","Q01":"2"},"rt":11433.90000000596,"item_order":[3,1,4,6,5,2,0],"radio_events":[2691.0999999940395,4266.29999999702,6030.9000000059605,6516.29999999702,8327.59999999404,9349.79999999702,10667.29999999702],"key_events":[],"mouse_events":[2691.0999999940395,3476.7999999970198,4266.29999999702,5582.0999999940395,6030.9000000059605,6516.29999999702,7281,8327.59999999404,8789.20000000298,9349.79999999702,10339.5,10667.29999999702,11432.90000000596],"straightlining":1,"zigzagging":0,"honeypot":0,"survey":"nfc6","trial_type":"survey-template","trial_index":3,"time_elapsed":57513,"internal_node_id":"0.0-3.0","experiment":"validation","task_version":"1.1","jspsych_version":"6.3.1","infrequency":0},{"responses":{"Q05":"2","Q08":"2","Q03":"2","Q01":"2","Q04":"2","Q06":"2","Q09":"2","Q02":"2","Q11":"2","Q10":"2","Q07":"2"},"rt":17836.90000000596,"item_order":[4,7,2,0,3,5,8,1,10,9,6],"radio_events":[1645.7000000029802,2467.7000000029802,6177.9000000059605,7585.600000008941,8170.100000008941,8732.90000000596,11602.20000000298,13222.10000000894,15437.60000000894,16203.90000000596,17126.20000000298],"key_events":[],"mouse_events":[1645.7000000029802,2467.7000000029802,3277.1000000089407,6177.9000000059605,6775.9000000059605,7170.100000008941,7585.600000008941,8170.100000008941,8732.90000000596,11602.20000000298,12580.20000000298,13222.10000000894,13853,14291.5,15000.5,15437.60000000894,15899.300000011921,16203.90000000596,17126.20000000298,17835.40000000596],"straightlining":1,"zigzagging":0,"honeypot":0,"survey":"neuroticism","trial_type":"survey-template","trial_index":4,"time_elapsed":75357,"internal_node_id":"0.0-4.0","experiment":"validation","task_version":"1.1","jspsych_version":"6.3.1","infrequency":1},{"value":[1,2.4545454545454546,0.4],"trial_type":"call-function","trial_index":5,"time_elapsed":75362,"internal_node_id":"0.0-5.0","experiment":"validation","task_version":"1.1","jspsych_version":"6.3.1","interactions":"[]"}]