[{"view_history":[{"page_index":0,"viewing_time":5771}],"rt":5772,"trial_type":"instructions","trial_index":0,"time_elapsed":5778,"internal_node_id":"0.0-0.0","experiment":"validation","task_version":"1.1","jspsych_version":"6.3.1"},{"rt":32520,"responses":{"age":"30","gender-categorical":"Female","gender-free-response":"","ethnicity":"Not Hispanic or Latino","race":["White"],"education":"Bachelor degree"},"survey":"demographics","trial_type":"survey-demo","trial_index":1,"time_elapsed":38300,"internal_node_id":"0.0-1.0","experiment":"validation","task_version":"1.1","jspsych_version":"6.3.1"},{"responses":{"Q03":"4","Q04":"1","Q08":"4","Q02":"4","Q06":"4","Q10":"4","Q05":"0","Q07":"4","Q01":"4","Q11":"0","Q09":"4"},"rt":49484,"item_order":[2,3,7,1,5,9,4,6,0,10,8],"radio_events":[5739,17311,21625,26167.999999999993,27795,30251.000000000015,32923,35789,36791,39042,42205,44547],"key_events":[],"mouse_events":[5739,17311,21625,26167.999999999993,27795,30251.000000000015,31797,32923,34863,35789,36791,39042,42205,44547,49476],"straightlining":0.5454545454545454,"zigzagging":0.7,"honeypot":0,"survey":"openness","trial_type":"survey-template","trial_index":2,"time_elapsed":87790,"internal_node_id":"0.0-2.0","experiment":"validation","task_version":"1.1","jspsych_version":"6.3.1","infrequency":0},{"responses":{"Q08":"1","Q05":"4","Q03":"4","Q02":"3","Q11":"4","Q07":"4","Q04":"4","Q06":"4","Q10":"1","Q09":"4","Q01":"4"},"rt":30375,"item_order":[7,4,2,1,10,6,3,5,9,8,0],"radio_events":[3914,4817,6624,9131,11901.000000000015,13756,15449,19747,21923,24938,26803.000000000015],"key_events":[],"mouse_events":[3914,4817,6624,9131,11901.000000000015,13756,15449,17856,19747,21923,24938,26803.000000000015,30369],"straightlining":0.45454545454545453,"zigzagging":0.7,"honeypot":0,"survey":"neuroticism","trial_type":"survey-template","trial_index":3,"time_elapsed":118171,"internal_node_id":"0.0-3.0","experiment":"validation","task_version":"1.1","jspsych_version":"6.3.1","infrequency":0},{"responses":{"Q02":"4","Q01":"3","Q07":"2","Q06":"1","Q03":"3","Q05":"3","Q04":"3"},"rt":78156.99999999999,"item_order":[1,0,6,5,2,4,3],"radio_events":[47719.000000000015,50249.999999999985,53091.999999999985,59958.999999999985,63557.999999999985,70399.99999999999,76231.99999999999],"key_events":[],"mouse_events":[47719.000000000015,50249.999999999985,53091.999999999985,59958.999999999985,63557.999999999985,70399.99999999999,76231.99999999999,78152.99999999999],"straightlining":0.42857142857142855,"zigzagging":0.5,"honeypot":0,"survey":"nfc6","trial_type":"survey-template","trial_index":4,"time_elapsed":196332,"internal_node_id":"0.0-4.0","experiment":"validation","task_version":"1.1","jspsych_version":"6.3.1","infrequency":0},{"value":[0,1.4285714285714286,1.9],"trial_type":"call-function","trial_index":5,"time_elapsed":196336,"internal_node_id":"0.0-5.0","experiment":"validation","task_version":"1.1","jspsych_version":"6.3.1","interactions":"[{\"event\":\"blur\",\"trial\":4,\"time\":124308},{\"event\":\"focus\",\"trial\":4,\"time\":126014},{\"event\":\"focus\",\"trial\":4,\"time\":126017},{\"event\":\"blur\",\"trial\":4,\"time\":129654},{\"event\":\"focus\",\"trial\":4,\"time\":131485},{\"event\":\"focus\",\"trial\":4,\"time\":131488},{\"event\":\"blur\",\"trial\":4,\"time\":132914},{\"event\":\"focus\",\"trial\":4,\"time\":138883},{\"event\":\"focus\",\"trial\":4,\"time\":140029}]"}]