[{"view_history":[{"page_index":0,"viewing_time":3402.4000000953674}],"rt":3404.4000000953674,"trial_type":"instructions","trial_index":0,"time_elapsed":3423,"internal_node_id":"0.0-0.0","experiment":"validation","task_version":"1.1","jspsych_version":"6.3.1"},{"rt":14635.599999904633,"responses":{"age":"37","gender-categorical":"Male","gender-free-response":"","ethnicity":"Not Hispanic or Latino","race":["White"],"education":"Bachelor degree"},"survey":"demographics","trial_type":"survey-demo","trial_index":1,"time_elapsed":18063,"internal_node_id":"0.0-1.0","experiment":"validation","task_version":"1.1","jspsych_version":"6.3.1"},{"responses":{"Q07":"3","Q11":"4","Q09":"3","Q04":"3","Q05":"2","Q10":"2","Q08":"2","Q06":"3","Q01":"3","Q03":"3","Q02":"2"},"rt":39383.09999990463,"item_order":[6,10,8,3,4,9,7,5,0,2,1],"radio_events":[8708.900000095367,10415.800000190735,13240,18951.200000286102,21825,23588.5,25054.300000190735,26697.200000286102,32586.099999904633,35773.7000002861,38440.90000009537],"key_events":[],"mouse_events":[8708.900000095367,10415.800000190735,13240,18951.200000286102,21825,23588.5,25054.300000190735,26697.200000286102,30530.900000095367,31562.300000190735,32586.099999904633,35773.7000002861,37501.90000009537,38440.90000009537,39379.90000009537],"straightlining":0.36363636363636365,"zigzagging":0.3,"honeypot":0,"survey":"neuroticism","trial_type":"survey-template","trial_index":2,"time_elapsed":57460,"internal_node_id":"0.0-2.0","experiment":"validation","task_version":"1.1","jspsych_version":"6.3.1","infrequency":0},{"responses":{"Q04":"2","Q03":"4","Q01":"4","Q02":"4","Q09":"4","Q08":"4","Q07":"4","Q05":"0","Q11":"0","Q06":"4","Q10":"4"},"rt":38646.90000009537,"item_order":[3,2,0,1,8,7,6,4,10,5,9],"radio_events":[6806.800000190735,10433.900000095367,15178.5,16401.900000095367,19502.60000038147,22162.700000286102,24219.10000038147,26750.200000286102,31644,35556,37355.10000038147],"key_events":[],"mouse_events":[6806.800000190735,10433.900000095367,12134.300000190735,13599.60000038147,15178.5,16401.900000095367,19502.60000038147,20910.800000190735,22162.700000286102,24219.10000038147,26750.200000286102,30299.800000190735,31644,35556,37355.10000038147,38643.5],"straightlining":0.5454545454545454,"zigzagging":0.3,"honeypot":0,"survey":"openness","trial_type":"survey-template","trial_index":3,"time_elapsed":96116,"internal_node_id":"0.0-3.0","experiment":"validation","task_version":"1.1","jspsych_version":"6.3.1","infrequency":0},{"responses":{"Q05":"3","Q03":"4","Q06":"3","Q02":"2","Q04":"3","Q07":"2","Q01":"3"},"rt":44536.699999809265,"item_order":[4,2,5,1,3,6,0],"radio_events":[5821.900000095367,9732.900000095367,18461.099999904633,27486.299999713898,29740.299999713898,36035.59999990463,40309.5,43567.7999997139],"key_events":[],"mouse_events":[5821.900000095367,8843.799999713898,9732.900000095367,18461.099999904633,26540.099999904633,27486.299999713898,29093,29740.299999713898,36035.59999990463,39598.40000009537,40309.5,43567.7999997139,44534.2999997139],"straightlining":0.42857142857142855,"zigzagging":0.6666666666666666,"honeypot":0,"survey":"nfc6","trial_type":"survey-template","trial_index":4,"time_elapsed":140660,"internal_node_id":"0.0-4.0","experiment":"validation","task_version":"1.1","jspsych_version":"6.3.1","infrequency":0},{"value":[0,1.3376623376623376,1.2666666666666666],"trial_type":"call-function","trial_index":5,"time_elapsed":140663,"internal_node_id":"0.0-5.0","experiment":"validation","task_version":"1.1","jspsych_version":"6.3.1","interactions":"[]"}]