[{"view_history":[{"page_index":0,"viewing_time":4713.29999999702}],"rt":4714.29999999702,"trial_type":"instructions","trial_index":0,"time_elapsed":4735,"internal_node_id":"0.0-0.0","experiment":"validation","task_version":"1.1","jspsych_version":"6.3.1"},{"rt":10811.80000000447,"responses":{"age":"46","gender-categorical":"Male","gender-free-response":"","ethnicity":"Not Hispanic or Latino","race":["White"],"education":"Master degree or higher"},"survey":"demographics","trial_type":"survey-demo","trial_index":1,"time_elapsed":15550,"internal_node_id":"0.0-1.0","experiment":"validation","task_version":"1.1","jspsych_version":"6.3.1"},{"responses":{"Q10":"1","Q02":"0","Q06":"1","Q07":"0","Q09":"0","Q05":"1","Q08":"0","Q11":"4","Q04":"0","Q03":"0","Q01":"1"},"rt":36584.10000000149,"item_order":[9,1,5,6,8,4,7,10,3,2,0],"radio_events":[2906.8000000044703,8445,15262.70000000298,18852.90000000596,20824.30000000447,24100.60000000149,25364.80000000447,28740.10000000149,30123,31350.90000000596,35418.40000000596],"key_events":[],"mouse_events":[2906.8000000044703,8445,14651,15262.70000000298,18852.90000000596,20824.30000000447,22370.80000000447,24100.60000000149,25364.80000000447,26487,28740.10000000149,30123,31350.90000000596,35418.40000000596,36582.40000000596],"straightlining":0.36363636363636365,"zigzagging":0.3,"honeypot":0,"survey":"neuroticism","trial_type":"survey-template","trial_index":2,"time_elapsed":52139,"internal_node_id":"0.0-2.0","experiment":"validation","task_version":"1.1","jspsych_version":"6.3.1","infrequency":0},{"responses":{"Q08":"4","Q03":"2","Q09":"3","Q02":"3","Q06":"3","Q10":"2","Q05":"0","Q04":"0","Q01":"4","Q11":"0","Q07":"4"},"rt":31260.5,"item_order":[7,2,8,1,5,9,4,3,0,10,6],"radio_events":[4981,6666.89999999851,8854.69999999553,10730.39999999851,13728.5,15933.5,18582.39999999851,20822.69999999553,22678.59999999404,24762.59999999404,26532.39999999851,29027.59999999404],"key_events":[],"mouse_events":[3718.5999999940395,4981,6666.89999999851,8854.69999999553,10730.39999999851,13728.5,15933.5,18582.39999999851,20822.69999999553,22678.59999999404,24762.59999999404,26532.39999999851,29027.59999999404,31259],"straightlining":0.2727272727272727,"zigzagging":0.3,"honeypot":0,"survey":"openness","trial_type":"survey-template","trial_index":3,"time_elapsed":83403,"internal_node_id":"0.0-3.0","experiment":"validation","task_version":"1.1","jspsych_version":"6.3.1","infrequency":0},{"responses":{"Q03":"4","Q02":"3","Q06":"3","Q04":"1","Q07":"2","Q01":"3","Q05":"3"},"rt":23811.89999999851,"item_order":[2,1,5,3,6,0,4],"radio_events":[6653.5999999940395,8456.89999999851,10016.59999999404,13355.79999999702,14298.69999999553,18721.79999999702,21281.69999999553],"key_events":[],"mouse_events":[4919.0999999940395,6653.5999999940395,8456.89999999851,9338.89999999851,10016.59999999404,10891,12572.89999999851,13355.79999999702,14298.69999999553,18721.79999999702,20426.69999999553,21281.69999999553,23810.89999999851],"straightlining":0.7142857142857143,"zigzagging":0.3333333333333333,"honeypot":0,"survey":"nfc6","trial_type":"survey-template","trial_index":4,"time_elapsed":107218,"internal_node_id":"0.0-4.0","experiment":"validation","task_version":"1.1","jspsych_version":"6.3.1","infrequency":0},{"value":[0,1.3506493506493507,0.9333333333333333],"trial_type":"call-function","trial_index":5,"time_elapsed":107220,"internal_node_id":"0.0-5.0","experiment":"validation","task_version":"1.1","jspsych_version":"6.3.1","interactions":"[{\"event\":\"blur\",\"trial\":2,\"time\":21167},{\"event\":\"focus\",\"trial\":2,\"time\":23897},{\"event\":\"focus\",\"trial\":2,\"time\":23898}]"}]