[{"view_history":[{"page_index":0,"viewing_time":7882.5999999996275}],"rt":7883.5999999996275,"trial_type":"instructions","trial_index":0,"time_elapsed":7902,"internal_node_id":"0.0-0.0","experiment":"validation","task_version":"1.1","jspsych_version":"6.3.1"},{"rt":14876.399999999441,"responses":{"age":"70","gender-categorical":"Male","gender-free-response":"","ethnicity":"Not Hispanic or Latino","race":["White"],"education":"Master degree or higher"},"survey":"demographics","trial_type":"survey-demo","trial_index":1,"time_elapsed":22782,"internal_node_id":"0.0-1.0","experiment":"validation","task_version":"1.1","jspsych_version":"6.3.1"},{"responses":{"Q02":"3","Q04":"3","Q05":"3","Q07":"2","Q06":"3","Q01":"3","Q03":"3"},"rt":35014.5,"item_order":[1,3,4,6,5,0,2],"radio_events":[6615.700000000186,13105,17377.299999999814,20629.299999999814,26305.099999999627,29106.799999999814,34015],"key_events":[],"mouse_events":[6615.700000000186,13105,17377.299999999814,20629.299999999814,26305.099999999627,29106.799999999814,32909,34015,35013.40000000037],"straightlining":0.5714285714285714,"zigzagging":0.3333333333333333,"honeypot":0,"survey":"nfc6","trial_type":"survey-template","trial_index":2,"time_elapsed":57801,"internal_node_id":"0.0-2.0","experiment":"validation","task_version":"1.1","jspsych_version":"6.3.1","infrequency":0},{"responses":{"Q06":"1","Q09":"0","Q01":"0","Q08":"0","Q07":"0","Q04":"0","Q10":"2","Q11":"4","Q03":"0","Q05":"0","Q02":"0"},"rt":48453.09999999963,"item_order":[5,8,0,7,6,3,9,10,2,4,1],"radio_events":[5552.5999999996275,9670.299999999814,12690.599999999627,15098.5,17396.39999999944,22172.200000000186,27274.200000000186,30022.099999999627,33620.200000000186,34239.89999999944,34874],"key_events":[],"mouse_events":[5552.5999999996275,9670.299999999814,12690.599999999627,15098.5,17396.39999999944,20292.099999999627,22172.200000000186,27274.200000000186,30022.099999999627,33620.200000000186,34239.89999999944,34874,48451.799999999814],"straightlining":0.45454545454545453,"zigzagging":0.5,"honeypot":0,"survey":"neuroticism","trial_type":"survey-template","trial_index":3,"time_elapsed":106258,"internal_node_id":"0.0-3.0","experiment":"validation","task_version":"1.1","jspsych_version":"6.3.1","infrequency":0},{"responses":{"Q04":"1","Q07":"4","Q08":"1","Q05":"1","Q11":"0","Q10":"4","Q01":"4","Q09":"4","Q02":"4","Q03":"4","Q06":"1"},"rt":59009.59999999963,"item_order":[3,6,7,4,10,9,0,8,1,2,5],"radio_events":[8765.200000000186,13293.099999999627,17799.099999999627,22607.099999999627,24882.89999999944,27204.89999999944,28340.799999999814,29828.89999999944,33048.700000000186,36794.89999999944,39712.5,43234.59999999963,56584.200000000186],"key_events":[],"mouse_events":[6373.200000000186,8765.200000000186,13293.099999999627,16916.89999999944,17799.099999999627,21785.099999999627,22607.099999999627,24882.89999999944,27204.89999999944,28340.799999999814,29828.89999999944,33048.700000000186,36794.89999999944,39712.5,43234.59999999963,43976.59999999963,45988.89999999944,56584.200000000186,59008.299999999814],"straightlining":0.36363636363636365,"zigzagging":0.4,"honeypot":0,"survey":"openness","trial_type":"survey-template","trial_index":4,"time_elapsed":165272,"internal_node_id":"0.0-4.0","experiment":"validation","task_version":"1.1","jspsych_version":"6.3.1","infrequency":0},{"value":[0,1.3896103896103895,1.2333333333333334],"trial_type":"call-function","trial_index":5,"time_elapsed":165274,"internal_node_id":"0.0-5.0","experiment":"validation","task_version":"1.1","jspsych_version":"6.3.1","interactions":"[]"}]