[{"view_history":[{"page_index":0,"viewing_time":136906.29999999702}],"rt":136907,"trial_type":"instructions","trial_index":0,"time_elapsed":136918,"internal_node_id":"0.0-0.0","experiment":"validation","task_version":"1.1","jspsych_version":"6.3.1"},{"rt":86048.89999999851,"responses":{"age":"36","gender-categorical":"Female","gender-free-response":"","ethnicity":"Not Hispanic or Latino","race":["White"],"education":"High school"},"survey":"demographics","trial_type":"survey-demo","trial_index":1,"time_elapsed":222975,"internal_node_id":"0.0-1.0","experiment":"validation","task_version":"1.1","jspsych_version":"6.3.1"},{"responses":{"Q02":"3","Q07":"2","Q05":"3","Q06":"3","Q03":"4","Q04":"4","Q01":"3"},"rt":35770.5,"item_order":[1,6,4,5,2,3,0],"radio_events":[9105.19999999553,10436.89999999851,16116,18612.29999999702,23678.69999999553,28914.19999999553,31069.29999999702],"key_events":[],"mouse_events":[8184.79999999702,9105.19999999553,10436.89999999851,16116,18612.29999999702,23678.69999999553,28914.19999999553,31069.29999999702,35759.59999999404],"straightlining":0.5714285714285714,"zigzagging":0.3333333333333333,"honeypot":0,"survey":"nfc6","trial_type":"survey-template","trial_index":2,"time_elapsed":258753,"internal_node_id":"0.0-2.0","experiment":"validation","task_version":"1.1","jspsych_version":"6.3.1","infrequency":0},{"responses":{"Q09":"4","Q04":"1","Q03":"0","Q05":"0","Q07":"4","Q02":"4","Q11":"0","Q08":"4","Q10":"2","Q01":"4","Q06":"4"},"rt":28481.19999999553,"item_order":[8,3,2,4,6,1,10,7,9,0,5],"radio_events":[2556.5999999940395,5322.89999999851,7357,8652.69999999553,11849.19999999553,13124.59999999404,17126.79999999702,17791.39999999851,19615.59999999404,21410.59999999404,24870.19999999553,26280],"key_events":[],"mouse_events":[2556.5999999940395,5322.89999999851,6349.39999999851,7357,8652.69999999553,9853.59999999404,11258,11849.19999999553,13124.59999999404,15961.39999999851,17126.79999999702,17791.39999999851,19615.59999999404,20853.69999999553,21410.59999999404,24870.19999999553,26280,28474.5],"straightlining":0.5454545454545454,"zigzagging":0.5,"honeypot":0,"survey":"openness","trial_type":"survey-template","trial_index":3,"time_elapsed":287242,"internal_node_id":"0.0-3.0","experiment":"validation","task_version":"1.1","jspsych_version":"6.3.1","infrequency":0},{"responses":{"Q03":"0","Q05":"0","Q06":"4","Q01":"0","Q10":"0","Q09":"4","Q07":"4","Q04":"0","Q11":"4","Q02":"0","Q08":"0"},"rt":22928.80000000447,"item_order":[2,4,5,0,9,8,6,3,10,1,7],"radio_events":[4330.30000000447,5011.5,7031,7769.4000000059605,9209.60000000149,10765.10000000149,11742.20000000298,15751.20000000298,17133.20000000298,20041.60000000149,21482.10000000149],"key_events":[],"mouse_events":[4330.30000000447,5011.5,5838,7031,7769.4000000059605,9209.60000000149,10765.10000000149,11742.20000000298,12588.60000000149,14405.20000000298,15751.20000000298,17133.20000000298,18327.90000000596,19065.60000000149,20041.60000000149,21482.10000000149,22927.30000000447],"straightlining":0.7272727272727273,"zigzagging":0.5,"honeypot":0,"survey":"neuroticism","trial_type":"survey-template","trial_index":4,"time_elapsed":310179,"internal_node_id":"0.0-4.0","experiment":"validation","task_version":"1.1","jspsych_version":"6.3.1","infrequency":0},{"value":[0,1.844155844155844,1.3333333333333333],"trial_type":"call-function","trial_index":5,"time_elapsed":310180,"internal_node_id":"0.0-5.0","experiment":"validation","task_version":"1.1","jspsych_version":"6.3.1","interactions":"[{\"event\":\"blur\",\"trial\":0,\"time\":1616},{\"event\":\"focus\",\"trial\":0,\"time\":134740},{\"event\":\"blur\",\"trial\":1,\"time\":138443},{\"event\":\"focus\",\"trial\":1,\"time\":213538},{\"event\":\"blur\",\"trial\":2,\"time\":245306},{\"event\":\"focus\",\"trial\":2,\"time\":246589},{\"event\":\"blur\",\"trial\":4,\"time\":289808},{\"event\":\"focus\",\"trial\":4,\"time\":291538}]"}]