[{"view_history":[{"page_index":0,"viewing_time":2064.5}],"rt":2064.5999999940395,"trial_type":"instructions","trial_index":0,"time_elapsed":2080,"internal_node_id":"0.0-0.0","experiment":"validation","task_version":"1.1","jspsych_version":"6.3.1"},{"rt":16668,"responses":{"age":"32","gender-categorical":"Male","gender-free-response":"","ethnicity":"Not Hispanic or Latino","race":["White"],"education":"Bachelor degree"},"survey":"demographics","trial_type":"survey-demo","trial_index":1,"time_elapsed":18750,"internal_node_id":"0.0-1.0","experiment":"validation","task_version":"1.1","jspsych_version":"6.3.1"},{"responses":{"Q05":"2","Q03":"1","Q04":"1","Q07":"2","Q06":"1","Q01":"1","Q02":"1"},"rt":39483.30000001192,"item_order":[4,2,3,6,5,0,1],"radio_events":[7778.9000000059605,13790.40000000596,20925.80000001192,24660.5,26484,29249.70000001788,35954.20000001788,37306.90000000596],"key_events":[],"mouse_events":[7778.9000000059605,13790.40000000596,17617.5,20925.80000001192,24660.5,26484,29249.70000001788,30004.100000023842,31616.80000001192,34642.40000000596,35395.5,35954.20000001788,37306.90000000596,39482.30000001192],"straightlining":0.42857142857142855,"zigzagging":0.5,"honeypot":0,"survey":"nfc6","trial_type":"survey-template","trial_index":2,"time_elapsed":58236,"internal_node_id":"0.0-2.0","experiment":"validation","task_version":"1.1","jspsych_version":"6.3.1","infrequency":0},{"responses":{"Q06":"3","Q05":"3","Q09":"3","Q01":"2","Q07":"2","Q03":"2","Q02":"3","Q08":"3","Q10":"3","Q04":"3","Q11":"4"},"rt":33102.59999999404,"item_order":[5,4,8,0,6,2,1,7,9,3,10],"radio_events":[5324.300000011921,8351.199999988079,15382.300000011921,16860.30000001192,19461.19999998808,21362.09999999404,24340,26601.80000001192,27710.90000000596,29454.09999999404,31914.40000000596],"key_events":[],"mouse_events":[5324.300000011921,8351.199999988079,13692.699999988079,15382.300000011921,16860.30000001192,19461.19999998808,21362.09999999404,24340,26601.80000001192,27710.90000000596,29454.09999999404,31914.40000000596,33101.80000001192],"straightlining":0.36363636363636365,"zigzagging":0.3,"honeypot":0,"survey":"neuroticism","trial_type":"survey-template","trial_index":3,"time_elapsed":91341,"internal_node_id":"0.0-3.0","experiment":"validation","task_version":"1.1","jspsych_version":"6.3.1","infrequency":0},{"responses":{"Q03":"1","Q11":"0","Q09":"0","Q02":"1","Q04":"1","Q06":"3","Q01":"1","Q05":"1","Q07":"1","Q10":"2","Q08":"2"},"rt":32592.79999998212,"item_order":[2,10,8,1,3,5,0,4,6,9,7],"radio_events":[4749.799999982119,6629.199999988079,9449.90000000596,12419.59999999404,14095,16828.19999998808,19029.79999998212,21763.40000000596,24631.79999998212,26005.5,29299.40000000596,32049.59999999404],"key_events":[],"mouse_events":[4749.799999982119,6156.5,6629.199999988079,9449.90000000596,12419.59999999404,14095,16216.40000000596,16828.19999998808,19029.79999998212,21763.40000000596,23650.90000000596,24631.79999998212,26005.5,29299.40000000596,32049.59999999404,32591.69999998808],"straightlining":0.36363636363636365,"zigzagging":0.3,"honeypot":0,"survey":"openness","trial_type":"survey-template","trial_index":4,"time_elapsed":123937,"internal_node_id":"0.0-4.0","experiment":"validation","task_version":"1.1","jspsych_version":"6.3.1","infrequency":0},{"value":[0,1.155844155844156,1.1],"trial_type":"call-function","trial_index":5,"time_elapsed":123938,"internal_node_id":"0.0-5.0","experiment":"validation","task_version":"1.1","jspsych_version":"6.3.1","interactions":"[]"}]