[{"view_history":[{"page_index":0,"viewing_time":332137.59999999776}],"rt":332139.3999999985,"trial_type":"instructions","trial_index":0,"time_elapsed":332163,"internal_node_id":"0.0-0.0","experiment":"validation","task_version":"1.1","jspsych_version":"6.3.1"},{"rt":250447.1000000015,"responses":{"age":"37","gender-categorical":"Male","gender-free-response":"","ethnicity":"Not Hispanic or Latino","race":["White"],"education":"Bachelor degree"},"survey":"demographics","trial_type":"survey-demo","trial_index":1,"time_elapsed":582624,"internal_node_id":"0.0-1.0","experiment":"validation","task_version":"1.1","jspsych_version":"6.3.1"},{"responses":{"Q07":"1","Q05":"1","Q10":"0","Q09":"2","Q04":"3","Q06":"1","Q08":"0","Q11":"4","Q01":"1","Q03":"0","Q02":"0"},"rt":108390.90000000224,"item_order":[6,4,9,8,3,5,7,10,0,2,1],"radio_events":[38284.199999999255,51180.699999999255,52060.199999999255,62578.400000002235,63268.5,64071,99082.19999999925,100364.10000000149,100987.90000000224,105825.90000000224,107731.5],"key_events":[],"mouse_events":[9523.800000000745,12117.199999999255,12335.900000002235,12859.199999999255,15350.10000000149,16836.699999999255,17012.199999999255,17163.900000002235,28032,38284.199999999255,48620.699999999255,49550.900000002235,51180.699999999255,52060.199999999255,61444.900000002235,62578.400000002235,63268.5,64071,67427.80000000075,99082.19999999925,99466.10000000149,100364.10000000149,100987.90000000224,105825.90000000224,106113.90000000224,106652,107731.5,108380.60000000149],"straightlining":0.2727272727272727,"zigzagging":0.3,"honeypot":0,"survey":"neuroticism","trial_type":"survey-template","trial_index":2,"time_elapsed":691030,"internal_node_id":"0.0-2.0","experiment":"validation","task_version":"1.1","jspsych_version":"6.3.1","infrequency":0},{"responses":{"Q03":"3","Q06":"3","Q01":"2","Q05":"2","Q04":"1","Q07":"2","Q02":"3"},"rt":82517.90000000224,"item_order":[2,5,0,4,3,6,1],"radio_events":[5629.199999999255,55581.400000002235,56811.300000000745,77476.30000000075,78395,80124,81170.40000000224],"key_events":[],"mouse_events":[4293.5,5629.199999999255,23349,44755,54741,55581.400000002235,56811.300000000745,77476.30000000075,78395,79396.30000000075,80124,81170.40000000224,82515.5],"straightlining":0.42857142857142855,"zigzagging":0.6666666666666666,"honeypot":0,"survey":"nfc6","trial_type":"survey-template","trial_index":3,"time_elapsed":773559,"internal_node_id":"0.0-3.0","experiment":"validation","task_version":"1.1","jspsych_version":"6.3.1","infrequency":0},{"responses":{"Q05":"0","Q02":"4","Q11":"0","Q03":"2","Q04":"2","Q06":"3","Q08":"1","Q10":"1","Q09":"3","Q07":"3","Q01":"4"},"rt":296498.80000000075,"item_order":[4,1,10,2,3,5,7,9,8,6,0],"radio_events":[206297.30000000075,212709,214774.1000000015,246808.5,247976.40000000224,251432.6000000015,275564.700000003,282421.30000000075,293016.80000000075,295041.1000000015,295568.80000000075],"key_events":[],"mouse_events":[157993.80000000075,161644,162860.20000000298,162915.1000000015,164079,166062.70000000298,206297.30000000075,212709,214774.1000000015,245440.6000000015,246416.5,246808.5,247976.40000000224,251089,251432.6000000015,256728.90000000224,275564.700000003,282421.30000000075,292167.80000000075,292699.90000000224,293016.80000000075,294105.200000003,295041.1000000015,295568.80000000075,296488.700000003],"straightlining":0.2727272727272727,"zigzagging":0.2,"honeypot":0,"survey":"openness","trial_type":"survey-template","trial_index":4,"time_elapsed":1070071,"internal_node_id":"0.0-4.0","experiment":"validation","task_version":"1.1","jspsych_version":"6.3.1","infrequency":0},{"value":[0,0.974025974025974,1.1666666666666665],"trial_type":"call-function","trial_index":5,"time_elapsed":1070078,"internal_node_id":"0.0-5.0","experiment":"validation","task_version":"1.1","jspsych_version":"6.3.1","interactions":"[{\"event\":\"blur\",\"trial\":0,\"time\":326242},{\"event\":\"focus\",\"trial\":0,\"time\":328957},{\"event\":\"blur\",\"trial\":1,\"time\":334132},{\"event\":\"focus\",\"trial\":1,\"time\":336529},{\"event\":\"blur\",\"trial\":1,\"time\":337296},{\"event\":\"focus\",\"trial\":1,\"time\":338811},{\"event\":\"blur\",\"trial\":1,\"time\":339930},{\"event\":\"focus\",\"trial\":1,\"time\":341077},{\"event\":\"blur\",\"trial\":1,\"time\":343066},{\"event\":\"focus\",\"trial\":1,\"time\":346790},{\"event\":\"blur\",\"trial\":1,\"time\":473134},{\"event\":\"focus\",\"trial\":1,\"time\":566339},{\"event\":\"blur\",\"trial\":1,\"time\":568191},{\"event\":\"focus\",\"trial\":1,\"time\":568487},{\"event\":\"blur\",\"trial\":1,\"time\":568975},{\"event\":\"focus\",\"trial\":1,\"time\":570531},{\"event\":\"blur\",\"trial\":1,\"time\":570531},{\"event\":\"focus\",\"trial\":1,\"time\":572607},{\"event\":\"blur\",\"trial\":1,\"time\":580764},{\"event\":\"focus\",\"trial\":1,\"time\":581905},{\"event\":\"blur\",\"trial\":2,\"time\":587263},{\"event\":\"focus\",\"trial\":2,\"time\":592068},{\"event\":\"blur\",\"trial\":2,\"time\":601475},{\"event\":\"focus\",\"trial\":2,\"time\":608478},{\"event\":\"blur\",\"trial\":2,\"time\":612437},{\"event\":\"focus\",\"trial\":2,\"time\":617999},{\"event\":\"blur\",\"trial\":2,\"time\":622509},{\"event\":\"focus\",\"trial\":2,\"time\":622509},{\"event\":\"blur\",\"trial\":2,\"time\":622510},{\"event\":\"focus\",\"trial\":2,\"time\":628470},{\"event\":\"blur\",\"trial\":2,\"time\":636712},{\"event\":\"focus\",\"trial\":2,\"time\":642746},{\"event\":\"blur\",\"trial\":2,\"time\":654650},{\"event\":\"focus\",\"trial\":2,\"time\":680399},{\"event\":\"blur\",\"trial\":2,\"time\":684477},{\"event\":\"focus\",\"trial\":2,\"time\":687602},{\"event\":\"blur\",\"trial\":3,\"time\":716246},{\"event\":\"focus\",\"trial\":3,\"time\":734601},{\"event\":\"blur\",\"trial\":3,\"time\":737043},{\"event\":\"focus\",\"trial\":3,\"time\":743014},{\"event\":\"blur\",\"trial\":3,\"time\":750593},{\"event\":\"focus\",\"trial\":3,\"time\":767393},{\"event\":\"blur\",\"trial\":4,\"time\":942623},{\"event\":\"focus\",\"trial\":4,\"time\":974862},{\"event\":\"blur\",\"trial\":4,\"time\":989570},{\"event\":\"focus\",\"trial\":4,\"time\":1015536},{\"event\":\"blur\",\"trial\":4,\"time\":1032056},{\"event\":\"focus\",\"trial\":4,\"time\":1043092},{\"event\":\"blur\",\"trial\":4,\"time\":1056544},{\"event\":\"focus\",\"trial\":4,\"time\":1063665}]"}]