[{"view_history":[{"page_index":0,"viewing_time":3371.5}],"rt":3371.899999856949,"trial_type":"instructions","trial_index":0,"time_elapsed":3389,"internal_node_id":"0.0-0.0","experiment":"validation","task_version":"1.1","jspsych_version":"6.3.1"},{"rt":18418.200000047684,"responses":{"age":"27","gender-categorical":"Female","gender-free-response":"","ethnicity":"Not Hispanic or Latino","race":["Black or African American"],"education":"Bachelor degree"},"survey":"demographics","trial_type":"survey-demo","trial_index":1,"time_elapsed":21808,"internal_node_id":"0.0-1.0","experiment":"validation","task_version":"1.1","jspsych_version":"6.3.1"},{"responses":{"Q08":"2","Q06":"3","Q09":"2","Q01":"2","Q11":"0","Q02":"4","Q10":"4","Q05":"0","Q04":"3","Q03":"1","Q07":"4"},"rt":44835.700000047684,"item_order":[7,5,8,0,10,1,9,4,3,2,6],"radio_events":[9948.400000095367,16526.5,18548.400000095367,20283.900000095367,24769,26077.799999952316,31408.900000095367,33834.60000014305,36136.5,38232.5,39702.799999952316,43709.799999952316],"key_events":[],"mouse_events":[9948.400000095367,16526.5,18548.400000095367,20283.900000095367,22394.10000014305,24269.5,24769,26077.799999952316,31408.900000095367,32702.799999952316,33834.60000014305,34717.5,36136.5,38232.5,39702.799999952316,43709.799999952316,44834.60000014305],"straightlining":0.2727272727272727,"zigzagging":0.6,"honeypot":0,"survey":"openness","trial_type":"survey-template","trial_index":2,"time_elapsed":66647,"internal_node_id":"0.0-2.0","experiment":"validation","task_version":"1.1","jspsych_version":"6.3.1","infrequency":0},{"responses":{"Q05":"2","Q11":"4","Q06":"3","Q07":"3","Q02":"0","Q08":"0","Q01":"1","Q10":"0","Q04":"2","Q03":"2","Q09":"2"},"rt":34489,"item_order":[4,10,5,6,1,7,0,9,3,2,8],"radio_events":[6960.099999904633,9526,11834.799999952316,14261.399999856949,18716.89999985695,20069.299999952316,26613.5,28069.799999952316,30113.199999809265,32664.299999952316,33701.09999990463],"key_events":[],"mouse_events":[5879.199999809265,6960.099999904633,9526,11834.799999952316,14261.399999856949,18716.89999985695,20069.299999952316,26613.5,28069.799999952316,30113.199999809265,32664.299999952316,33701.09999990463,34487.89999985695],"straightlining":0.36363636363636365,"zigzagging":0.2,"honeypot":0,"survey":"neuroticism","trial_type":"survey-template","trial_index":3,"time_elapsed":101139,"internal_node_id":"0.0-3.0","experiment":"validation","task_version":"1.1","jspsych_version":"6.3.1","infrequency":0},{"responses":{"Q04":"1","Q07":"2","Q06":"3","Q02":"1","Q03":"2","Q01":"1","Q05":"3"},"rt":71137.09999990463,"item_order":[3,6,5,1,2,0,4],"radio_events":[13113.799999952316,15128,37227.90000009537,41844.5,46977.40000009537,49432.5,69982.20000004768],"key_events":[],"mouse_events":[13113.799999952316,15128,37227.90000009537,41844.5,46977.40000009537,49432.5,65100.200000047684,67276.70000004768,67916.40000009537,69166.20000004768,69982.20000004768,71136.40000009537],"straightlining":0.42857142857142855,"zigzagging":0.6666666666666666,"honeypot":0,"survey":"nfc6","trial_type":"survey-template","trial_index":4,"time_elapsed":172278,"internal_node_id":"0.0-4.0","experiment":"validation","task_version":"1.1","jspsych_version":"6.3.1","infrequency":0},{"value":[0,1.0649350649350648,1.4666666666666668],"trial_type":"call-function","trial_index":5,"time_elapsed":172279,"internal_node_id":"0.0-5.0","experiment":"validation","task_version":"1.1","jspsych_version":"6.3.1","interactions":"[]"}]