[{"view_history":[{"page_index":0,"viewing_time":3057.2999999523163}],"rt":3058.199999809265,"trial_type":"instructions","trial_index":0,"time_elapsed":3095,"internal_node_id":"0.0-0.0","experiment":"validation","task_version":"1.1","jspsych_version":"6.3.1"},{"rt":11261.700000047684,"responses":{"age":"24","gender-categorical":"Male","gender-free-response":"","ethnicity":"Not Hispanic or Latino","race":["White"],"education":"Bachelor degree"},"survey":"demographics","trial_type":"survey-demo","trial_index":1,"time_elapsed":14361,"internal_node_id":"0.0-1.0","experiment":"validation","task_version":"1.1","jspsych_version":"6.3.1"},{"responses":{"Q07":"2","Q08":"1","Q10":"3","Q04":"2","Q09":"3","Q06":"3","Q11":"4","Q03":"0","Q05":"1","Q02":"2","Q01":"1"},"rt":37436.700000047684,"item_order":[6,7,9,3,8,5,10,2,4,1,0],"radio_events":[6144.5,8404.799999952316,9589.299999952316,14493.400000095367,15714.400000095367,18194.60000014305,21653.60000014305,23419.10000014305,26242,34490.60000014305,36154.40000009537],"key_events":[],"mouse_events":[4629.799999952316,6144.5,7788.400000095367,8404.799999952316,9589.299999952316,11348.100000143051,13964,14493.400000095367,15714.400000095367,18194.60000014305,21653.60000014305,23419.10000014305,25642,26242,31373.60000014305,32624.200000047684,33460.299999952316,34490.60000014305,36154.40000009537,37433.90000009537],"straightlining":0.45454545454545453,"zigzagging":0.7,"honeypot":0,"survey":"neuroticism","trial_type":"survey-template","trial_index":2,"time_elapsed":51807,"internal_node_id":"0.0-2.0","experiment":"validation","task_version":"1.1","jspsych_version":"6.3.1","infrequency":0},{"responses":{"Q10":"3","Q07":"4","Q01":"4","Q02":"4","Q09":"3","Q04":"1","Q08":"1","Q05":"0","Q06":"3","Q11":"0","Q03":"2"},"rt":30568.199999809265,"item_order":[9,6,0,1,8,3,7,4,5,10,2],"radio_events":[3835.699999809265,6909,7902.5,9424.599999904633,11497.099999904633,16213.899999856949,17593.299999952316,18973.39999985695,21231.099999904633,23003.599999904633,29886],"key_events":[],"mouse_events":[3835.699999809265,5852.699999809265,6909,7902.5,9424.599999904633,11497.099999904633,15092.5,16213.899999856949,17593.299999952316,18973.39999985695,21231.099999904633,23003.599999904633,29208.299999952316,29886,30566.099999904633],"straightlining":0.2727272727272727,"zigzagging":0.4,"honeypot":0,"survey":"openness","trial_type":"survey-template","trial_index":3,"time_elapsed":82382,"internal_node_id":"0.0-3.0","experiment":"validation","task_version":"1.1","jspsych_version":"6.3.1","infrequency":0},{"responses":{"Q01":"3","Q06":"1","Q05":"1","Q03":"1","Q07":"2","Q02":"1","Q04":"1"},"rt":33026.299999952316,"item_order":[0,5,4,2,6,1,3],"radio_events":[7222.5,15420.599999904633,21024.200000047684,24433.89999985695,27994,29844.39999985695,31816.5],"key_events":[],"mouse_events":[6200.700000047684,7222.5,14627.5,15420.599999904633,21024.200000047684,24433.89999985695,27994,29844.39999985695,31816.5,33024.799999952316],"straightlining":0.42857142857142855,"zigzagging":0.3333333333333333,"honeypot":0,"survey":"nfc6","trial_type":"survey-template","trial_index":4,"time_elapsed":115419,"internal_node_id":"0.0-4.0","experiment":"validation","task_version":"1.1","jspsych_version":"6.3.1","infrequency":0},{"value":[0,1.155844155844156,1.4333333333333333],"trial_type":"call-function","trial_index":5,"time_elapsed":115422,"internal_node_id":"0.0-5.0","experiment":"validation","task_version":"1.1","jspsych_version":"6.3.1","interactions":"[]"}]