[{"view_history":[{"page_index":0,"viewing_time":1696.699999988079}],"rt":1697.300000011921,"trial_type":"instructions","trial_index":0,"time_elapsed":1719,"internal_node_id":"0.0-0.0","experiment":"validation","task_version":"1.1","jspsych_version":"6.3.1"},{"rt":12916.099999964237,"responses":{"age":"26","gender-categorical":"Female","gender-free-response":"","ethnicity":"Not Hispanic or Latino","race":["White"],"education":"Bachelor degree"},"survey":"demographics","trial_type":"survey-demo","trial_index":1,"time_elapsed":14793,"internal_node_id":"0.0-1.0","experiment":"validation","task_version":"1.1","jspsych_version":"6.3.1"},{"responses":{"Q10":"1","Q09":"2","Q04":"1","Q02":"1","Q03":"2","Q07":"2","Q06":"2","Q08":"1","Q11":"4","Q05":"1","Q01":"2"},"rt":32720.900000035763,"item_order":[9,8,3,1,2,6,5,7,10,4,0],"radio_events":[8865.400000035763,11503.199999988079,13515.300000011921,15287.600000023842,16996.80000001192,21456.600000023842,22834.5,24902.100000023842,26861.19999998808,30394.19999998808,31511.30000001192],"key_events":[],"mouse_events":[8865.400000035763,11503.199999988079,13515.300000011921,15287.600000023842,16996.80000001192,19109.600000023842,20146.100000023842,21456.600000023842,22834.5,24902.100000023842,26861.19999998808,28582.900000035763,29557.80000001192,30394.19999998808,31511.30000001192,32717.600000023842],"straightlining":0.45454545454545453,"zigzagging":0.6,"honeypot":0,"survey":"neuroticism","trial_type":"survey-template","trial_index":2,"time_elapsed":47526,"internal_node_id":"0.0-2.0","experiment":"validation","task_version":"1.1","jspsych_version":"6.3.1","infrequency":0},{"responses":{"Q08":"2","Q09":"1","Q04":"2","Q07":"3","Q02":"3","Q05":"1","Q11":"0","Q10":"4","Q03":"3","Q06":"3","Q01":"4"},"rt":41363,"item_order":[7,8,3,6,1,4,10,9,2,5,0],"radio_events":[10883.100000023842,12661.899999976158,17814.19999998808,19293.399999976158,20641.30000001192,21854.19999998808,25019.69999998808,29303.899999976158,31364.19999998808,35998.39999997616,39735.69999998808],"key_events":[],"mouse_events":[10883.100000023842,12661.899999976158,15980.899999976158,17089.5,17814.19999998808,19293.399999976158,20641.30000001192,21854.19999998808,25019.69999998808,29303.899999976158,31364.19999998808,35998.39999997616,37519.10000002384,39034.69999998808,39735.69999998808,40470.80000001192,41359.39999997616],"straightlining":0.36363636363636365,"zigzagging":0.3,"honeypot":0,"survey":"openness","trial_type":"survey-template","trial_index":3,"time_elapsed":89049,"internal_node_id":"0.0-3.0","experiment":"validation","task_version":"1.1","jspsych_version":"6.3.1","infrequency":0},{"responses":{"Q01":"1","Q07":"2","Q03":"2","Q04":"2","Q02":"1","Q06":"2","Q05":"3"},"rt":31524.69999998808,"item_order":[0,6,2,3,1,5,4],"radio_events":[4800.800000011921,7373.300000011921,10907.600000023842,16233.199999988079,23227.69999998808,27122.69999998808,30496.80000001192],"key_events":[],"mouse_events":[4800.800000011921,7373.300000011921,10907.600000023842,16233.199999988079,22091.899999976158,23227.69999998808,27122.69999998808,30496.80000001192,31524],"straightlining":0.5714285714285714,"zigzagging":0.6666666666666666,"honeypot":0,"survey":"nfc6","trial_type":"survey-template","trial_index":4,"time_elapsed":120586,"internal_node_id":"0.0-4.0","experiment":"validation","task_version":"1.1","jspsych_version":"6.3.1","infrequency":0},{"value":[0,1.3896103896103895,1.5666666666666664],"trial_type":"call-function","trial_index":5,"time_elapsed":120589,"internal_node_id":"0.0-5.0","experiment":"validation","task_version":"1.1","jspsych_version":"6.3.1","interactions":"[]"}]