[{"view_history":[{"page_index":0,"viewing_time":3048.300000011921}],"rt":3048.800000011921,"trial_type":"instructions","trial_index":0,"time_elapsed":3067,"internal_node_id":"0.0-0.0","experiment":"validation","task_version":"1.1","jspsych_version":"6.3.1"},{"rt":12606.900000035763,"responses":{"age":"27","gender-categorical":"Female","gender-free-response":"","ethnicity":"Not Hispanic or Latino","race":["White"],"education":"Bachelor degree"},"survey":"demographics","trial_type":"survey-demo","trial_index":1,"time_elapsed":15679,"internal_node_id":"0.0-1.0","experiment":"validation","task_version":"1.1","jspsych_version":"6.3.1"},{"responses":{"Q04":"1","Q03":"1","Q02":"2","Q07":"2","Q01":"1","Q05":"3","Q06":"3"},"rt":48275.5,"item_order":[3,2,1,6,0,4,5],"radio_events":[12095.899999976158,16765.30000001192,19703.19999998808,28842.399999976158,31982.899999976158,35134,39531.39999997616,41129.19999998808,47479.30000001192],"key_events":[],"mouse_events":[12095.899999976158,16765.30000001192,19703.19999998808,28842.399999976158,31982.899999976158,35134,39531.39999997616,41129.19999998808,47479.30000001192,48273.60000002384],"straightlining":0.5714285714285714,"zigzagging":0.3333333333333333,"honeypot":0,"survey":"nfc6","trial_type":"survey-template","trial_index":2,"time_elapsed":63966,"internal_node_id":"0.0-2.0","experiment":"validation","task_version":"1.1","jspsych_version":"6.3.1","infrequency":0},{"responses":{"Q03":"4","Q01":"3","Q10":"4","Q04":"2","Q07":"2","Q06":"2","Q02":"3","Q11":"0","Q05":"0","Q09":"1","Q08":"1"},"rt":38241.69999998808,"item_order":[2,0,9,3,6,5,1,10,4,8,7],"radio_events":[4281.699999988079,6817.900000035763,9384.100000023842,13825.5,16240.199999988079,18233.600000023842,20723.600000023842,25763.5,32327.100000023842,35255.19999998808,37155.5],"key_events":[],"mouse_events":[4281.699999988079,6817.900000035763,9384.100000023842,13825.5,16240.199999988079,18233.600000023842,20723.600000023842,25763.5,32327.100000023842,35255.19999998808,37155.5,38239.10000002384],"straightlining":0.36363636363636365,"zigzagging":0.4,"honeypot":0,"survey":"openness","trial_type":"survey-template","trial_index":3,"time_elapsed":102218,"internal_node_id":"0.0-3.0","experiment":"validation","task_version":"1.1","jspsych_version":"6.3.1","infrequency":0},{"responses":{"Q04":"3","Q02":"1","Q09":"3","Q03":"3","Q05":"0","Q01":"2","Q11":"4","Q06":"3","Q08":"1","Q07":"3","Q10":"1"},"rt":30538,"item_order":[3,1,8,2,4,0,10,5,7,6,9],"radio_events":[5202.100000023842,6973.900000035763,10423.900000035763,13358,15975.699999988079,18436.30000001192,20436.100000023842,23774,25561.900000035763,28138.100000023842,29671],"key_events":[],"mouse_events":[5202.100000023842,6973.900000035763,10423.900000035763,13358,15975.699999988079,18436.30000001192,20436.100000023842,23774,25561.900000035763,28138.100000023842,29671,30535.5],"straightlining":0.36363636363636365,"zigzagging":0,"honeypot":0,"survey":"neuroticism","trial_type":"survey-template","trial_index":4,"time_elapsed":132765,"internal_node_id":"0.0-4.0","experiment":"validation","task_version":"1.1","jspsych_version":"6.3.1","infrequency":0},{"value":[0,1.2987012987012987,0.7333333333333334],"trial_type":"call-function","trial_index":5,"time_elapsed":132771,"internal_node_id":"0.0-5.0","experiment":"validation","task_version":"1.1","jspsych_version":"6.3.1","interactions":"[]"}]