[{"view_history":[{"page_index":0,"viewing_time":2069.2000000029802}],"rt":2069.7000000029802,"trial_type":"instructions","trial_index":0,"time_elapsed":2086,"internal_node_id":"0.0-0.0","experiment":"validation","task_version":"1.1","jspsych_version":"6.3.1"},{"rt":13867.29999999702,"responses":{"age":"21","gender-categorical":"Female","gender-free-response":"","ethnicity":"Not Hispanic or Latino","race":["White"],"education":"Some college"},"survey":"demographics","trial_type":"survey-demo","trial_index":1,"time_elapsed":15957,"internal_node_id":"0.0-1.0","experiment":"validation","task_version":"1.1","jspsych_version":"6.3.1"},{"responses":{"Q07":"4","Q01":"4","Q04":"1","Q05":"1","Q03":"4","Q10":"4","Q09":"3","Q06":"3","Q08":"2","Q02":"4","Q11":"0"},"rt":32796.40000000596,"item_order":[6,0,3,4,2,9,8,5,7,1,10],"radio_events":[5113.4000000059605,8270,10385.90000000596,11584.29999999702,13948.5,15239.70000000298,18621.70000000298,24519.10000000894,26439.90000000596,28470.70000000298,31596.40000000596],"key_events":[],"mouse_events":[5113.4000000059605,8270,10385.90000000596,11584.29999999702,13948.5,15239.70000000298,18621.70000000298,24519.10000000894,26439.90000000596,28470.70000000298,31596.40000000596,32794.10000000894],"straightlining":0.2727272727272727,"zigzagging":0.7,"honeypot":0,"survey":"openness","trial_type":"survey-template","trial_index":2,"time_elapsed":48758,"internal_node_id":"0.0-2.0","experiment":"validation","task_version":"1.1","jspsych_version":"6.3.1","infrequency":0},{"responses":{"Q03":"3","Q04":"2","Q05":"3","Q02":"3","Q01":"1","Q06":"1","Q07":"2"},"rt":29612.20000000298,"item_order":[2,3,4,1,0,5,6],"radio_events":[7619.20000000298,11126.60000000894,14028.800000011921,16018.60000000894,20967.10000000894,27930.60000000894,28816.60000000894],"key_events":[],"mouse_events":[7619.20000000298,11126.60000000894,14028.800000011921,16018.60000000894,20967.10000000894,27930.60000000894,28816.60000000894,29610.80000001192],"straightlining":0.42857142857142855,"zigzagging":0.5,"honeypot":0,"survey":"nfc6","trial_type":"survey-template","trial_index":3,"time_elapsed":78373,"internal_node_id":"0.0-3.0","experiment":"validation","task_version":"1.1","jspsych_version":"6.3.1","infrequency":0},{"responses":{"Q07":"3","Q11":"4","Q01":"2","Q04":"2","Q05":"3","Q06":"4","Q03":"2","Q10":"2","Q09":"3","Q08":"1","Q02":"3"},"rt":25370,"item_order":[6,10,0,3,4,5,2,9,8,7,1],"radio_events":[5784,7431.20000000298,9757.09999999404,11554.70000000298,12853,14494.5,17014.70000000298,18291.40000000596,21403.29999999702,23174.79999999702,24351.09999999404],"key_events":[],"mouse_events":[5784,7431.20000000298,9757.09999999404,11554.70000000298,12853,14494.5,17014.70000000298,18291.40000000596,21403.29999999702,23174.79999999702,24351.09999999404,25368.79999999702],"straightlining":0.36363636363636365,"zigzagging":0.2,"honeypot":0,"survey":"neuroticism","trial_type":"survey-template","trial_index":4,"time_elapsed":103747,"internal_node_id":"0.0-4.0","experiment":"validation","task_version":"1.1","jspsych_version":"6.3.1","infrequency":0},{"value":[0,1.064935064935065,1.4],"trial_type":"call-function","trial_index":5,"time_elapsed":103748,"internal_node_id":"0.0-5.0","experiment":"validation","task_version":"1.1","jspsych_version":"6.3.1","interactions":"[]"}]