[{"view_history":[{"page_index":0,"viewing_time":8083.299999952316}],"rt":8083.799999952316,"trial_type":"instructions","trial_index":0,"time_elapsed":8086,"internal_node_id":"0.0-0.0","experiment":"validation","task_version":"1.1","jspsych_version":"6.3.1"},{"rt":23230.700000047684,"responses":{"age":"38","gender-categorical":"Female","gender-free-response":"","ethnicity":"Not Hispanic or Latino","race":["White"],"education":"Master degree or higher"},"survey":"demographics","trial_type":"survey-demo","trial_index":1,"time_elapsed":31314,"internal_node_id":"0.0-1.0","experiment":"validation","task_version":"1.1","jspsych_version":"6.3.1"},{"responses":{"Q10":"2","Q07":"3","Q02":"3","Q06":"1","Q01":"3","Q04":"1","Q11":"0","Q08":"1","Q09":"3","Q05":"3","Q03":"1"},"rt":146111.59999990463,"item_order":[9,6,1,5,0,3,10,7,8,4,2],"radio_events":[25981.200000047684,34893.299999952316,39541.200000047684,46325.299999952316,53853.299999952316,60853.09999990463,88981.39999985695,106373.29999995232,114565,119452.89999985695,127852.70000004768,136269.20000004768,144949.29999995232],"key_events":[],"mouse_events":[23325.5,25981.200000047684,34893.299999952316,38837.299999952316,39541.200000047684,46325.299999952316,53853.299999952316,60853.09999990463,88981.39999985695,106373.29999995232,114565,119452.89999985695,127852.70000004768,136269.20000004768,144949.29999995232,146109.09999990463],"straightlining":0.45454545454545453,"zigzagging":0.1,"honeypot":0,"survey":"openness","trial_type":"survey-template","trial_index":2,"time_elapsed":177442,"internal_node_id":"0.0-2.0","experiment":"validation","task_version":"1.1","jspsych_version":"6.3.1","infrequency":0},{"responses":{"Q04":"3","Q07":"2","Q02":"2","Q06":"2","Q01":"3","Q05":"3","Q03":"4"},"rt":129430.40000009537,"item_order":[3,6,1,5,0,4,2],"radio_events":[31828.799999952316,39189.10000014305,60588.700000047684,73124.70000004768,98780.79999995232,115532.90000009537,121564.79999995232,127949.90000009537],"key_events":[],"mouse_events":[31828.799999952316,39189.10000014305,60588.700000047684,73124.70000004768,98780.79999995232,115532.90000009537,121564.79999995232,127949.90000009537,129428.90000009537],"straightlining":0.42857142857142855,"zigzagging":0.3333333333333333,"honeypot":0,"survey":"nfc6","trial_type":"survey-template","trial_index":3,"time_elapsed":306881,"internal_node_id":"0.0-3.0","experiment":"validation","task_version":"1.1","jspsych_version":"6.3.1","infrequency":0},{"responses":{"Q07":"2","Q04":"1","Q09":"2","Q08":"0","Q03":"0","Q11":"4","Q02":"0","Q06":"2","Q05":"1","Q01":"2","Q10":"1"},"rt":227576.10000014305,"item_order":[6,3,8,7,2,10,1,5,4,0,9],"radio_events":[35670.700000047684,40589.700000047684,69877.70000004768,72821.90000009537,79565.79999995232,84822.5,93197.90000009537,97102.29999995232,99181.70000004768,103501.79999995232,154271,226605.90000009537],"key_events":[],"mouse_events":[35670.700000047684,40589.700000047684,69877.70000004768,72821.90000009537,79565.79999995232,84822.5,93197.90000009537,97102.29999995232,99181.70000004768,103501.79999995232,114957.5,132134,154271,218733.79999995232,226605.90000009537,227573.90000009537],"straightlining":0.36363636363636365,"zigzagging":0.8,"honeypot":0,"survey":"neuroticism","trial_type":"survey-template","trial_index":4,"time_elapsed":534466,"internal_node_id":"0.0-4.0","experiment":"validation","task_version":"1.1","jspsych_version":"6.3.1","infrequency":0},{"value":[0,1.2467532467532467,1.2333333333333334],"trial_type":"call-function","trial_index":5,"time_elapsed":534473,"internal_node_id":"0.0-5.0","experiment":"validation","task_version":"1.1","jspsych_version":"6.3.1","interactions":"[{\"event\":\"blur\",\"trial\":0,\"time\":3147},{\"event\":\"focus\",\"trial\":0,\"time\":8009},{\"event\":\"blur\",\"trial\":2,\"time\":106485},{\"event\":\"focus\",\"trial\":2,\"time\":120250},{\"event\":\"blur\",\"trial\":2,\"time\":123030},{\"event\":\"focus\",\"trial\":2,\"time\":137598},{\"event\":\"blur\",\"trial\":4,\"time\":319104},{\"event\":\"focus\",\"trial\":4,\"time\":342489},{\"event\":\"blur\",\"trial\":4,\"time\":423452},{\"event\":\"focus\",\"trial\":4,\"time\":436885},{\"event\":\"blur\",\"trial\":4,\"time\":441623},{\"event\":\"focus\",\"trial\":4,\"time\":461088},{\"event\":\"blur\",\"trial\":4,\"time\":492319},{\"event\":\"focus\",\"trial\":4,\"time\":525527}]"}]