[{"view_history":[{"page_index":0,"viewing_time":1229.2000000000116}],"rt":1229.5,"trial_type":"instructions","trial_index":0,"time_elapsed":1249,"internal_node_id":"0.0-0.0","experiment":"validation","task_version":"1.1","jspsych_version":"6.3.1"},{"rt":8102.299999999988,"responses":{"age":"30","gender-categorical":"Male","gender-free-response":"","ethnicity":"Not Hispanic or Latino","race":["White"],"education":"Bachelor degree"},"survey":"demographics","trial_type":"survey-demo","trial_index":1,"time_elapsed":9354,"internal_node_id":"0.0-1.0","experiment":"validation","task_version":"1.1","jspsych_version":"6.3.1"},{"responses":{"Q05":"1","Q01":"4","Q02":"2","Q04":"3","Q07":"4","Q06":"4","Q03":"4","Q10":"4","Q11":"0","Q09":"2","Q08":"3"},"rt":24954.800000000047,"item_order":[4,0,1,3,6,5,2,9,10,8,7],"radio_events":[7975,8776.700000000012,10168.200000000012,12268.200000000012,13700.5,14990.5,17744.800000000047,19280.300000000047,20428.300000000047,22962.70000000001,24040.800000000047],"key_events":[],"mouse_events":[7975,8776.700000000012,10168.200000000012,12268.200000000012,13700.5,14542.700000000012,14990.5,17744.800000000047,19280.300000000047,20428.300000000047,22962.70000000001,24040.800000000047,24952.900000000023],"straightlining":0.36363636363636365,"zigzagging":0.6,"honeypot":0,"survey":"openness","trial_type":"survey-template","trial_index":2,"time_elapsed":34314,"internal_node_id":"0.0-2.0","experiment":"validation","task_version":"1.1","jspsych_version":"6.3.1","infrequency":0},{"responses":{"Q10":"3","Q07":"3","Q08":"2","Q05":"3","Q11":"4","Q01":"3","Q06":"3","Q09":"3","Q04":"3","Q03":"3","Q02":"2"},"rt":24232.099999999977,"item_order":[9,6,7,4,10,0,5,8,3,2,1],"radio_events":[6100.899999999965,7532.599999999977,8790.299999999988,9932.699999999953,11742.599999999977,14016.299999999988,18036,20122.099999999977,21334.099999999977,22766.199999999953,23600.199999999953],"key_events":[],"mouse_events":[6100.899999999965,7532.599999999977,8790.299999999988,9932.699999999953,11742.599999999977,14016.299999999988,18036,20122.099999999977,21334.099999999977,22766.199999999953,23600.199999999953,24230.399999999965],"straightlining":0.36363636363636365,"zigzagging":0.5,"honeypot":0,"survey":"neuroticism","trial_type":"survey-template","trial_index":3,"time_elapsed":58549,"internal_node_id":"0.0-3.0","experiment":"validation","task_version":"1.1","jspsych_version":"6.3.1","infrequency":0},{"responses":{"Q05":"3","Q03":"4","Q02":"3","Q06":"3","Q01":"3","Q07":"2","Q04":"3"},"rt":37570,"item_order":[4,2,1,5,0,6,3],"radio_events":[4739.5,20377.70000000001,23713,30827.300000000047,33863.100000000035,34603.30000000005,36979.40000000002],"key_events":[],"mouse_events":[4739.5,20377.70000000001,23713,30827.300000000047,33863.100000000035,34603.30000000005,36979.40000000002,37568.80000000005],"straightlining":0.5714285714285714,"zigzagging":0.3333333333333333,"honeypot":0,"survey":"nfc6","trial_type":"survey-template","trial_index":4,"time_elapsed":96121,"internal_node_id":"0.0-4.0","experiment":"validation","task_version":"1.1","jspsych_version":"6.3.1","infrequency":0},{"value":[0,1.2987012987012987,1.4333333333333333],"trial_type":"call-function","trial_index":5,"time_elapsed":96123,"internal_node_id":"0.0-5.0","experiment":"validation","task_version":"1.1","jspsych_version":"6.3.1","interactions":"[]"}]