[{"view_history":[{"page_index":0,"viewing_time":2349.7000000476837}],"rt":2349.9000000953674,"trial_type":"instructions","trial_index":0,"time_elapsed":2368,"internal_node_id":"0.0-0.0","experiment":"validation","task_version":"1.1","jspsych_version":"6.3.1"},{"rt":26726.899999976158,"responses":{"age":"21","gender-categorical":"Male","gender-free-response":"","ethnicity":"Not Hispanic or Latino","race":["White"],"education":"Bachelor degree"},"survey":"demographics","trial_type":"survey-demo","trial_index":1,"time_elapsed":29096,"internal_node_id":"0.0-1.0","experiment":"validation","task_version":"1.1","jspsych_version":"6.3.1"},{"responses":{"Q07":"0","Q09":"3","Q10":"1","Q01":"0","Q02":"0","Q04":"0","Q03":"1","Q11":"4","Q05":"3","Q08":"1","Q06":"3"},"rt":38846,"item_order":[6,8,9,0,1,3,2,10,4,7,5],"radio_events":[9508.799999952316,13052.700000047684,15013,18212.700000047684,22100.799999952316,24356.799999952316,26668.799999952316,31772.799999952316,34108.799999952316,35628.700000047684,38117.10000002384],"key_events":[],"mouse_events":[84.79999995231628,9508.799999952316,13052.700000047684,15013,17380.899999976158,18212.700000047684,22100.799999952316,24356.799999952316,26668.799999952316,31772.799999952316,34108.799999952316,35628.700000047684,38117.10000002384,38844.89999997616],"straightlining":0.2727272727272727,"zigzagging":0.2,"honeypot":0,"survey":"neuroticism","trial_type":"survey-template","trial_index":2,"time_elapsed":67946,"internal_node_id":"0.0-2.0","experiment":"validation","task_version":"1.1","jspsych_version":"6.3.1","infrequency":0},{"responses":{"Q04":"1","Q02":"4","Q11":"0","Q08":"4","Q03":"0","Q01":"1","Q10":"0","Q05":"1","Q06":"2","Q09":"1","Q07":"2"},"rt":30517.599999904633,"item_order":[3,1,10,7,2,0,9,4,5,8,6],"radio_events":[4188.699999928474,5980.699999928474,8892.599999904633,10900.5,12932.699999928474,15941.199999928474,18356.799999952316,21060.599999904633,23573.199999928474,27388.799999952316,29300.599999904633],"key_events":[],"mouse_events":[4188.699999928474,5980.699999928474,8892.599999904633,10900.5,12516.799999952316,12932.699999928474,15941.199999928474,18356.799999952316,21060.599999904633,23573.199999928474,27388.799999952316,29300.599999904633,30516.599999904633],"straightlining":0.2727272727272727,"zigzagging":0.7,"honeypot":0,"survey":"openness","trial_type":"survey-template","trial_index":3,"time_elapsed":98466,"internal_node_id":"0.0-3.0","experiment":"validation","task_version":"1.1","jspsych_version":"6.3.1","infrequency":0},{"responses":{"Q02":"3","Q04":"3","Q01":"3","Q07":"2","Q05":"3","Q03":"2","Q06":"3"},"rt":51821.60000002384,"item_order":[1,3,0,6,4,2,5],"radio_events":[5444.600000023842,20844.799999952316,30940.799999952316,34260.699999928474,41028.699999928474,44812.699999928474,50996.89999997616],"key_events":[],"mouse_events":[5444.600000023842,20844.799999952316,30940.799999952316,34260.699999928474,41028.699999928474,44812.699999928474,50996.89999997616,51820.89999997616],"straightlining":0.5714285714285714,"zigzagging":0.6666666666666666,"honeypot":0,"survey":"nfc6","trial_type":"survey-template","trial_index":4,"time_elapsed":150290,"internal_node_id":"0.0-4.0","experiment":"validation","task_version":"1.1","jspsych_version":"6.3.1","infrequency":0},{"value":[0,1.1168831168831168,1.5666666666666664],"trial_type":"call-function","trial_index":5,"time_elapsed":150292,"internal_node_id":"0.0-5.0","experiment":"validation","task_version":"1.1","jspsych_version":"6.3.1","interactions":"[]"}]