[{"view_history":[{"page_index":0,"viewing_time":4015.39999999851}],"rt":4015.800000000745,"trial_type":"instructions","trial_index":0,"time_elapsed":4028,"internal_node_id":"0.0-0.0","experiment":"validation","task_version":"1.1","jspsych_version":"6.3.1"},{"rt":18832.39999999851,"responses":{"age":"34","gender-categorical":"Male","gender-free-response":"","ethnicity":"Not Hispanic or Latino","race":["White"],"education":"Bachelor degree"},"survey":"demographics","trial_type":"survey-demo","trial_index":1,"time_elapsed":22862,"internal_node_id":"0.0-1.0","experiment":"validation","task_version":"1.1","jspsych_version":"6.3.1"},{"responses":{"Q06":"1","Q03":"0","Q11":"0","Q02":"1","Q09":"1","Q01":"1","Q08":"3","Q07":"0","Q10":"1","Q05":"2","Q04":"2"},"rt":62017.60000000149,"item_order":[5,2,10,1,8,0,7,6,9,4,3],"radio_events":[9544.39999999851,12572.39999999851,17884.5,24518.300000000745,25604.39999999851,31216.39999999851,36450.39999999851,40184.199999999255,45598.199999999255,52334.39999999851,59878.39999999851],"key_events":[],"mouse_events":[6982.5,9544.39999999851,12572.39999999851,17884.5,21186.39999999851,24518.300000000745,25604.39999999851,31216.39999999851,36450.39999999851,40184.199999999255,45598.199999999255,52334.39999999851,53206.5,59878.39999999851,62016.5],"straightlining":0.2727272727272727,"zigzagging":0.3,"honeypot":0,"survey":"openness","trial_type":"survey-template","trial_index":2,"time_elapsed":84886,"internal_node_id":"0.0-2.0","experiment":"validation","task_version":"1.1","jspsych_version":"6.3.1","infrequency":0},{"responses":{"Q06":"2","Q03":"1","Q07":"2","Q02":"1","Q01":"1","Q04":"2","Q05":"1"},"rt":50326.29999999702,"item_order":[5,2,6,1,0,3,4],"radio_events":[11180.699999999255,16124.199999999255,18914,26373.89999999851,32575.79999999702,41922.29999999702,48494],"key_events":[],"mouse_events":[11180.699999999255,16124.199999999255,18914,26373.89999999851,32575.79999999702,41922.29999999702,48494,50325.699999999255],"straightlining":0.42857142857142855,"zigzagging":0.8333333333333334,"honeypot":0,"survey":"nfc6","trial_type":"survey-template","trial_index":3,"time_elapsed":135216,"internal_node_id":"0.0-3.0","experiment":"validation","task_version":"1.1","jspsych_version":"6.3.1","infrequency":0},{"responses":{"Q03":"0","Q09":"3","Q06":"1","Q04":"0","Q08":"1","Q05":"3","Q11":"4","Q01":"0","Q10":"2","Q07":"0","Q02":"0"},"rt":44103.199999999255,"item_order":[2,8,5,3,7,4,10,0,9,6,1],"radio_events":[4311.800000000745,7306.099999997765,16402.099999997765,19428.099999997765,23352,25962,30300.099999997765,33178.099999997765,37177.699999999255,40180,43082],"key_events":[],"mouse_events":[4311.800000000745,7306.099999997765,16402.099999997765,19428.099999997765,23352,25962,30300.099999997765,33178.099999997765,37177.699999999255,40180,43082,44102.199999999255],"straightlining":0.36363636363636365,"zigzagging":0.4,"honeypot":0,"survey":"neuroticism","trial_type":"survey-template","trial_index":4,"time_elapsed":179323,"internal_node_id":"0.0-4.0","experiment":"validation","task_version":"1.1","jspsych_version":"6.3.1","infrequency":0},{"value":[0,1.064935064935065,1.5333333333333332],"trial_type":"call-function","trial_index":5,"time_elapsed":179327,"internal_node_id":"0.0-5.0","experiment":"validation","task_version":"1.1","jspsych_version":"6.3.1","interactions":"[]"}]