[{"view_history":[{"page_index":0,"viewing_time":2192.0999999046326}],"rt":2192.5,"trial_type":"instructions","trial_index":0,"time_elapsed":2197,"internal_node_id":"0.0-0.0","experiment":"validation","task_version":"1.1","jspsych_version":"6.3.1"},{"rt":11998.099999904633,"responses":{"age":"18","gender-categorical":"Female","gender-free-response":"","ethnicity":"Not Hispanic or Latino","race":["White"],"education":"High school"},"survey":"demographics","trial_type":"survey-demo","trial_index":1,"time_elapsed":14199,"internal_node_id":"0.0-1.0","experiment":"validation","task_version":"1.1","jspsych_version":"6.3.1"},{"responses":{"Q09":"4","Q11":"0","Q03":"4","Q07":"4","Q10":"4","Q06":"3","Q08":"4","Q04":"2","Q05":"0","Q02":"2","Q01":"4"},"rt":51961,"item_order":[8,10,2,6,9,5,7,3,4,1,0],"radio_events":[6386,8436.799999952316,11734.199999809265,15112.399999856949,17332.699999809265,19829.699999809265,22106.299999952316,31687.199999809265,33847.299999952316,35315.699999809265,45861.89999985695,47561,50418.39999985695,51252.09999990463],"key_events":[],"mouse_events":[6386,8436.799999952316,11734.199999809265,15112.399999856949,17332.699999809265,19829.699999809265,22106.299999952316,31687.199999809265,33847.299999952316,35315.699999809265,45861.89999985695,47561,50418.39999985695,51252.09999990463,51957.5],"straightlining":0.45454545454545453,"zigzagging":0.4,"honeypot":0,"survey":"openness","trial_type":"survey-template","trial_index":2,"time_elapsed":66170,"internal_node_id":"0.0-2.0","experiment":"validation","task_version":"1.1","jspsych_version":"6.3.1","infrequency":0},{"responses":{"Q04":"1","Q02":"3","Q03":"4","Q05":"2","Q06":"1","Q01":"2","Q07":"2"},"rt":78489,"item_order":[3,1,2,4,5,0,6],"radio_events":[14704.299999952316,42827.09999990463,45748.5,49855.799999952316,56126.89999985695,72151.39999985695,74988.09999990463,76819.59999990463],"key_events":[],"mouse_events":[14704.299999952316,42827.09999990463,45748.5,49855.799999952316,56126.89999985695,72151.39999985695,74988.09999990463,76819.59999990463,78486.79999995232],"straightlining":0.42857142857142855,"zigzagging":0.3333333333333333,"honeypot":0,"survey":"nfc6","trial_type":"survey-template","trial_index":3,"time_elapsed":144667,"internal_node_id":"0.0-3.0","experiment":"validation","task_version":"1.1","jspsych_version":"6.3.1","infrequency":0},{"responses":{"Q10":"1","Q07":"4","Q11":"4","Q09":"4","Q01":"3","Q05":"4","Q06":"3","Q08":"1","Q03":"1","Q02":"1","Q04":"3"},"rt":29509.099999904633,"item_order":[9,6,10,8,0,4,5,7,2,1,3],"radio_events":[3874.4000000953674,4980.700000047684,7356.799999952316,9088.5,11272.400000095367,13660.599999904633,18982.599999904633,20352.799999952316,21972.099999904633,24236.099999904633,26351.799999952316,28592.099999904633],"key_events":[],"mouse_events":[3874.4000000953674,4980.700000047684,7356.799999952316,9088.5,11272.400000095367,13660.599999904633,18982.599999904633,20352.799999952316,21972.099999904633,24236.099999904633,26351.799999952316,28592.099999904633,29506.099999904633],"straightlining":0.36363636363636365,"zigzagging":0.3,"honeypot":0,"survey":"neuroticism","trial_type":"survey-template","trial_index":4,"time_elapsed":174184,"internal_node_id":"0.0-4.0","experiment":"validation","task_version":"1.1","jspsych_version":"6.3.1","infrequency":0},{"value":[0,1.2467532467532467,1.0333333333333334],"trial_type":"call-function","trial_index":5,"time_elapsed":174187,"internal_node_id":"0.0-5.0","experiment":"validation","task_version":"1.1","jspsych_version":"6.3.1","interactions":"[]"}]