[{"view_history":[{"page_index":0,"viewing_time":2539.0000000000005}],"rt":2539.0000000000005,"trial_type":"instructions","trial_index":0,"time_elapsed":2550,"internal_node_id":"0.0-0.0","experiment":"validation","task_version":"1.1","jspsych_version":"6.3.1"},{"rt":12751,"responses":{"age":"26","gender-categorical":"Female","gender-free-response":"","ethnicity":"Not Hispanic or Latino","race":["White"],"education":"Master degree or higher"},"survey":"demographics","trial_type":"survey-demo","trial_index":1,"time_elapsed":15309,"internal_node_id":"0.0-1.0","experiment":"validation","task_version":"1.1","jspsych_version":"6.3.1"},{"responses":{"Q04":"3","Q06":"2","Q02":"2","Q01":"1","Q03":"3","Q05":"3","Q07":"2"},"rt":42748,"item_order":[3,5,1,0,2,4,6],"radio_events":[9177.999999999998,20108,26266.000000000007,28689,33028.00000000001,37845.00000000001,41496],"key_events":[],"mouse_events":[9177.999999999998,19116,20108,26266.000000000007,28689,33028.00000000001,37845.00000000001,40542,41496,42741],"straightlining":0.42857142857142855,"zigzagging":0.5,"honeypot":0,"survey":"nfc6","trial_type":"survey-template","trial_index":2,"time_elapsed":58061,"internal_node_id":"0.0-2.0","experiment":"validation","task_version":"1.1","jspsych_version":"6.3.1","infrequency":0},{"responses":{"Q05":"1","Q11":"0","Q01":"2","Q10":"3","Q06":"2","Q09":"1","Q02":"2","Q03":"3","Q04":"2","Q08":"1","Q07":"1"},"rt":38232,"item_order":[4,10,0,9,5,8,1,2,3,7,6],"radio_events":[5868,8346,11602,17049,20742.000000000015,23635.000000000015,27166,29371,31617.000000000015,34842,37113],"key_events":[],"mouse_events":[5868,8346,11602,14228,16417,17049,20242.000000000015,20742.000000000015,23635.000000000015,27166,29371,31617.000000000015,34179,34842,37113,37717,38226],"straightlining":0.45454545454545453,"zigzagging":0.7,"honeypot":0,"survey":"openness","trial_type":"survey-template","trial_index":3,"time_elapsed":96297,"internal_node_id":"0.0-3.0","experiment":"validation","task_version":"1.1","jspsych_version":"6.3.1","infrequency":0},{"responses":{"Q07":"3","Q05":"1","Q06":"3","Q10":"2","Q03":"1","Q04":"0","Q08":"1","Q11":"4","Q01":"1","Q09":"2","Q02":"1"},"rt":42695,"item_order":[6,4,5,9,2,3,7,10,0,8,1],"radio_events":[6505,8499,11044,12789,16434,21857,23076,24871,33353.000000000015,36604.00000000003,39529,41718],"key_events":[],"mouse_events":[5964,6505,8499,10552,11044,12789,16434,20209,20978,21857,23076,24871,33353.000000000015,36604.00000000003,39529,41168,41718,42687],"straightlining":0.5454545454545454,"zigzagging":0.6,"honeypot":0,"survey":"neuroticism","trial_type":"survey-template","trial_index":4,"time_elapsed":138996,"internal_node_id":"0.0-4.0","experiment":"validation","task_version":"1.1","jspsych_version":"6.3.1","infrequency":0},{"value":[0,1.4285714285714284,1.7999999999999998],"trial_type":"call-function","trial_index":5,"time_elapsed":138998,"internal_node_id":"0.0-5.0","experiment":"validation","task_version":"1.1","jspsych_version":"6.3.1","interactions":"[]"}]