[{"view_history":[{"page_index":0,"viewing_time":11576.900000095367}],"rt":11577.600000143051,"trial_type":"instructions","trial_index":0,"time_elapsed":11590,"internal_node_id":"0.0-0.0","experiment":"validation","task_version":"1.1","jspsych_version":"6.3.1"},{"rt":44430.09999990463,"responses":{"age":"70","gender-categorical":"Male","gender-free-response":"","ethnicity":"Not Hispanic or Latino","race":["White"],"education":"High school"},"survey":"demographics","trial_type":"survey-demo","trial_index":1,"time_elapsed":56022,"internal_node_id":"0.0-1.0","experiment":"validation","task_version":"1.1","jspsych_version":"6.3.1"},{"responses":{"Q07":"2","Q01":"2","Q11":"0","Q09":"3","Q05":"1","Q06":"2","Q08":"2","Q10":"0","Q02":"3","Q04":"2","Q03":"0"},"rt":72197.59999990463,"item_order":[6,0,10,8,4,5,7,9,1,3,2],"radio_events":[8660.099999904633,12212.299999952316,16380.199999809265,23484,29428,34276.39999985695,41092.199999809265,48548.299999952316,54780.299999952316,58835.799999952316,62172.299999952316,67332.09999990463,70516.19999980927],"key_events":[],"mouse_events":[8660.099999904633,12212.299999952316,16380.199999809265,23484,29428,34276.39999985695,41092.199999809265,48548.299999952316,54780.299999952316,58835.799999952316,62172.299999952316,67332.09999990463,70516.19999980927,72196.39999985695],"straightlining":0.45454545454545453,"zigzagging":0.4,"honeypot":0,"survey":"openness","trial_type":"survey-template","trial_index":2,"time_elapsed":128224,"internal_node_id":"0.0-2.0","experiment":"validation","task_version":"1.1","jspsych_version":"6.3.1","infrequency":0},{"responses":{"Q06":"2","Q09":"2","Q11":"4","Q01":"0","Q08":"0","Q02":"0","Q05":"0","Q10":"0","Q03":"0","Q04":"0","Q07":"0"},"rt":53212.699999809265,"item_order":[5,8,10,0,7,1,4,9,2,3,6],"radio_events":[11483.799999952316,17291.89999985695,23427.699999809265,27275.099999904633,32139.5,37227.299999952316,39515.799999952316,41435.699999809265,44571.799999952316,47875.799999952316,49411.59999990463,52468.09999990463],"key_events":[],"mouse_events":[11483.799999952316,17291.89999985695,23427.699999809265,27275.099999904633,32139.5,37227.299999952316,39515.799999952316,41435.699999809265,44571.799999952316,47875.799999952316,49411.59999990463,52468.09999990463,53211.699999809265],"straightlining":0.45454545454545453,"zigzagging":0.6,"honeypot":0,"survey":"neuroticism","trial_type":"survey-template","trial_index":3,"time_elapsed":181439,"internal_node_id":"0.0-3.0","experiment":"validation","task_version":"1.1","jspsych_version":"6.3.1","infrequency":0},{"responses":{"Q01":"0","Q07":"2","Q02":"0","Q04":"1","Q03":"2","Q05":"3","Q06":"1"},"rt":78661.5,"item_order":[0,6,1,3,2,4,5],"radio_events":[8772.799999952316,11300.900000095367,21052.799999952316,30644.700000047684,47956.700000047684,62244.799999952316,77172.70000004768],"key_events":[],"mouse_events":[8772.799999952316,11300.900000095367,21052.799999952316,30644.700000047684,47268.700000047684,47956.700000047684,60636.799999952316,62244.799999952316,77172.70000004768,78660.79999995232],"straightlining":0.2857142857142857,"zigzagging":0.3333333333333333,"honeypot":0,"survey":"nfc6","trial_type":"survey-template","trial_index":4,"time_elapsed":260102,"internal_node_id":"0.0-4.0","experiment":"validation","task_version":"1.1","jspsych_version":"6.3.1","infrequency":0},{"value":[0,1.1948051948051948,1.3333333333333333],"trial_type":"call-function","trial_index":5,"time_elapsed":260104,"internal_node_id":"0.0-5.0","experiment":"validation","task_version":"1.1","jspsych_version":"6.3.1","interactions":"[]"}]