[{"view_history":[{"page_index":0,"viewing_time":1359.3000001907349}],"rt":1359.3999996185303,"trial_type":"instructions","trial_index":0,"time_elapsed":1373,"internal_node_id":"0.0-0.0","experiment":"validation","task_version":"1.1","jspsych_version":"6.3.1"},{"rt":11791,"responses":{"age":"29","gender-categorical":"Female","gender-free-response":"","ethnicity":"Not Hispanic or Latino","race":["Asian","Native Hawaiian or other Pacific Islander","White"],"education":"Associate degree"},"survey":"demographics","trial_type":"survey-demo","trial_index":1,"time_elapsed":13166,"internal_node_id":"0.0-1.0","experiment":"validation","task_version":"1.1","jspsych_version":"6.3.1"},{"responses":{"Q09":"4","Q07":"4","Q05":"0","Q08":"2","Q01":"4","Q02":"4","Q10":"3","Q03":"3","Q04":"2","Q11":"0","Q06":"4"},"rt":23989.60000038147,"item_order":[8,6,4,7,0,1,9,2,3,10,5],"radio_events":[3172.800000190735,4332.60000038147,8588.60000038147,9700.400000572205,11068.900000572205,12204.400000572205,14740.400000572205,16708.70000076294,18820.60000038147,20956.60000038147,22372.5],"key_events":[],"mouse_events":[3172.800000190735,4332.60000038147,6668.700000762939,8588.60000038147,9700.400000572205,11068.900000572205,12204.400000572205,14740.400000572205,16708.70000076294,18820.60000038147,20324.70000076294,20956.60000038147,22372.5,23988.70000076294],"straightlining":0.36363636363636365,"zigzagging":0.2,"honeypot":0,"survey":"openness","trial_type":"survey-template","trial_index":2,"time_elapsed":37159,"internal_node_id":"0.0-2.0","experiment":"validation","task_version":"1.1","jspsych_version":"6.3.1","infrequency":0},{"responses":{"Q08":"2","Q10":"2","Q07":"3","Q05":"0","Q11":"4","Q04":"2","Q06":"2","Q09":"2","Q01":"2","Q03":"2","Q02":"2"},"rt":20301.79999923706,"item_order":[7,9,6,4,10,3,5,8,0,2,1],"radio_events":[4140.89999961853,5348.89999961853,6948.799999237061,8989,10596.89999961853,12197.099999427795,14620.79999923706,15965,17292.89999961853,18996.79999923706,19572.89999961853],"key_events":[],"mouse_events":[4140.89999961853,5348.89999961853,6948.799999237061,8989,10596.89999961853,12197.099999427795,14620.79999923706,15965,17292.89999961853,18996.79999923706,19572.89999961853,20300.89999961853],"straightlining":0.7272727272727273,"zigzagging":0.3,"honeypot":0,"survey":"neuroticism","trial_type":"survey-template","trial_index":3,"time_elapsed":57463,"internal_node_id":"0.0-3.0","experiment":"validation","task_version":"1.1","jspsych_version":"6.3.1","infrequency":0},{"responses":{"Q01":"2","Q02":"2","Q05":"3","Q07":"2","Q04":"1","Q03":"3","Q06":"1"},"rt":35326.199999809265,"item_order":[0,1,4,6,3,2,5],"radio_events":[4221.39999961853,10085.29999923706,12277.39999961853,16613.39999961853,21933.5,25877.39999961853,34525],"key_events":[],"mouse_events":[4221.39999961853,10085.29999923706,12277.39999961853,16613.39999961853,21933.5,24485.5,25877.39999961853,34525,35325.5],"straightlining":0.42857142857142855,"zigzagging":0.5,"honeypot":0,"survey":"nfc6","trial_type":"survey-template","trial_index":4,"time_elapsed":92790,"internal_node_id":"0.0-4.0","experiment":"validation","task_version":"1.1","jspsych_version":"6.3.1","infrequency":0},{"value":[0,1.5194805194805194,1],"trial_type":"call-function","trial_index":5,"time_elapsed":92791,"internal_node_id":"0.0-5.0","experiment":"validation","task_version":"1.1","jspsych_version":"6.3.1","interactions":"[]"}]