[{"view_history":[{"page_index":0,"viewing_time":1646.9000000953674}],"rt":1647.4000000953674,"trial_type":"instructions","trial_index":0,"time_elapsed":1656,"internal_node_id":"0.0-0.0","experiment":"validation","task_version":"1.1","jspsych_version":"6.3.1"},{"rt":11251.400000095367,"responses":{"age":"26","gender-categorical":"Female","gender-free-response":"","ethnicity":"Not Hispanic or Latino","race":["White"],"education":"Bachelor degree"},"survey":"demographics","trial_type":"survey-demo","trial_index":1,"time_elapsed":12912,"internal_node_id":"0.0-1.0","experiment":"validation","task_version":"1.1","jspsych_version":"6.3.1"},{"responses":{"Q06":"3","Q07":"2","Q05":"3","Q04":"1","Q02":"2","Q03":"3","Q01":"1"},"rt":70051.90000009537,"item_order":[5,6,4,3,1,2,0],"radio_events":[8100.700000047684,17448.599999904633,35468.700000047684,36778.59999990463,61732.799999952316,62508.700000047684,68432.59999990463],"key_events":[],"mouse_events":[8100.700000047684,17448.599999904633,33806.5,35468.700000047684,36778.59999990463,49105.90000009537,49402,51104.09999990463,52877.299999952316,54595.700000047684,55266.200000047684,55801.799999952316,56856.90000009537,61078.5,61732.799999952316,62508.700000047684,67021.20000004768,67587.20000004768,68432.59999990463,70048.5],"straightlining":0.42857142857142855,"zigzagging":0.6666666666666666,"honeypot":0,"survey":"nfc6","trial_type":"survey-template","trial_index":2,"time_elapsed":82970,"internal_node_id":"0.0-2.0","experiment":"validation","task_version":"1.1","jspsych_version":"6.3.1","infrequency":0},{"responses":{"Q05":"1","Q06":"3","Q09":"4","Q02":"4","Q07":"4","Q04":"1","Q03":"4","Q10":"4","Q01":"4","Q11":"0","Q08":"1"},"rt":65034.09999990463,"item_order":[4,5,8,1,6,3,2,9,0,10,7],"radio_events":[32774,39110.40000009537,42059,43840.09999990463,46157.59999990463,48865.59999990463,50815.200000047684,53147.59999990463,55274.200000047684,58533.200000047684,61673.200000047684],"key_events":[],"mouse_events":[32774,38088.40000009537,39110.40000009537,41403.59999990463,42059,43840.09999990463,46157.59999990463,48865.59999990463,50815.200000047684,53147.59999990463,55274.200000047684,58533.200000047684,61050.700000047684,61673.200000047684,65029.40000009537],"straightlining":0.36363636363636365,"zigzagging":0.7,"honeypot":0,"survey":"openness","trial_type":"survey-template","trial_index":3,"time_elapsed":148009,"internal_node_id":"0.0-3.0","experiment":"validation","task_version":"1.1","jspsych_version":"6.3.1","infrequency":0},{"responses":{"Q05":"3","Q01":"3","Q02":"3","Q06":"3","Q08":"2","Q07":"3","Q11":"4","Q03":"3","Q10":"3","Q09":"3","Q04":"3"},"rt":28806.700000047684,"item_order":[4,0,1,5,7,6,10,2,9,8,3],"radio_events":[3561.300000190735,4337.100000143051,5239.300000190735,6542.400000095367,11201,12583.200000047684,19623.300000190735,23042.900000095367,25256.700000047684,26016.10000014305,27881.60000014305],"key_events":[],"mouse_events":[2738.9000000953674,3561.300000190735,4337.100000143051,5239.300000190735,6542.400000095367,11201,12583.200000047684,15412.200000047684,19623.300000190735,22396.5,23042.900000095367,23915,25256.700000047684,26016.10000014305,27334.200000047684,27881.60000014305,28802.400000095367],"straightlining":0.45454545454545453,"zigzagging":0.3,"honeypot":0,"survey":"neuroticism","trial_type":"survey-template","trial_index":4,"time_elapsed":176821,"internal_node_id":"0.0-4.0","experiment":"validation","task_version":"1.1","jspsych_version":"6.3.1","infrequency":0},{"value":[0,1.2467532467532467,1.6666666666666667],"trial_type":"call-function","trial_index":5,"time_elapsed":176824,"internal_node_id":"0.0-5.0","experiment":"validation","task_version":"1.1","jspsych_version":"6.3.1","interactions":"[{\"event\":\"blur\",\"trial\":3,\"time\":94412},{\"event\":\"focus\",\"trial\":3,\"time\":109004}]"}]