subject,trial,dimension,item_set,test_form,item,distractor,accuracy,rt,logrt
076hlg2u9qp5j02ui073rpxd,1,2,3,1.0,1,pd,1.0,1.34,0.29266961396282004
076hlg2u9qp5j02ui073rpxd,2,2,3,1.0,6,pd,1.0,6.655,1.895368451847075
076hlg2u9qp5j02ui073rpxd,3,3,3,1.0,15,pd,1.0,2.793,1.0271162869630397
076hlg2u9qp5j02ui073rpxd,4,3,3,1.0,10,pd,0.0,6.078,1.8046756944946014
076hlg2u9qp5j02ui073rpxd,5,4,3,1.0,12,pd,0.0,7.464,2.010091463545043
076hlg2u9qp5j02ui073rpxd,6,4,3,1.0,23,pd,1.0,3.094,1.1294647521508743
076hlg2u9qp5j02ui073rpxd,7,5,3,1.0,52,pd,1.0,7.454,2.0087508010570665
076hlg2u9qp5j02ui073rpxd,8,5,3,1.0,59,pd,1.0,3.517,1.2576083534918454
0cpxpi0rwueyzwtmwm09r1gi,1,2,3,1.0,1,pd,1.0,5.645,1.7307701976016252
0cpxpi0rwueyzwtmwm09r1gi,2,2,3,1.0,6,pd,1.0,16.535,2.805479346433756
0cpxpi0rwueyzwtmwm09r1gi,3,3,3,1.0,15,pd,,,
0cpxpi0rwueyzwtmwm09r1gi,4,3,3,1.0,10,pd,0.0,8.71,2.1644717908644115
0cpxpi0rwueyzwtmwm09r1gi,5,4,3,1.0,16,pd,1.0,18.758,2.9316203280867468
0cpxpi0rwueyzwtmwm09r1gi,6,4,3,1.0,17,pd,0.0,9.775,2.2798281058714296
0cpxpi0rwueyzwtmwm09r1gi,7,5,3,1.0,52,pd,1.0,7.462,2.0098234747989663
0cpxpi0rwueyzwtmwm09r1gi,8,5,3,1.0,59,pd,0.0,13.415,2.5963734838775876
0elzwr27vqu4uwbj8gg93lug,1,2,3,1.0,19,pd,1.0,7.898,2.066609562864458
0elzwr27vqu4uwbj8gg93lug,2,2,3,1.0,20,pd,1.0,7.989,2.078065595499905
0elzwr27vqu4uwbj8gg93lug,3,3,3,1.0,11,pd,1.0,10.827,2.382043014328761
0elzwr27vqu4uwbj8gg93lug,4,3,3,1.0,18,pd,0.0,11.415,2.434928279981759
0elzwr27vqu4uwbj8gg93lug,5,4,3,1.0,16,pd,1.0,8.811,2.1760009408845926
0elzwr27vqu4uwbj8gg93lug,6,4,3,1.0,17,pd,1.0,12.861,2.5541994762839497
0elzwr27vqu4uwbj8gg93lug,7,5,3,1.0,52,pd,1.0,11.632,2.4537599207911636
0elzwr27vqu4uwbj8gg93lug,8,5,3,1.0,59,pd,0.0,15.189,2.720571481655882
10vsq79n9pi9zrrc7ihh4gpb,1,2,3,1.0,19,pd,0.0,6.973,1.9420455482388737
10vsq79n9pi9zrrc7ihh4gpb,2,2,3,1.0,20,pd,1.0,8.779,2.1723625059440717
10vsq79n9pi9zrrc7ihh4gpb,3,3,3,1.0,11,pd,1.0,17.587,2.8671599927542273
10vsq79n9pi9zrrc7ihh4gpb,4,3,3,1.0,18,pd,1.0,20.583,3.0244654923768635
10vsq79n9pi9zrrc7ihh4gpb,5,4,3,1.0,12,pd,0.0,6.201,1.8247105693677408
10vsq79n9pi9zrrc7ihh4gpb,6,4,3,1.0,23,pd,1.0,8.973,2.1942200683159205
10vsq79n9pi9zrrc7ihh4gpb,7,5,3,1.0,52,pd,1.0,15.749,2.756776871192444
10vsq79n9pi9zrrc7ihh4gpb,8,5,3,1.0,59,pd,1.0,7.102,1.9603764345208963
1fpmgsend1l8bjvx30truqd4,1,2,3,1.0,1,pd,1.0,4.215,1.4386495914538187
1fpmgsend1l8bjvx30truqd4,2,2,3,1.0,6,pd,1.0,16.281,2.7899987837493776
1fpmgsend1l8bjvx30truqd4,3,3,3,1.0,15,pd,1.0,18.008,2.890816103604431
1fpmgsend1l8bjvx30truqd4,4,3,3,1.0,10,pd,0.0,16.399,2.797220357361309
1fpmgsend1l8bjvx30truqd4,5,4,3,1.0,16,pd,1.0,10.672,2.367623489173268
1fpmgsend1l8bjvx30truqd4,6,4,3,1.0,17,pd,1.0,20.289,3.0100788672609124
1fpmgsend1l8bjvx30truqd4,7,5,3,1.0,52,pd,1.0,18.145,2.898395040665034
1fpmgsend1l8bjvx30truqd4,8,5,3,1.0,59,pd,1.0,18.912,2.939796641223688
1gbumjgvj8h8v6uiq4vwef7w,1,2,3,1.0,1,pd,1.0,1.895,0.6392188385343897
1gbumjgvj8h8v6uiq4vwef7w,2,2,3,1.0,6,pd,0.0,10.023,2.304882452042729
1gbumjgvj8h8v6uiq4vwef7w,3,3,3,1.0,15,pd,0.0,14.09,2.645465325910589
1gbumjgvj8h8v6uiq4vwef7w,4,3,3,1.0,10,pd,1.0,7.906,2.0676219648744936
1gbumjgvj8h8v6uiq4vwef7w,5,4,3,1.0,16,pd,1.0,10.746,2.37453359230663
1gbumjgvj8h8v6uiq4vwef7w,6,4,3,1.0,17,pd,1.0,26.165,3.264422639824171
1gbumjgvj8h8v6uiq4vwef7w,7,5,3,1.0,52,pd,0.0,8.893,2.185264450417503
1gbumjgvj8h8v6uiq4vwef7w,8,5,3,1.0,59,pd,0.0,13.32,2.589266665112243
1i2nvqvazywxiayn3v5v16ej,1,2,3,1.0,1,pd,1.0,1.603,0.47187687362741587
1i2nvqvazywxiayn3v5v16ej,2,2,3,1.0,6,pd,0.0,2.646,0.973049065692764
1i2nvqvazywxiayn3v5v16ej,3,3,3,1.0,11,pd,0.0,1.658,0.5056120567131032
1i2nvqvazywxiayn3v5v16ej,4,3,3,1.0,18,pd,0.0,0.838,-0.17673717850005405
1i2nvqvazywxiayn3v5v16ej,5,4,3,1.0,16,pd,0.0,0.977,-0.02326862693935433
1i2nvqvazywxiayn3v5v16ej,6,4,3,1.0,17,pd,0.0,3.295,1.1924061679544706
1i2nvqvazywxiayn3v5v16ej,7,5,3,1.0,14,pd,0.0,2.05,0.7178397931503168
1i2nvqvazywxiayn3v5v16ej,8,5,3,1.0,26,pd,1.0,1.331,0.2859305394129745
1wt4mr7p6qdp72srb0u5esx0,1,2,3,1.0,19,pd,1.0,10.467,2.3482274508727468
1wt4mr7p6qdp72srb0u5esx0,2,2,3,1.0,20,pd,1.0,10.877,2.3866504681117133
1wt4mr7p6qdp72srb0u5esx0,3,3,3,1.0,15,pd,0.0,11.836,2.4711457345379633
1wt4mr7p6qdp72srb0u5esx0,4,3,3,1.0,10,pd,1.0,12.809,2.550148048848999
1wt4mr7p6qdp72srb0u5esx0,5,4,3,1.0,12,pd,0.0,4.198,1.4346082213984412
1wt4mr7p6qdp72srb0u5esx0,6,4,3,1.0,23,pd,1.0,19.466,2.968669354004302
1wt4mr7p6qdp72srb0u5esx0,7,5,3,1.0,14,pd,1.0,24.656,3.2050202785777597
1wt4mr7p6qdp72srb0u5esx0,8,5,3,1.0,26,pd,1.0,27.824,3.325898957611927
1zskm2bzi8y5p5g4j8qhpdz6,1,2,3,1.0,19,pd,1.0,7.679,2.0384893303484066
1zskm2bzi8y5p5g4j8qhpdz6,2,2,3,1.0,20,pd,1.0,12.67,2.5392369943330477
1zskm2bzi8y5p5g4j8qhpdz6,3,3,3,1.0,15,pd,0.0,10.463,2.34784522439891
1zskm2bzi8y5p5g4j8qhpdz6,4,3,3,1.0,10,pd,1.0,6.365,1.85081423200937
1zskm2bzi8y5p5g4j8qhpdz6,5,4,3,1.0,16,pd,1.0,14.126,2.6480170709867306
1zskm2bzi8y5p5g4j8qhpdz6,6,4,3,1.0,17,pd,0.0,18.27,2.9052603703899154
1zskm2bzi8y5p5g4j8qhpdz6,7,5,3,1.0,14,pd,1.0,15.79,2.7593768282675506
1zskm2bzi8y5p5g4j8qhpdz6,8,5,3,1.0,26,pd,0.0,16.391,2.7967324037072228
269f5wxawxko5vbndnerjhvt,1,2,3,1.0,19,pd,1.0,4.985,1.6064334034138017
269f5wxawxko5vbndnerjhvt,2,2,3,1.0,20,pd,1.0,6.574,1.8831224752420277
269f5wxawxko5vbndnerjhvt,3,3,3,1.0,11,pd,1.0,7.305,1.9885590452026627
269f5wxawxko5vbndnerjhvt,4,3,3,1.0,18,pd,0.0,9.531,2.254549643955489
269f5wxawxko5vbndnerjhvt,5,4,3,1.0,16,pd,1.0,7.779,2.051427795224637
269f5wxawxko5vbndnerjhvt,6,4,3,1.0,17,pd,1.0,8.687,2.1618276552777833
269f5wxawxko5vbndnerjhvt,7,5,3,1.0,52,pd,1.0,11.489,2.441390055871228
269f5wxawxko5vbndnerjhvt,8,5,3,1.0,59,pd,1.0,20.262,3.0087472106314856
2h7dpwlrhggmhm1t3amwo0oj,1,2,3,1.0,1,pd,1.0,4.422,1.4865920824352545
2h7dpwlrhggmhm1t3amwo0oj,2,2,3,1.0,6,pd,1.0,8.251,2.110334405122206
2h7dpwlrhggmhm1t3amwo0oj,3,3,3,1.0,11,pd,1.0,14.433,2.669517251385426
2h7dpwlrhggmhm1t3amwo0oj,4,3,3,1.0,18,pd,1.0,9.992,2.3017847728232765
2h7dpwlrhggmhm1t3amwo0oj,5,4,3,1.0,16,pd,1.0,11.407,2.434227202045761
2h7dpwlrhggmhm1t3amwo0oj,6,4,3,1.0,17,pd,1.0,18.512,2.9184191704513207
2h7dpwlrhggmhm1t3amwo0oj,7,5,3,1.0,52,pd,1.0,13.048,2.5686348653187125
2h7dpwlrhggmhm1t3amwo0oj,8,5,3,1.0,59,pd,0.0,23.185,3.143505517843424
2vx94rtcv5761j9exne2q7tc,1,2,3,1.0,19,pd,0.0,8.588,2.1503658800165346
2vx94rtcv5761j9exne2q7tc,2,2,3,1.0,20,pd,0.0,18.447,2.914901755639442
2vx94rtcv5761j9exne2q7tc,3,3,3,1.0,11,pd,0.0,18.133,2.8977334826718883
2vx94rtcv5761j9exne2q7tc,4,3,3,1.0,18,pd,1.0,17.643,2.8703391041459287
2vx94rtcv5761j9exne2q7tc,5,4,3,1.0,12,pd,1.0,17.35,2.8535925063928684
2vx94rtcv5761j9exne2q7tc,6,4,3,1.0,23,pd,1.0,9.405,2.2412414627529937
2vx94rtcv5761j9exne2q7tc,7,5,3,1.0,52,pd,0.0,28.809,3.3606878383239454
2vx94rtcv5761j9exne2q7tc,8,5,3,1.0,59,pd,0.0,28.986,3.3668129548003245
35aldkywb2cdl1crrf5iyowk,1,2,3,1.0,1,pd,1.0,1.934,0.6595903970311026
35aldkywb2cdl1crrf5iyowk,2,2,3,1.0,6,pd,1.0,5.535,1.7110915661606003
35aldkywb2cdl1crrf5iyowk,3,3,3,1.0,11,pd,0.0,11.029,2.4005281673240098
35aldkywb2cdl1crrf5iyowk,4,3,3,1.0,18,pd,0.0,9.014,2.1987789242684563
35aldkywb2cdl1crrf5iyowk,5,4,3,1.0,12,pd,0.0,5.752,1.7495476204187455
35aldkywb2cdl1crrf5iyowk,6,4,3,1.0,23,pd,1.0,5.465,1.698364121628502
35aldkywb2cdl1crrf5iyowk,7,5,3,1.0,14,pd,0.0,10.924,2.3909622036114584
35aldkywb2cdl1crrf5iyowk,8,5,3,1.0,26,pd,0.0,8.236,2.108514789165543
3d10c17cmj2694l83ha5s0bz,1,2,3,1.0,19,pd,1.0,8.697,2.162978138607628
3d10c17cmj2694l83ha5s0bz,2,2,3,1.0,20,pd,1.0,15.508,2.741356019808683
3d10c17cmj2694l83ha5s0bz,3,3,3,1.0,11,pd,0.0,16.538,2.805660763299975
3d10c17cmj2694l83ha5s0bz,4,3,3,1.0,18,pd,1.0,16.49,2.8027541365715076
3d10c17cmj2694l83ha5s0bz,5,4,3,1.0,12,pd,1.0,24.631,3.2040058122014723
3d10c17cmj2694l83ha5s0bz,6,4,3,1.0,23,pd,1.0,11.315,2.4261292790855005
3d10c17cmj2694l83ha5s0bz,7,5,3,1.0,14,pd,0.0,24.392,3.1942552096859536
3d10c17cmj2694l83ha5s0bz,8,5,3,1.0,26,pd,1.0,13.265,2.585128987589703
3ec999ycpel7dfncdwejf065,1,2,3,1.0,19,pd,1.0,8.711,2.164586594836755
3ec999ycpel7dfncdwejf065,2,2,3,1.0,20,pd,1.0,3.572,1.2731256630142527
3ec999ycpel7dfncdwejf065,3,3,3,1.0,15,pd,0.0,4.747,1.5575128395691809
3ec999ycpel7dfncdwejf065,4,3,3,1.0,10,pd,0.0,13.686,2.616373412530306
3ec999ycpel7dfncdwejf065,5,4,3,1.0,12,pd,0.0,9.131,2.211675217634203
3ec999ycpel7dfncdwejf065,6,4,3,1.0,23,pd,1.0,9.499,2.2511865299080456
3ec999ycpel7dfncdwejf065,7,5,3,1.0,14,pd,0.0,14.506,2.6745623569412205
3ec999ycpel7dfncdwejf065,8,5,3,1.0,26,pd,1.0,11.997,2.484656618532791
3pb65a6ips5u5tm3kthitq9r,1,2,3,1.0,1,pd,1.0,2.341,0.8505781885087738
3pb65a6ips5u5tm3kthitq9r,2,2,3,1.0,6,pd,1.0,14.601,2.681090019519427
3pb65a6ips5u5tm3kthitq9r,3,3,3,1.0,15,pd,1.0,23.307,3.1487537446363936
3pb65a6ips5u5tm3kthitq9r,4,3,3,1.0,10,pd,1.0,18.649,2.9257925253493093
3pb65a6ips5u5tm3kthitq9r,5,4,3,1.0,12,pd,1.0,16.941,2.8297367193588094
3pb65a6ips5u5tm3kthitq9r,6,4,3,1.0,23,pd,1.0,12.093,2.4926267728031384
3pb65a6ips5u5tm3kthitq9r,7,5,3,1.0,52,pd,,,
3pb65a6ips5u5tm3kthitq9r,8,5,3,1.0,59,pd,0.0,17.975,2.8889819036071103
47ykiekww9y3m9xiv79o4xp8,1,2,3,1.0,1,pd,1.0,2.711,0.9973175705165285
47ykiekww9y3m9xiv79o4xp8,2,2,3,1.0,6,pd,1.0,17.157,2.842406253601289
47ykiekww9y3m9xiv79o4xp8,3,3,3,1.0,15,pd,0.0,27.854,3.3269765826309
47ykiekww9y3m9xiv79o4xp8,4,3,3,1.0,10,pd,1.0,19.27,2.958549482426275
47ykiekww9y3m9xiv79o4xp8,5,4,3,1.0,16,pd,1.0,7.293,1.986914984002096
47ykiekww9y3m9xiv79o4xp8,6,4,3,1.0,17,pd,0.0,12.532,2.5282853730899455
47ykiekww9y3m9xiv79o4xp8,7,5,3,1.0,14,pd,1.0,16.967,2.8312702810608026
47ykiekww9y3m9xiv79o4xp8,8,5,3,1.0,26,pd,1.0,11.082,2.405322170445158
4fqdfdjmop2egr2j5gwum6dv,1,2,3,1.0,1,pd,1.0,4.023,1.392027892967651
4fqdfdjmop2egr2j5gwum6dv,2,2,3,1.0,6,pd,1.0,7.475,2.01156411927675
4fqdfdjmop2egr2j5gwum6dv,3,3,3,1.0,11,pd,1.0,24.555,3.200915499491208
4fqdfdjmop2egr2j5gwum6dv,4,3,3,1.0,18,pd,0.0,20.07,2.9992261628082466
4fqdfdjmop2egr2j5gwum6dv,5,4,3,1.0,16,pd,1.0,9.47,2.248128907197987
4fqdfdjmop2egr2j5gwum6dv,6,4,3,1.0,17,pd,1.0,22.676,3.1213070964620573
4fqdfdjmop2egr2j5gwum6dv,7,5,3,1.0,52,pd,1.0,17.473,2.8606568323569013
4fqdfdjmop2egr2j5gwum6dv,8,5,3,1.0,59,pd,0.0,18.434,2.9141967855714728
4usywut659xwn8vd8ebcvt9p,1,2,3,1.0,19,pd,0.0,8.942,2.190759277811789
4usywut659xwn8vd8ebcvt9p,2,2,3,1.0,20,pd,1.0,10.48,2.349468678892896
4usywut659xwn8vd8ebcvt9p,3,3,3,1.0,15,pd,1.0,10.532,2.354418241634063
4usywut659xwn8vd8ebcvt9p,4,3,3,1.0,10,pd,1.0,12.025,2.486987815991825
4usywut659xwn8vd8ebcvt9p,5,4,3,1.0,12,pd,0.0,14.629,2.683005859995949
4usywut659xwn8vd8ebcvt9p,6,4,3,1.0,23,pd,1.0,9.842,2.2866589424437866
4usywut659xwn8vd8ebcvt9p,7,5,3,1.0,14,pd,0.0,14.427,2.6691014509636353
4usywut659xwn8vd8ebcvt9p,8,5,3,1.0,26,pd,1.0,15.687,2.752832343874103
4zcrmlklswop6kcqvyc11gdc,1,2,3,1.0,19,pd,1.0,5.943,1.7822140563845235
4zcrmlklswop6kcqvyc11gdc,2,2,3,1.0,20,pd,0.0,5.655,1.732540109568084
4zcrmlklswop6kcqvyc11gdc,3,3,3,1.0,15,pd,1.0,5.655,1.732540109568084
4zcrmlklswop6kcqvyc11gdc,4,3,3,1.0,10,pd,1.0,8.647,2.1572124399782933
4zcrmlklswop6kcqvyc11gdc,5,4,3,1.0,16,pd,1.0,4.544,1.5138076814188501
4zcrmlklswop6kcqvyc11gdc,6,4,3,1.0,17,pd,0.0,5.784,1.7550954848564635
4zcrmlklswop6kcqvyc11gdc,7,5,3,1.0,52,pd,0.0,6.536,1.8773253575577018
4zcrmlklswop6kcqvyc11gdc,8,5,3,1.0,59,pd,0.0,6.654,1.895218177596285
58unjwdq1szxwtav4c281qfc,1,2,3,1.0,19,pd,1.0,12.214,2.502582834800943
58unjwdq1szxwtav4c281qfc,2,2,3,1.0,20,pd,0.0,12.279,2.5078904861783755
58unjwdq1szxwtav4c281qfc,3,3,3,1.0,15,pd,0.0,20.558,3.0232501595907304
58unjwdq1szxwtav4c281qfc,4,3,3,1.0,10,pd,1.0,12.207,2.502009557687663
58unjwdq1szxwtav4c281qfc,5,4,3,1.0,12,pd,0.0,15.615,2.748231990735042
58unjwdq1szxwtav4c281qfc,6,4,3,1.0,23,pd,1.0,10.591,2.360004583861532
58unjwdq1szxwtav4c281qfc,7,5,3,1.0,14,pd,0.0,12.76,2.546315277916644
58unjwdq1szxwtav4c281qfc,8,5,3,1.0,26,pd,1.0,8.768,2.1711087302056598
5ad0fxo4nksxnoxek6jnwpqh,1,2,3,1.0,19,pd,1.0,8.175,2.101080716783317
5ad0fxo4nksxnoxek6jnwpqh,2,2,3,1.0,20,pd,0.0,9.255,2.225163946025461
5ad0fxo4nksxnoxek6jnwpqh,3,3,3,1.0,11,pd,0.0,14.416,2.668338700865982
5ad0fxo4nksxnoxek6jnwpqh,4,3,3,1.0,18,pd,1.0,17.14,2.8414149131696336
5ad0fxo4nksxnoxek6jnwpqh,5,4,3,1.0,16,pd,1.0,18.014,2.891149233361551
5ad0fxo4nksxnoxek6jnwpqh,6,4,3,1.0,17,pd,0.0,13.455,2.5993507841788692
5ad0fxo4nksxnoxek6jnwpqh,7,5,3,1.0,14,pd,1.0,24.228,3.187508989118701
5ad0fxo4nksxnoxek6jnwpqh,8,5,3,1.0,26,pd,1.0,16.268,2.7891999880449783
5b8sbhwigddofjapft20c4tv,1,2,3,1.0,1,pd,1.0,5.504,1.7054751006310425
5b8sbhwigddofjapft20c4tv,2,2,3,1.0,6,pd,1.0,13.446,2.598681664046845
5b8sbhwigddofjapft20c4tv,3,3,3,1.0,11,pd,1.0,21.005,3.0447605046213453
5b8sbhwigddofjapft20c4tv,4,3,3,1.0,18,pd,1.0,12.119,2.4947744689863502
5b8sbhwigddofjapft20c4tv,5,4,3,1.0,12,pd,1.0,11.542,2.4459925562887745
5b8sbhwigddofjapft20c4tv,6,4,3,1.0,23,pd,1.0,11.016,2.399348761426354
5b8sbhwigddofjapft20c4tv,7,5,3,1.0,14,pd,0.0,16.737,2.817621837531501
5b8sbhwigddofjapft20c4tv,8,5,3,1.0,26,pd,1.0,22.926,3.132271637692818
5d6jhia7y3nyo741tjb9vlsk,1,2,3,1.0,19,pd,1.0,10.09,2.3115448343655176
5d6jhia7y3nyo741tjb9vlsk,2,2,3,1.0,20,pd,1.0,12.977,2.5631785597550936
5d6jhia7y3nyo741tjb9vlsk,3,3,3,1.0,15,pd,0.0,15.477,2.7393550509306226
5d6jhia7y3nyo741tjb9vlsk,4,3,3,1.0,10,pd,0.0,21.544,3.0700973555092976
5d6jhia7y3nyo741tjb9vlsk,5,4,3,1.0,12,pd,0.0,5.543,1.7125358704376676
5d6jhia7y3nyo741tjb9vlsk,6,4,3,1.0,23,pd,1.0,3.598,1.2803781355283412
5d6jhia7y3nyo741tjb9vlsk,7,5,3,1.0,14,pd,1.0,5.349,1.676909627549113
5d6jhia7y3nyo741tjb9vlsk,8,5,3,1.0,26,pd,1.0,4.188,1.4322232930082903
5rnza8evzb7drfy8beyioein,1,2,3,1.0,1,pd,1.0,3.709,1.3107622985074538
5rnza8evzb7drfy8beyioein,2,2,3,1.0,6,pd,1.0,14.284,2.659140029732202
5rnza8evzb7drfy8beyioein,3,3,3,1.0,11,pd,1.0,11.892,2.4758659051358514
5rnza8evzb7drfy8beyioein,4,3,3,1.0,18,pd,0.0,20.949,3.042090912532008
5rnza8evzb7drfy8beyioein,5,4,3,1.0,16,pd,1.0,7.806,2.054892668758423
5rnza8evzb7drfy8beyioein,6,4,3,1.0,17,pd,,,
5rnza8evzb7drfy8beyioein,7,5,3,1.0,14,pd,0.0,14.151,2.6497852929702344
5rnza8evzb7drfy8beyioein,8,5,3,1.0,26,pd,1.0,23.805,3.169895642646482
5t74t9y7ibglnlge2f71vyk2,1,2,3,1.0,1,pd,1.0,2.96,1.085189268335969
5t74t9y7ibglnlge2f71vyk2,2,2,3,1.0,6,pd,1.0,3.212,1.1668937960845154
5t74t9y7ibglnlge2f71vyk2,3,3,3,1.0,15,pd,0.0,3.237,1.1746469749441073
5t74t9y7ibglnlge2f71vyk2,4,3,3,1.0,10,pd,0.0,1.857,0.6189622823705687
5t74t9y7ibglnlge2f71vyk2,5,4,3,1.0,12,pd,0.0,2.876,1.0564004398588003
5t74t9y7ibglnlge2f71vyk2,6,4,3,1.0,23,pd,1.0,11.077,2.4048708865347956
5t74t9y7ibglnlge2f71vyk2,7,5,3,1.0,52,pd,0.0,8.279,2.113722188156669
5t74t9y7ibglnlge2f71vyk2,8,5,3,1.0,59,pd,0.0,3.802,1.3355272440662374
5xsiamm1cbvk38j2nigikj6i,1,2,3,1.0,19,pd,1.0,6.966,1.9410411719438094
5xsiamm1cbvk38j2nigikj6i,2,2,3,1.0,20,pd,0.0,5.459,1.6972656227996206
5xsiamm1cbvk38j2nigikj6i,3,3,3,1.0,11,pd,1.0,16.093,2.778384394836358
5xsiamm1cbvk38j2nigikj6i,4,3,3,1.0,18,pd,1.0,5.309,1.6694034936015345
5xsiamm1cbvk38j2nigikj6i,5,4,3,1.0,12,pd,0.0,6.729,1.906426544206181
5xsiamm1cbvk38j2nigikj6i,6,4,3,1.0,23,pd,1.0,6.322,1.844035613793426
5xsiamm1cbvk38j2nigikj6i,7,5,3,1.0,52,pd,1.0,4.948,1.5989834545302415
5xsiamm1cbvk38j2nigikj6i,8,5,3,1.0,59,pd,0.0,7.205,1.9747752294514853
6m37f5y8vcdo1b9utotly0oi,1,2,3,1.0,19,pd,0.0,5.613,1.7250853359600624
6m37f5y8vcdo1b9utotly0oi,2,2,3,1.0,20,pd,1.0,4.121,1.4160958523566805
6m37f5y8vcdo1b9utotly0oi,3,3,3,1.0,11,pd,0.0,4.426,1.487496241628858
6m37f5y8vcdo1b9utotly0oi,4,3,3,1.0,18,pd,0.0,2.831,1.0406300061297626
6m37f5y8vcdo1b9utotly0oi,5,4,3,1.0,12,pd,1.0,6.433,1.8614409924288633
6m37f5y8vcdo1b9utotly0oi,6,4,3,1.0,23,pd,0.0,5.588,1.7206214413947154
6m37f5y8vcdo1b9utotly0oi,7,5,3,1.0,14,pd,0.0,5.301,1.667895482005669
6m37f5y8vcdo1b9utotly0oi,8,5,3,1.0,26,pd,0.0,5.541,1.7121749898852128
6paqscjsfw9kpdn1lzg32po9,1,2,3,1.0,1,pd,1.0,2.807,1.0321162973797453
6paqscjsfw9kpdn1lzg32po9,2,2,3,1.0,6,pd,1.0,10.373,2.339206276449691
6paqscjsfw9kpdn1lzg32po9,3,3,3,1.0,15,pd,1.0,16.366,2.79520601210519
6paqscjsfw9kpdn1lzg32po9,4,3,3,1.0,10,pd,0.0,17.915,2.885638350756917
6paqscjsfw9kpdn1lzg32po9,5,4,3,1.0,16,pd,1.0,17.125,2.840539384148289
6paqscjsfw9kpdn1lzg32po9,6,4,3,1.0,17,pd,1.0,21.262,3.0569214418664137
6paqscjsfw9kpdn1lzg32po9,7,5,3,1.0,52,pd,0.0,23.156,3.142253926216758
6paqscjsfw9kpdn1lzg32po9,8,5,3,1.0,59,pd,0.0,18.493,2.9173922821027394
6yenwqo50hemozitvo738ila,1,2,3,1.0,1,pd,1.0,2.153,0.766862218382226
6yenwqo50hemozitvo738ila,2,2,3,1.0,6,pd,0.0,14.084,2.6450394012928062
6yenwqo50hemozitvo738ila,3,3,3,1.0,15,pd,0.0,18.235,2.9033428242606436
6yenwqo50hemozitvo738ila,4,3,3,1.0,10,pd,1.0,22.695,3.122144635908429
6yenwqo50hemozitvo738ila,5,4,3,1.0,16,pd,1.0,11.649,2.45522033941764
6yenwqo50hemozitvo738ila,6,4,3,1.0,17,pd,0.0,19.14,2.9517803860248084
6yenwqo50hemozitvo738ila,7,5,3,1.0,52,pd,0.0,27.952,3.330488753391701
6yenwqo50hemozitvo738ila,8,5,3,1.0,59,pd,0.0,16.733,2.8173828175124367
71e80tf73in7sys4sre6ajc3,1,2,3,1.0,1,pd,1.0,3.628,1.2886815322528902
71e80tf73in7sys4sre6ajc3,2,2,3,1.0,6,pd,1.0,9.057,2.2035379393928114
71e80tf73in7sys4sre6ajc3,3,3,3,1.0,15,pd,1.0,11.563,2.447810345146825
71e80tf73in7sys4sre6ajc3,4,3,3,1.0,10,pd,1.0,23.56,3.159550358783386
71e80tf73in7sys4sre6ajc3,5,4,3,1.0,16,pd,1.0,17.834,2.8811067477126877
71e80tf73in7sys4sre6ajc3,6,4,3,1.0,17,pd,1.0,17.492,2.8617436335506743
71e80tf73in7sys4sre6ajc3,7,5,3,1.0,14,pd,1.0,21.885,3.085801470642859
71e80tf73in7sys4sre6ajc3,8,5,3,1.0,26,pd,0.0,18.81,2.934388643312939
7c517gtaonz1mxh2s0meyyps,1,2,3,1.0,1,pd,1.0,2.641,0.9711576333149952
7c517gtaonz1mxh2s0meyyps,2,2,3,1.0,6,pd,0.0,9.408,2.241560391156271
7c517gtaonz1mxh2s0meyyps,3,3,3,1.0,11,pd,1.0,11.154,2.411798177967362
7c517gtaonz1mxh2s0meyyps,4,3,3,1.0,18,pd,0.0,16.157,2.7823533922946933
7c517gtaonz1mxh2s0meyyps,5,4,3,1.0,16,pd,1.0,7.724,2.044332364566268
7c517gtaonz1mxh2s0meyyps,6,4,3,1.0,17,pd,0.0,11.803,2.468353736446932
7c517gtaonz1mxh2s0meyyps,7,5,3,1.0,52,pd,0.0,8.313,2.1178205545489512
7c517gtaonz1mxh2s0meyyps,8,5,3,1.0,59,pd,0.0,11.722,2.4614674180542373
7gw2yagzw18akzx2c5jh8x0j,1,2,3,1.0,19,pd,0.0,2.449,0.8956797779700306
7gw2yagzw18akzx2c5jh8x0j,2,2,3,1.0,20,pd,0.0,5.494,1.703656587673082
7gw2yagzw18akzx2c5jh8x0j,3,3,3,1.0,15,pd,1.0,2.54,0.9321640810304452
7gw2yagzw18akzx2c5jh8x0j,4,3,3,1.0,10,pd,1.0,4.595,1.5249687558076503
7gw2yagzw18akzx2c5jh8x0j,5,4,3,1.0,12,pd,0.0,2.749,1.0112372091831088
7gw2yagzw18akzx2c5jh8x0j,6,4,3,1.0,23,pd,1.0,6.749,1.9093943457612694
7gw2yagzw18akzx2c5jh8x0j,7,5,3,1.0,14,pd,1.0,5.914,1.7773224214302854
7gw2yagzw18akzx2c5jh8x0j,8,5,3,1.0,26,pd,1.0,4.107,1.4126928349744217
7smbe5sw31ir72kkjh46hxb5,1,2,3,1.0,19,pd,1.0,7.057,1.9540200320186933
7smbe5sw31ir72kkjh46hxb5,2,2,3,1.0,20,pd,1.0,7.049,1.9528857627917386
7smbe5sw31ir72kkjh46hxb5,3,3,3,1.0,11,pd,1.0,27.177,3.3023710273552602
7smbe5sw31ir72kkjh46hxb5,4,3,3,1.0,18,pd,1.0,4.575,1.5206066987274847
7smbe5sw31ir72kkjh46hxb5,5,4,3,1.0,16,pd,1.0,3.187,1.1590800354351993
7smbe5sw31ir72kkjh46hxb5,6,4,3,1.0,17,pd,0.0,6.736,1.9074662769400255
7smbe5sw31ir72kkjh46hxb5,7,5,3,1.0,52,pd,0.0,26.159,3.26419329955866
7smbe5sw31ir72kkjh46hxb5,8,5,3,1.0,59,pd,1.0,18.965,2.942595175140862
7x60mnzq9z7glfp22gmui82y,1,2,3,1.0,1,pd,1.0,2.799,1.0292622105333165
7x60mnzq9z7glfp22gmui82y,2,2,3,1.0,6,pd,1.0,5.952,1.7837272975307907
7x60mnzq9z7glfp22gmui82y,3,3,3,1.0,11,pd,1.0,9.696,2.2717134293269585
7x60mnzq9z7glfp22gmui82y,4,3,3,1.0,18,pd,1.0,13.392,2.5946575137471193
7x60mnzq9z7glfp22gmui82y,5,4,3,1.0,16,pd,1.0,11.52,2.444084655267745
7x60mnzq9z7glfp22gmui82y,6,4,3,1.0,17,pd,1.0,14.76,2.6919208191723265
7x60mnzq9z7glfp22gmui82y,7,5,3,1.0,52,pd,0.0,18.632,2.92488053258204
7x60mnzq9z7glfp22gmui82y,8,5,3,1.0,59,pd,0.0,8.136,2.096298658746259
861v0fk5nwd59atkvjagduyd,1,2,3,1.0,1,pd,1.0,4.695,1.5464981126602262
861v0fk5nwd59atkvjagduyd,2,2,3,1.0,6,pd,1.0,11.906,2.4770424747311983
861v0fk5nwd59atkvjagduyd,3,3,3,1.0,15,pd,0.0,20.494,3.020132160377526
861v0fk5nwd59atkvjagduyd,4,3,3,1.0,10,pd,1.0,20.531,3.021935939050627
861v0fk5nwd59atkvjagduyd,5,4,3,1.0,16,pd,1.0,17.74,2.8758219768814333
861v0fk5nwd59atkvjagduyd,6,4,3,1.0,17,pd,1.0,15.138,2.7172081388869755
861v0fk5nwd59atkvjagduyd,7,5,3,1.0,52,pd,0.0,27.088,3.2990908253907794
861v0fk5nwd59atkvjagduyd,8,5,3,1.0,59,pd,0.0,27.192,3.302922812393815
916h4l4wzxi8bjye3bd741e6,1,2,3,1.0,1,pd,1.0,4.602,1.5264909916131741
916h4l4wzxi8bjye3bd741e6,2,2,3,1.0,6,pd,0.0,11.136,2.410183103592064
916h4l4wzxi8bjye3bd741e6,3,3,3,1.0,11,pd,1.0,19.406,2.965582296603108
916h4l4wzxi8bjye3bd741e6,4,3,3,1.0,18,pd,0.0,17.013,2.833977757700001
916h4l4wzxi8bjye3bd741e6,5,4,3,1.0,12,pd,0.0,5.768,1.752325399982648
916h4l4wzxi8bjye3bd741e6,6,4,3,1.0,23,pd,0.0,3.389,1.2205348926249142
916h4l4wzxi8bjye3bd741e6,7,5,3,1.0,52,pd,1.0,7.237,1.9792067558839908
916h4l4wzxi8bjye3bd741e6,8,5,3,1.0,59,pd,0.0,12.572,2.531472118935321
9bz0re3h0r0j1a0x8o4x5cie,1,2,3,1.0,1,pd,1.0,2.925,1.0732944806838198
9bz0re3h0r0j1a0x8o4x5cie,2,2,3,1.0,6,pd,0.0,10.936,2.3920600994216485
9bz0re3h0r0j1a0x8o4x5cie,3,3,3,1.0,11,pd,0.0,11.569,2.448329107046752
9bz0re3h0r0j1a0x8o4x5cie,4,3,3,1.0,18,pd,1.0,10.26,2.3282528397426234
9bz0re3h0r0j1a0x8o4x5cie,5,4,3,1.0,16,pd,1.0,6.352,1.8487697239448346
9bz0re3h0r0j1a0x8o4x5cie,6,4,3,1.0,17,pd,1.0,13.681,2.616008008937977
9bz0re3h0r0j1a0x8o4x5cie,7,5,3,1.0,14,pd,1.0,16.391,2.7967324037072228
9bz0re3h0r0j1a0x8o4x5cie,8,5,3,1.0,26,pd,1.0,12.062,2.490060015028795
9wubfmhiyu2ygfz2dasvibw0,1,2,3,1.0,19,pd,0.0,4.084,1.407076900302419
9wubfmhiyu2ygfz2dasvibw0,2,2,3,1.0,20,pd,1.0,10.389,2.3407475540883946
9wubfmhiyu2ygfz2dasvibw0,3,3,3,1.0,15,pd,1.0,12.356,2.514141775056335
9wubfmhiyu2ygfz2dasvibw0,4,3,3,1.0,10,pd,1.0,10.824,2.381765890868487
9wubfmhiyu2ygfz2dasvibw0,5,4,3,1.0,16,pd,1.0,8.9,2.186051276738094
9wubfmhiyu2ygfz2dasvibw0,6,4,3,1.0,17,pd,1.0,9.277,2.2275382186711346
9wubfmhiyu2ygfz2dasvibw0,7,5,3,1.0,14,pd,1.0,15.063,2.712241405720678
9wubfmhiyu2ygfz2dasvibw0,8,5,3,1.0,26,pd,1.0,10.807,2.3801940723210286
a7xws1zeh1hi9810qv1e67u0,1,2,3,1.0,1,pd,1.0,5.575,1.7182923173461826
a7xws1zeh1hi9810qv1e67u0,2,2,3,1.0,6,pd,1.0,8.021,2.0820631023847875
a7xws1zeh1hi9810qv1e67u0,3,3,3,1.0,15,pd,1.0,2.422,0.8845936451309006
a7xws1zeh1hi9810qv1e67u0,4,3,3,1.0,10,pd,1.0,11.989,2.4839895627255166
a7xws1zeh1hi9810qv1e67u0,5,4,3,1.0,16,pd,1.0,8.524,2.1428857142363706
a7xws1zeh1hi9810qv1e67u0,6,4,3,1.0,17,pd,1.0,3.403,1.2246573955187687
a7xws1zeh1hi9810qv1e67u0,7,5,3,1.0,52,pd,1.0,4.208,1.4369874754354088
a7xws1zeh1hi9810qv1e67u0,8,5,3,1.0,59,pd,0.0,4.642,1.5351453078522455
amfgiujf84nee6xej79u94nz,1,2,3,1.0,19,pd,1.0,7.753,2.048079865236822
amfgiujf84nee6xej79u94nz,2,2,3,1.0,20,pd,1.0,15.254,2.724841763742047
amfgiujf84nee6xej79u94nz,3,3,3,1.0,11,pd,1.0,17.785,2.8783554054004186
amfgiujf84nee6xej79u94nz,4,3,3,1.0,18,pd,1.0,18.825,2.9351857736859572
amfgiujf84nee6xej79u94nz,5,4,3,1.0,16,pd,1.0,11.277,2.4227652532501507
amfgiujf84nee6xej79u94nz,6,4,3,1.0,17,pd,1.0,26.687,3.2841765554503364
amfgiujf84nee6xej79u94nz,7,5,3,1.0,14,pd,1.0,29.185,3.3736548786557545
amfgiujf84nee6xej79u94nz,8,5,3,1.0,26,pd,1.0,21.419,3.0642783785890053
aovqgbv5rexwvxs4ngqdcuzf,1,2,3,1.0,19,pd,0.0,7.003,1.9463386286733806
aovqgbv5rexwvxs4ngqdcuzf,2,2,3,1.0,20,pd,1.0,12.218,2.5029102742275753
aovqgbv5rexwvxs4ngqdcuzf,3,3,3,1.0,11,pd,1.0,14.371,2.66521228709211
aovqgbv5rexwvxs4ngqdcuzf,4,3,3,1.0,18,pd,1.0,14.307,2.660748927984197
aovqgbv5rexwvxs4ngqdcuzf,5,4,3,1.0,16,pd,1.0,9.172,2.2161553649956582
aovqgbv5rexwvxs4ngqdcuzf,6,4,3,1.0,17,pd,0.0,16.028,2.7743371927738982
aovqgbv5rexwvxs4ngqdcuzf,7,5,3,1.0,52,pd,0.0,14.983,2.7069162250610073
aovqgbv5rexwvxs4ngqdcuzf,8,5,3,1.0,59,pd,1.0,19.45,2.9678470700644555
aqdtfik9c5jdgmgtj17n5s60,1,2,3,1.0,19,pd,1.0,2.107,0.745265134822052
aqdtfik9c5jdgmgtj17n5s60,2,2,3,1.0,20,pd,1.0,1.655,0.5038010088290262
aqdtfik9c5jdgmgtj17n5s60,3,3,3,1.0,11,pd,1.0,1.678,0.5176026080450143
aqdtfik9c5jdgmgtj17n5s60,4,3,3,1.0,18,pd,0.0,1.076,0.07325046173959274
aqdtfik9c5jdgmgtj17n5s60,5,4,3,1.0,16,pd,1.0,1.95,0.6678293725756554
aqdtfik9c5jdgmgtj17n5s60,6,4,3,1.0,17,pd,0.0,1.373,0.316998126785834
aqdtfik9c5jdgmgtj17n5s60,7,5,3,1.0,14,pd,0.0,0.751,-0.28634962721800233
aqdtfik9c5jdgmgtj17n5s60,8,5,3,1.0,26,pd,1.0,1.908,0.6460555730260947
b0x8nafpqqyclhwanq3pkmb9,1,2,3,1.0,1,pd,1.0,2.015,0.7006191953986464
b0x8nafpqqyclhwanq3pkmb9,2,2,3,1.0,6,pd,1.0,5.64,1.7298840655099674
b0x8nafpqqyclhwanq3pkmb9,3,3,3,1.0,11,pd,1.0,14.28,2.658859956911438
b0x8nafpqqyclhwanq3pkmb9,4,3,3,1.0,18,pd,1.0,13.384,2.594059963684523
b0x8nafpqqyclhwanq3pkmb9,5,4,3,1.0,16,pd,1.0,4.624,1.5312601313700762
b0x8nafpqqyclhwanq3pkmb9,6,4,3,1.0,17,pd,0.0,11.273,2.422410486062394
b0x8nafpqqyclhwanq3pkmb9,7,5,3,1.0,14,pd,1.0,14.663,2.685327313994942
b0x8nafpqqyclhwanq3pkmb9,8,5,3,1.0,26,pd,1.0,14.719,2.6891391762104497
b15a2vfqksmoc9tpyn31ffcd,1,2,3,1.0,1,pd,1.0,2.51,0.9202827531436925
b15a2vfqksmoc9tpyn31ffcd,2,2,3,1.0,6,pd,1.0,5.905,1.7757994496493257
b15a2vfqksmoc9tpyn31ffcd,3,3,3,1.0,11,pd,1.0,12.452,2.521881252579362
b15a2vfqksmoc9tpyn31ffcd,4,3,3,1.0,18,pd,1.0,14.175,2.651479849613816
b15a2vfqksmoc9tpyn31ffcd,5,4,3,1.0,12,pd,1.0,6.059,1.801544769962852
b15a2vfqksmoc9tpyn31ffcd,6,4,3,1.0,23,pd,1.0,5.865,1.7690024821054389
b15a2vfqksmoc9tpyn31ffcd,7,5,3,1.0,52,pd,0.0,16.238,2.787354174440255
b15a2vfqksmoc9tpyn31ffcd,8,5,3,1.0,59,pd,0.0,10.178,2.320228528166641
b4cw2gdp51btdceicdu9q0oh,1,2,3,1.0,19,pd,0.0,2.832,1.0409831758314734
b4cw2gdp51btdceicdu9q0oh,2,2,3,1.0,20,pd,1.0,4.376,1.47613506511968
b4cw2gdp51btdceicdu9q0oh,3,3,3,1.0,15,pd,1.0,5.432,1.692307390256395
b4cw2gdp51btdceicdu9q0oh,4,3,3,1.0,10,pd,0.0,11.248,2.420190335068309
b4cw2gdp51btdceicdu9q0oh,5,4,3,1.0,12,pd,0.0,8.688,2.1619427631915795
b4cw2gdp51btdceicdu9q0oh,6,4,3,1.0,23,pd,1.0,8.568,2.1480343331454477
b4cw2gdp51btdceicdu9q0oh,7,5,3,1.0,52,pd,0.0,11.136,2.410183103592064
b4cw2gdp51btdceicdu9q0oh,8,5,3,1.0,59,pd,1.0,10.808,2.3802866006578975
bb967z2toxxn0x33ep6y7oro,1,2,3,1.0,19,pd,1.0,9.135,2.21211318982997
bb967z2toxxn0x33ep6y7oro,2,2,3,1.0,20,pd,1.0,5.915,1.7774914974303502
bb967z2toxxn0x33ep6y7oro,3,3,3,1.0,15,pd,0.0,3.832,1.343386860108614
bb967z2toxxn0x33ep6y7oro,4,3,3,1.0,10,pd,1.0,9.138,2.2124415431410798
bb967z2toxxn0x33ep6y7oro,5,4,3,1.0,12,pd,0.0,3.292,1.1914952828148233
bb967z2toxxn0x33ep6y7oro,6,4,3,1.0,23,pd,1.0,7.429,2.0053912601696693
bb967z2toxxn0x33ep6y7oro,7,5,3,1.0,14,pd,0.0,6.992,1.9447666383532343
bb967z2toxxn0x33ep6y7oro,8,5,3,1.0,26,pd,0.0,7.193,1.973108330885219
bg3bdltoygqx8m0nzt8ci6g6,1,2,3,1.0,19,pd,1.0,7.266,1.9832059337990102
bg3bdltoygqx8m0nzt8ci6g6,2,2,3,1.0,20,pd,1.0,8.704,2.163782690113587
bg3bdltoygqx8m0nzt8ci6g6,3,3,3,1.0,15,pd,1.0,15.433,2.7365080739186944
bg3bdltoygqx8m0nzt8ci6g6,4,3,3,1.0,10,pd,0.0,16.098,2.778695040671542
bg3bdltoygqx8m0nzt8ci6g6,5,4,3,1.0,12,pd,0.0,6.243,1.8314608360796072
bg3bdltoygqx8m0nzt8ci6g6,6,4,3,1.0,23,pd,1.0,7.266,1.9832059337990102
bg3bdltoygqx8m0nzt8ci6g6,7,5,3,1.0,14,pd,1.0,9.84,2.286455711064162
bg3bdltoygqx8m0nzt8ci6g6,8,5,3,1.0,26,pd,0.0,16.965,2.8311523982361932
bguww2kl1i4embfjm9cmy1oq,1,2,3,1.0,1,pd,1.0,3.123,1.1387940783009416
bguww2kl1i4embfjm9cmy1oq,2,2,3,1.0,6,pd,0.0,9.452,2.246226359324661
bguww2kl1i4embfjm9cmy1oq,3,3,3,1.0,11,pd,0.0,9.736,2.275830355685226
bguww2kl1i4embfjm9cmy1oq,4,3,3,1.0,18,pd,1.0,7.363,1.9964674583865798
bguww2kl1i4embfjm9cmy1oq,5,4,3,1.0,16,pd,1.0,6.183,1.8218035905764316
bguww2kl1i4embfjm9cmy1oq,6,4,3,1.0,17,pd,0.0,12.959,2.5617905274532773
bguww2kl1i4embfjm9cmy1oq,7,5,3,1.0,14,pd,1.0,14.371,2.66521228709211
bguww2kl1i4embfjm9cmy1oq,8,5,3,1.0,26,pd,0.0,26.259,3.2680087874184105
bim3nfivv3jfscqect9yvn3i,1,2,3,1.0,1,pd,1.0,1.499,0.4047982191204607
bim3nfivv3jfscqect9yvn3i,2,2,3,1.0,6,pd,1.0,5.38,1.682688374173693
bim3nfivv3jfscqect9yvn3i,3,3,3,1.0,11,pd,1.0,9.323,2.2324844653145566
bim3nfivv3jfscqect9yvn3i,4,3,3,1.0,18,pd,0.0,9.749,2.2771647156471344
bim3nfivv3jfscqect9yvn3i,5,4,3,1.0,16,pd,1.0,10.174,2.3198354464005733
bim3nfivv3jfscqect9yvn3i,6,4,3,1.0,17,pd,1.0,13.157,2.5769539363837013
bim3nfivv3jfscqect9yvn3i,7,5,3,1.0,52,pd,1.0,11.511,2.443303099932925
bim3nfivv3jfscqect9yvn3i,8,5,3,1.0,59,pd,0.0,13.929,2.6339729977058943
bmteqvb5orljgrihy986c136,1,2,3,1.0,1,pd,1.0,2.751,1.0119644819424374
bmteqvb5orljgrihy986c136,2,2,3,1.0,6,pd,1.0,5.928,1.7796868879937857
bmteqvb5orljgrihy986c136,3,3,3,1.0,15,pd,0.0,10.632,2.363868321410944
bmteqvb5orljgrihy986c136,4,3,3,1.0,10,pd,0.0,15.539,2.743352992804597
bmteqvb5orljgrihy986c136,5,4,3,1.0,16,pd,1.0,6.484,1.8693376038734297
bmteqvb5orljgrihy986c136,6,4,3,1.0,17,pd,1.0,18.464,2.915822890325689
bmteqvb5orljgrihy986c136,7,5,3,1.0,52,pd,0.0,6.292,1.8392789851960314
bmteqvb5orljgrihy986c136,8,5,3,1.0,59,pd,0.0,11.216,2.4173413302922344
bnzoabc931851ubzsmnoh4jr,1,2,3,1.0,1,pd,1.0,4.365,1.4736181892915656
bnzoabc931851ubzsmnoh4jr,2,2,3,1.0,6,pd,0.0,9.673,2.2693384992004098
bnzoabc931851ubzsmnoh4jr,3,3,3,1.0,15,pd,1.0,11.842,2.4716525341095843
bnzoabc931851ubzsmnoh4jr,4,3,3,1.0,10,pd,0.0,4.45,1.4929040961781488
bnzoabc931851ubzsmnoh4jr,5,4,3,1.0,16,pd,0.0,10.446,2.346219130014107
bnzoabc931851ubzsmnoh4jr,6,4,3,1.0,17,pd,1.0,24.619,3.203518502547159
bnzoabc931851ubzsmnoh4jr,7,5,3,1.0,52,pd,1.0,8.944,2.1909829164127435
bnzoabc931851ubzsmnoh4jr,8,5,3,1.0,59,pd,1.0,13.203,2.580444076497064
bqmggoo03ysfb6urpkfayu1l,1,2,3,1.0,19,pd,1.0,6.546,1.8788541760789887
bqmggoo03ysfb6urpkfayu1l,2,2,3,1.0,20,pd,1.0,7.907,2.06774844308879
bqmggoo03ysfb6urpkfayu1l,3,3,3,1.0,11,pd,1.0,9.105,2.208823713179571
bqmggoo03ysfb6urpkfayu1l,4,3,3,1.0,18,pd,0.0,9.547,2.2562269690158963
bqmggoo03ysfb6urpkfayu1l,5,4,3,1.0,16,pd,1.0,17.169,2.843105432095075
bqmggoo03ysfb6urpkfayu1l,6,4,3,1.0,17,pd,1.0,11.749,2.4637681305854358
bqmggoo03ysfb6urpkfayu1l,7,5,3,1.0,14,pd,0.0,8.805,2.1753197419481696
bqmggoo03ysfb6urpkfayu1l,8,5,3,1.0,26,pd,0.0,18.263,2.904877155209905
bvqzl9fx0jdq4vlm8w50jrwi,1,2,3,1.0,1,pd,1.0,1.974,0.6800619410112898
bvqzl9fx0jdq4vlm8w50jrwi,2,2,3,1.0,6,pd,1.0,3.018,1.1045943603456572
bvqzl9fx0jdq4vlm8w50jrwi,3,3,3,1.0,11,pd,1.0,9.362,2.2366589428778787
bvqzl9fx0jdq4vlm8w50jrwi,4,3,3,1.0,18,pd,1.0,8.197,2.1037682336708934
bvqzl9fx0jdq4vlm8w50jrwi,5,4,3,1.0,16,pd,1.0,4.408,1.4834210718506133
bvqzl9fx0jdq4vlm8w50jrwi,6,4,3,1.0,17,pd,1.0,13.171,2.5780174430169094
bvqzl9fx0jdq4vlm8w50jrwi,7,5,3,1.0,52,pd,1.0,7.681,2.0387497470165448
bvqzl9fx0jdq4vlm8w50jrwi,8,5,3,1.0,59,pd,0.0,12.852,2.553499441253612
c6nqai3ppicym9vqexh80tg3,1,2,3,1.0,1,pd,1.0,2.358,0.8578138021151792
c6nqai3ppicym9vqexh80tg3,2,2,3,1.0,6,pd,0.0,6.08,1.8050046959780757
c6nqai3ppicym9vqexh80tg3,3,3,3,1.0,15,pd,0.0,7.189,1.9725520800017344
c6nqai3ppicym9vqexh80tg3,4,3,3,1.0,10,pd,0.0,8.417,2.130253470229439
c6nqai3ppicym9vqexh80tg3,5,4,3,1.0,16,pd,1.0,9.326,2.2328061983861294
c6nqai3ppicym9vqexh80tg3,6,4,3,1.0,17,pd,1.0,21.52,3.0689827352935835
c6nqai3ppicym9vqexh80tg3,7,5,3,1.0,52,pd,1.0,16.047,2.775521916217223
c6nqai3ppicym9vqexh80tg3,8,5,3,1.0,59,pd,1.0,14.827,2.696449843035889
ciet9vpu24uv7rxytk6tcxuu,1,2,3,1.0,19,pd,1.0,4.159,1.4252746607607745
ciet9vpu24uv7rxytk6tcxuu,2,2,3,1.0,20,pd,1.0,10.029,2.3054808961060713
ciet9vpu24uv7rxytk6tcxuu,3,3,3,1.0,15,pd,1.0,12.317,2.5109804219593475
ciet9vpu24uv7rxytk6tcxuu,4,3,3,1.0,10,pd,0.0,17.062,2.836853768486503
ciet9vpu24uv7rxytk6tcxuu,5,4,3,1.0,12,pd,1.0,13.831,2.6269124496425706
ciet9vpu24uv7rxytk6tcxuu,6,4,3,1.0,23,pd,1.0,9.167,2.2156100789796387
ciet9vpu24uv7rxytk6tcxuu,7,5,3,1.0,52,pd,1.0,20.583,3.0244654923768635
ciet9vpu24uv7rxytk6tcxuu,8,5,3,1.0,59,pd,1.0,21.551,3.070422219185435
ckedf3b7jzqesg5lnjf5somo,1,2,3,1.0,1,pd,1.0,2.861,1.0511712140679732
ckedf3b7jzqesg5lnjf5somo,2,2,3,1.0,6,pd,1.0,7.39,2.0001277349601105
ckedf3b7jzqesg5lnjf5somo,3,3,3,1.0,15,pd,1.0,9.661,2.2680971625353723
ckedf3b7jzqesg5lnjf5somo,4,3,3,1.0,10,pd,1.0,14.842,2.6974609995479417
ckedf3b7jzqesg5lnjf5somo,5,4,3,1.0,12,pd,1.0,17.261,2.8484496214045523
ckedf3b7jzqesg5lnjf5somo,6,4,3,1.0,23,pd,1.0,11.461,2.4389499675145623
ckedf3b7jzqesg5lnjf5somo,7,5,3,1.0,14,pd,1.0,18.036,2.8923697605588377
ckedf3b7jzqesg5lnjf5somo,8,5,3,1.0,26,pd,0.0,20.568,3.0237364699635885
cmfakatmv0nai6eflfnczpho,1,2,3,1.0,19,pd,1.0,6.703,1.9025551873758206
cmfakatmv0nai6eflfnczpho,2,2,3,1.0,20,pd,1.0,10.839,2.383150740833613
cmfakatmv0nai6eflfnczpho,3,3,3,1.0,15,pd,0.0,15.088,2.7138997258911015
cmfakatmv0nai6eflfnczpho,4,3,3,1.0,10,pd,1.0,9.343,2.2346273998108184
cmfakatmv0nai6eflfnczpho,5,4,3,1.0,16,pd,1.0,8.743,2.168253380198754
cmfakatmv0nai6eflfnczpho,6,4,3,1.0,17,pd,1.0,15.032,2.7101812621111643
cmfakatmv0nai6eflfnczpho,7,5,3,1.0,14,pd,1.0,11.351,2.4293058457732024
cmfakatmv0nai6eflfnczpho,8,5,3,1.0,26,pd,1.0,15.528,2.742644845866709
d2ko9mppeps02krwfyhdooah,1,2,3,1.0,19,pd,1.0,12.441,2.520997469932354
d2ko9mppeps02krwfyhdooah,2,2,3,1.0,20,pd,1.0,14.987,2.707183158662859
d2ko9mppeps02krwfyhdooah,3,3,3,1.0,15,pd,1.0,29.599,3.387740576975546
d2ko9mppeps02krwfyhdooah,4,3,3,1.0,10,pd,1.0,22.932,3.1325333150461363
d2ko9mppeps02krwfyhdooah,5,4,3,1.0,12,pd,1.0,29.308,3.3778605162977176
d2ko9mppeps02krwfyhdooah,6,4,3,1.0,23,pd,1.0,10.126,2.3151063735477173
d2ko9mppeps02krwfyhdooah,7,5,3,1.0,52,pd,0.0,29.083,3.370153811030694
d2ko9mppeps02krwfyhdooah,8,5,3,1.0,59,pd,1.0,28.809,3.3606878383239454
d79e6wzq7mnr7g3u6fyuxpyl,1,2,3,1.0,1,pd,1.0,3.37,1.2149127443642704
d79e6wzq7mnr7g3u6fyuxpyl,2,2,3,1.0,6,pd,1.0,7.589,2.0266998304217756
d79e6wzq7mnr7g3u6fyuxpyl,3,3,3,1.0,11,pd,1.0,8.008,2.0804410420129194
d79e6wzq7mnr7g3u6fyuxpyl,4,3,3,1.0,18,pd,1.0,8.169,2.100346502359732
d79e6wzq7mnr7g3u6fyuxpyl,5,4,3,1.0,12,pd,1.0,8.076,2.088896700450591
d79e6wzq7mnr7g3u6fyuxpyl,6,4,3,1.0,23,pd,1.0,6.655,1.895368451847075
d79e6wzq7mnr7g3u6fyuxpyl,7,5,3,1.0,14,pd,1.0,9.133,2.211894227709542
d79e6wzq7mnr7g3u6fyuxpyl,8,5,3,1.0,26,pd,0.0,11.063,2.403606207052774
dd4q0uzcr55cskrcz27z24sc,1,2,3,1.0,1,pd,1.0,1.872,0.6270073780554004
dd4q0uzcr55cskrcz27z24sc,2,2,3,1.0,6,pd,1.0,6.613,1.8890374086925255
dd4q0uzcr55cskrcz27z24sc,3,3,3,1.0,15,pd,1.0,6.895,1.930796511245265
dd4q0uzcr55cskrcz27z24sc,4,3,3,1.0,10,pd,0.0,10.937,2.3921515363530887
dd4q0uzcr55cskrcz27z24sc,5,4,3,1.0,16,pd,0.0,7.965,2.0750569433620116
dd4q0uzcr55cskrcz27z24sc,6,4,3,1.0,17,pd,1.0,3.548,1.266384064447333
dd4q0uzcr55cskrcz27z24sc,7,5,3,1.0,52,pd,0.0,4.697,1.546924007044858
dd4q0uzcr55cskrcz27z24sc,8,5,3,1.0,59,pd,1.0,1.61,0.4762341789963717
ddz3bkstcj6vzqizcv08skck,1,2,3,1.0,1,pd,1.0,2.864,1.052219249098399
ddz3bkstcj6vzqizcv08skck,2,2,3,1.0,6,pd,0.0,16.678,2.8140904856647935
ddz3bkstcj6vzqizcv08skck,3,3,3,1.0,11,pd,1.0,15.951,2.769521523190311
ddz3bkstcj6vzqizcv08skck,4,3,3,1.0,18,pd,0.0,17.048,2.836032894796316
ddz3bkstcj6vzqizcv08skck,5,4,3,1.0,16,pd,1.0,10.366,2.338531219767515
ddz3bkstcj6vzqizcv08skck,6,4,3,1.0,17,pd,1.0,17.096,2.8388445180168467
ddz3bkstcj6vzqizcv08skck,7,5,3,1.0,14,pd,1.0,15.696,2.7534059028230073
ddz3bkstcj6vzqizcv08skck,8,5,3,1.0,26,pd,1.0,17.639,2.87011235962934
dj21a374lijvbrmhst2hd3b5,1,2,3,1.0,19,pd,1.0,7.574,2.024721329479603
dj21a374lijvbrmhst2hd3b5,2,2,3,1.0,20,pd,1.0,11.529,2.4448656002508167
dj21a374lijvbrmhst2hd3b5,3,3,3,1.0,11,pd,1.0,10.043,2.306875874411202
dj21a374lijvbrmhst2hd3b5,4,3,3,1.0,18,pd,1.0,13.259,2.5846765671325818
dj21a374lijvbrmhst2hd3b5,5,4,3,1.0,16,pd,1.0,8.252,2.1104555952090056
dj21a374lijvbrmhst2hd3b5,6,4,3,1.0,17,pd,1.0,22.655,3.1203805781191014
dj21a374lijvbrmhst2hd3b5,7,5,3,1.0,14,pd,0.0,23.921,3.1747567342286507
dj21a374lijvbrmhst2hd3b5,8,5,3,1.0,26,pd,1.0,29.262,3.3762897459559706
dqv12yv7mc6sjik35hhojjm9,1,2,3,1.0,19,pd,0.0,4.375,1.4759065198095778
dqv12yv7mc6sjik35hhojjm9,2,2,3,1.0,20,pd,1.0,4.372,1.4752205703142922
dqv12yv7mc6sjik35hhojjm9,3,3,3,1.0,11,pd,1.0,5.692,1.739061680227606
dqv12yv7mc6sjik35hhojjm9,4,3,3,1.0,18,pd,1.0,4.816,1.57194370800652
dqv12yv7mc6sjik35hhojjm9,5,4,3,1.0,12,pd,0.0,4.817,1.5721513276480839
dqv12yv7mc6sjik35hhojjm9,6,4,3,1.0,23,pd,1.0,5.114,1.6319818768689949
dqv12yv7mc6sjik35hhojjm9,7,5,3,1.0,52,pd,0.0,5.687,1.7381828683246627
dqv12yv7mc6sjik35hhojjm9,8,5,3,1.0,59,pd,0.0,4.35,1.4701758451005926
e1db8635tk57zd1wfii8pub4,1,2,3,1.0,1,pd,1.0,9.175,2.216482393940634
e1db8635tk57zd1wfii8pub4,2,2,3,1.0,6,pd,0.0,18.268,2.9051508953227527
e1db8635tk57zd1wfii8pub4,3,3,3,1.0,15,pd,,,
e1db8635tk57zd1wfii8pub4,4,3,3,1.0,10,pd,,,
e1db8635tk57zd1wfii8pub4,5,4,3,1.0,12,pd,0.0,27.402,3.310616003430917
e1db8635tk57zd1wfii8pub4,6,4,3,1.0,23,pd,0.0,3.625,1.2878542883066382
e1db8635tk57zd1wfii8pub4,7,5,3,1.0,14,pd,1.0,4.247,1.446212851331134
e1db8635tk57zd1wfii8pub4,8,5,3,1.0,26,pd,0.0,6.871,1.927309656048939
e1nl0grkiat5rfv52e7f9i82,1,2,3,1.0,19,pd,1.0,12.118,2.4946919505227974
e1nl0grkiat5rfv52e7f9i82,2,2,3,1.0,20,pd,1.0,22.464,3.1119140278434005
e1nl0grkiat5rfv52e7f9i82,3,3,3,1.0,15,pd,1.0,25.681,3.2457514188735557
e1nl0grkiat5rfv52e7f9i82,4,3,3,1.0,10,pd,1.0,17.759,2.8768924296724583
e1nl0grkiat5rfv52e7f9i82,5,4,3,1.0,12,pd,1.0,12.756,2.5460017491478113
e1nl0grkiat5rfv52e7f9i82,6,4,3,1.0,23,pd,1.0,16.846,2.824113239893172
e1nl0grkiat5rfv52e7f9i82,7,5,3,1.0,14,pd,1.0,21.317,3.0595048764510575
e1nl0grkiat5rfv52e7f9i82,8,5,3,1.0,26,pd,1.0,25.843,3.252039771246633
eh2ff5nnebaun0ukl8isoov6,1,2,3,1.0,19,pd,0.0,8.472,2.1367666082991055
eh2ff5nnebaun0ukl8isoov6,2,2,3,1.0,20,pd,0.0,5.488,1.7025638904235842
eh2ff5nnebaun0ukl8isoov6,3,3,3,1.0,15,pd,0.0,9.031,2.2006631032686617
eh2ff5nnebaun0ukl8isoov6,4,3,3,1.0,10,pd,0.0,10.885,2.3873856946865106
eh2ff5nnebaun0ukl8isoov6,5,4,3,1.0,16,pd,0.0,9.964,2.298978597399934
eh2ff5nnebaun0ukl8isoov6,6,4,3,1.0,17,pd,1.0,8.69,2.162172939277301
eh2ff5nnebaun0ukl8isoov6,7,5,3,1.0,52,pd,0.0,15.234,2.7235297719505964
eh2ff5nnebaun0ukl8isoov6,8,5,3,1.0,59,pd,0.0,11.145,2.410990966837832
et1y68os2qkp3aphx26icrsj,1,2,3,1.0,1,pd,1.0,2.652,0.9753140723236161
et1y68os2qkp3aphx26icrsj,2,2,3,1.0,6,pd,1.0,2.823,1.0378001492713522
et1y68os2qkp3aphx26icrsj,3,3,3,1.0,11,pd,0.0,1.481,0.3927175352856618
et1y68os2qkp3aphx26icrsj,4,3,3,1.0,18,pd,0.0,0.777,-0.25231492861448956
et1y68os2qkp3aphx26icrsj,5,4,3,1.0,16,pd,1.0,0.881,-0.12669765304595754
et1y68os2qkp3aphx26icrsj,6,4,3,1.0,17,pd,1.0,0.713,-0.33827385856784115
et1y68os2qkp3aphx26icrsj,7,5,3,1.0,52,pd,1.0,0.74,-0.3011050927839216
et1y68os2qkp3aphx26icrsj,8,5,3,1.0,59,pd,0.0,9.612,2.2630123178742223
fb7k4aysxa2o2pqr6x4tmws7,1,2,3,1.0,19,pd,0.0,8.447,2.1338113487453594
fb7k4aysxa2o2pqr6x4tmws7,2,2,3,1.0,20,pd,0.0,10.447,2.346314855855371
fb7k4aysxa2o2pqr6x4tmws7,3,3,3,1.0,11,pd,0.0,7.247,1.9805875901271444
fb7k4aysxa2o2pqr6x4tmws7,4,3,3,1.0,18,pd,1.0,7.927,2.070274653855019
fb7k4aysxa2o2pqr6x4tmws7,5,4,3,1.0,12,pd,0.0,6.433,1.8614409924288633
fb7k4aysxa2o2pqr6x4tmws7,6,4,3,1.0,23,pd,1.0,5.816,1.7606127402312182
fb7k4aysxa2o2pqr6x4tmws7,7,5,3,1.0,14,pd,0.0,18.303,2.9070649808378253
fb7k4aysxa2o2pqr6x4tmws7,8,5,3,1.0,26,pd,0.0,14.008,2.6396285949835505
fk10xuijobp50mlaq2y5y2ce,1,2,3,1.0,19,pd,0.0,1.954,0.669878553620591
fk10xuijobp50mlaq2y5y2ce,2,2,3,1.0,20,pd,0.0,6.559,1.8808381523115985
fk10xuijobp50mlaq2y5y2ce,3,3,3,1.0,15,pd,1.0,5.716,1.743269260067621
fk10xuijobp50mlaq2y5y2ce,4,3,3,1.0,10,pd,0.0,8.807,2.1755468598233225
fk10xuijobp50mlaq2y5y2ce,5,4,3,1.0,12,pd,0.0,6.368,1.851285448542082
fk10xuijobp50mlaq2y5y2ce,6,4,3,1.0,23,pd,0.0,4.77,1.5623463049002497
fk10xuijobp50mlaq2y5y2ce,7,5,3,1.0,14,pd,0.0,6.686,1.900015787997907
fk10xuijobp50mlaq2y5y2ce,8,5,3,1.0,26,pd,0.0,4.683,1.5439389302014046
fmxp3czl5pcqd9ww0gb2wxnu,1,2,3,1.0,1,pd,1.0,2.188,0.7829878845597349
fmxp3czl5pcqd9ww0gb2wxnu,2,2,3,1.0,6,pd,1.0,7.748,2.0474347455447495
fmxp3czl5pcqd9ww0gb2wxnu,3,3,3,1.0,15,pd,1.0,21.342,3.060676962194373
fmxp3czl5pcqd9ww0gb2wxnu,4,3,3,1.0,10,pd,1.0,13.429,2.597416547599038
fmxp3czl5pcqd9ww0gb2wxnu,5,4,3,1.0,16,pd,1.0,8.058,2.0866653867691554
fmxp3czl5pcqd9ww0gb2wxnu,6,4,3,1.0,17,pd,1.0,16.704,2.8156482117002284
fmxp3czl5pcqd9ww0gb2wxnu,7,5,3,1.0,14,pd,1.0,12.896,2.5569171857642727
fmxp3czl5pcqd9ww0gb2wxnu,8,5,3,1.0,26,pd,1.0,15.68,2.7523860149222616
fnrunzz344heazawmlln7qa8,1,2,3,1.0,19,pd,0.0,4.341,1.4681047363174566
fnrunzz344heazawmlln7qa8,2,2,3,1.0,20,pd,0.0,2.235,0.8042412280655321
fnrunzz344heazawmlln7qa8,3,3,3,1.0,15,pd,0.0,1.173,0.15956456967133845
fnrunzz344heazawmlln7qa8,4,3,3,1.0,10,pd,0.0,1.653,0.5025918188388871
fnrunzz344heazawmlln7qa8,5,4,3,1.0,16,pd,0.0,1.558,0.4434029474485566
fnrunzz344heazawmlln7qa8,6,4,3,1.0,17,pd,1.0,3.519,1.2581768583394481
fnrunzz344heazawmlln7qa8,7,5,3,1.0,52,pd,0.0,4.353,1.4708652625701604
fnrunzz344heazawmlln7qa8,8,5,3,1.0,59,pd,1.0,2.098,0.7409845099741054
fwofl8i6vltau2mue0te2hbl,1,2,3,1.0,1,pd,1.0,3.062,1.119068297235492
fwofl8i6vltau2mue0te2hbl,2,2,3,1.0,6,pd,1.0,3.881,1.3560928523867692
fwofl8i6vltau2mue0te2hbl,3,3,3,1.0,15,pd,0.0,9.644,2.2663359603189246
fwofl8i6vltau2mue0te2hbl,4,3,3,1.0,10,pd,1.0,8.323,2.1190227667639583
fwofl8i6vltau2mue0te2hbl,5,4,3,1.0,12,pd,0.0,7.566,2.0236645262108377
fwofl8i6vltau2mue0te2hbl,6,4,3,1.0,23,pd,1.0,10.438,2.3454529932212216
fwofl8i6vltau2mue0te2hbl,7,5,3,1.0,14,pd,1.0,13.328,2.589867085424487
fwofl8i6vltau2mue0te2hbl,8,5,3,1.0,26,pd,0.0,6.067,1.8028642489601607
fwoi5lg70mtdde5g3akr9ecb,1,2,3,1.0,19,pd,0.0,6.534,1.8770193131788784
fwoi5lg70mtdde5g3akr9ecb,2,2,3,1.0,20,pd,1.0,10.717,2.3718312657308602
fwoi5lg70mtdde5g3akr9ecb,3,3,3,1.0,11,pd,1.0,7.772,2.050527531515194
fwoi5lg70mtdde5g3akr9ecb,4,3,3,1.0,18,pd,1.0,10.134,2.315896107053718
fwoi5lg70mtdde5g3akr9ecb,5,4,3,1.0,16,pd,1.0,8.718,2.1653898538162006
fwoi5lg70mtdde5g3akr9ecb,6,4,3,1.0,17,pd,0.0,9.625,2.264363880173848
fwoi5lg70mtdde5g3akr9ecb,7,5,3,1.0,14,pd,0.0,9.07,2.2049722641270453
fwoi5lg70mtdde5g3akr9ecb,8,5,3,1.0,26,pd,1.0,10.117,2.3142171772237536
gf0om5v1hgekkkb9sbeju4vk,1,2,3,1.0,19,pd,1.0,5.736,1.7467621032973193
gf0om5v1hgekkkb9sbeju4vk,2,2,3,1.0,20,pd,1.0,9.397,2.240390489400928
gf0om5v1hgekkkb9sbeju4vk,3,3,3,1.0,15,pd,1.0,14.166,2.650844727331431
gf0om5v1hgekkkb9sbeju4vk,4,3,3,1.0,10,pd,1.0,15.56,2.7447035187502458
gf0om5v1hgekkkb9sbeju4vk,5,4,3,1.0,16,pd,1.0,19.424,2.9665094148770876
gf0om5v1hgekkkb9sbeju4vk,6,4,3,1.0,17,pd,0.0,19.647,2.9779246549040264
gf0om5v1hgekkkb9sbeju4vk,7,5,3,1.0,52,pd,0.0,24.371,3.193393900853509
gf0om5v1hgekkkb9sbeju4vk,8,5,3,1.0,59,pd,0.0,24.73,3.208017081533325
gno66up8i05lvmaecgnbwlcn,1,2,3,1.0,1,pd,1.0,2.535,0.9301936370431465
gno66up8i05lvmaecgnbwlcn,2,2,3,1.0,6,pd,0.0,4.272,1.4520821016578938
gno66up8i05lvmaecgnbwlcn,3,3,3,1.0,15,pd,1.0,13.519,2.6040961033822683
gno66up8i05lvmaecgnbwlcn,4,3,3,1.0,10,pd,1.0,17.227,2.846477920464232
gno66up8i05lvmaecgnbwlcn,5,4,3,1.0,16,pd,1.0,5.711,1.7423941396827258
gno66up8i05lvmaecgnbwlcn,6,4,3,1.0,17,pd,0.0,7.919,2.0692649352282753
gno66up8i05lvmaecgnbwlcn,7,5,3,1.0,14,pd,0.0,11.959,2.4814841329866706
gno66up8i05lvmaecgnbwlcn,8,5,3,1.0,26,pd,1.0,2.447,0.8948627844605347
gpn8qich9rvm3wmacxs220fq,1,2,3,1.0,1,pd,1.0,1.793,0.5838901946229957
gpn8qich9rvm3wmacxs220fq,2,2,3,1.0,6,pd,0.0,3.848,1.34755353280346
gpn8qich9rvm3wmacxs220fq,3,3,3,1.0,15,pd,1.0,7.882,2.0645816787728117
gpn8qich9rvm3wmacxs220fq,4,3,3,1.0,10,pd,1.0,5.285,1.664872619322201
gpn8qich9rvm3wmacxs220fq,5,4,3,1.0,12,pd,0.0,4.21,1.43746264769429
gpn8qich9rvm3wmacxs220fq,6,4,3,1.0,23,pd,1.0,6.516,1.8742606907397987
gpn8qich9rvm3wmacxs220fq,7,5,3,1.0,52,pd,1.0,6.967,1.9411847160479818
gpn8qich9rvm3wmacxs220fq,8,5,3,1.0,59,pd,1.0,5.4,1.6863989535702288
hj99vydmh5ej5i9dnkwlrl8a,1,2,3,1.0,19,pd,1.0,6.684,1.8997166107331473
hj99vydmh5ej5i9dnkwlrl8a,2,2,3,1.0,20,pd,1.0,4.099,1.4107430415222006
hj99vydmh5ej5i9dnkwlrl8a,3,3,3,1.0,11,pd,0.0,6.664,1.8967199048645416
hj99vydmh5ej5i9dnkwlrl8a,4,3,3,1.0,18,pd,1.0,10.191,2.3215049778465566
hj99vydmh5ej5i9dnkwlrl8a,5,4,3,1.0,16,pd,1.0,7.244,1.9801735400211669
hj99vydmh5ej5i9dnkwlrl8a,6,4,3,1.0,17,pd,1.0,16.272,2.789445839306204
hj99vydmh5ej5i9dnkwlrl8a,7,5,3,1.0,52,pd,1.0,5.873,1.7703655765403825
hj99vydmh5ej5i9dnkwlrl8a,8,5,3,1.0,59,pd,1.0,5.521,1.7085590033019076
hkaj2w2ieihsv4vt8myp7nyj,1,2,3,1.0,1,pd,1.0,1.787,0.580538236177291
hkaj2w2ieihsv4vt8myp7nyj,2,2,3,1.0,6,pd,1.0,10.791,2.3787124533815964
hkaj2w2ieihsv4vt8myp7nyj,3,3,3,1.0,11,pd,1.0,9.824,2.2848283714047866
hkaj2w2ieihsv4vt8myp7nyj,4,3,3,1.0,18,pd,1.0,10.021,2.304682891076192
hkaj2w2ieihsv4vt8myp7nyj,5,4,3,1.0,12,pd,0.0,8.364,2.123936781566387
hkaj2w2ieihsv4vt8myp7nyj,6,4,3,1.0,23,pd,1.0,8.634,2.155707897133286
hkaj2w2ieihsv4vt8myp7nyj,7,5,3,1.0,14,pd,0.0,8.34,2.1210632163706555
hkaj2w2ieihsv4vt8myp7nyj,8,5,3,1.0,26,pd,0.0,10.951,2.393430776293622
hm59giibm3v5mz759etodpks,1,2,3,1.0,1,pd,1.0,2.781,1.022810575251828
hm59giibm3v5mz759etodpks,2,2,3,1.0,6,pd,1.0,8.781,2.1725902963778587
hm59giibm3v5mz759etodpks,3,3,3,1.0,11,pd,1.0,10.188,2.321210557117211
hm59giibm3v5mz759etodpks,4,3,3,1.0,18,pd,0.0,17.6,2.8678989020441064
hm59giibm3v5mz759etodpks,5,4,3,1.0,12,pd,1.0,9.199,2.21909478249502
hm59giibm3v5mz759etodpks,6,4,3,1.0,23,pd,1.0,5.206,1.6498118065723737
hm59giibm3v5mz759etodpks,7,5,3,1.0,52,pd,0.0,15.849,2.7631064068502886
hm59giibm3v5mz759etodpks,8,5,3,1.0,59,pd,1.0,5.937,1.7812039552885384
i3qzg4lnh302twn5jhnsxcot,1,2,3,1.0,1,pd,1.0,4.757,1.5596172174501444
i3qzg4lnh302twn5jhnsxcot,2,2,3,1.0,6,pd,1.0,12.034,2.48773597679816
i3qzg4lnh302twn5jhnsxcot,3,3,3,1.0,15,pd,1.0,18.991,2.943965182732108
i3qzg4lnh302twn5jhnsxcot,4,3,3,1.0,10,pd,1.0,20.536,3.0221794435688394
i3qzg4lnh302twn5jhnsxcot,5,4,3,1.0,16,pd,1.0,8.25,2.1102132003465894
i3qzg4lnh302twn5jhnsxcot,6,4,3,1.0,17,pd,0.0,14.211,2.6540163126097243
i3qzg4lnh302twn5jhnsxcot,7,5,3,1.0,52,pd,1.0,17.718,2.874581071989841
i3qzg4lnh302twn5jhnsxcot,8,5,3,1.0,59,pd,0.0,13.678,2.6157887026759044
i4a29f5r5hfbpgssm2vjk741,1,2,3,1.0,1,pd,1.0,2.015,0.7006191953986464
i4a29f5r5hfbpgssm2vjk741,2,2,3,1.0,6,pd,0.0,10.972,2.395346573075357
i4a29f5r5hfbpgssm2vjk741,3,3,3,1.0,15,pd,1.0,9.444,2.2453796192232667
i4a29f5r5hfbpgssm2vjk741,4,3,3,1.0,10,pd,1.0,10.403,2.3420942260887583
i4a29f5r5hfbpgssm2vjk741,5,4,3,1.0,12,pd,1.0,11.7,2.4595888418037104
i4a29f5r5hfbpgssm2vjk741,6,4,3,1.0,23,pd,1.0,6.357,1.8495565679542718
i4a29f5r5hfbpgssm2vjk741,7,5,3,1.0,52,pd,1.0,14.069,2.6439737953950764
i4a29f5r5hfbpgssm2vjk741,8,5,3,1.0,59,pd,1.0,15.205,2.721624321129328
i4iqh3roj0xnxmoit1shq18t,1,2,3,1.0,19,pd,1.0,8.812,2.1761144289400964
i4iqh3roj0xnxmoit1shq18t,2,2,3,1.0,20,pd,1.0,6.994,1.9450526386411842
i4iqh3roj0xnxmoit1shq18t,3,3,3,1.0,15,pd,1.0,6.949,1.9385977643321903
i4iqh3roj0xnxmoit1shq18t,4,3,3,1.0,10,pd,0.0,14.611,2.6817746696899474
i4iqh3roj0xnxmoit1shq18t,5,4,3,1.0,12,pd,0.0,4.372,1.4752205703142922
i4iqh3roj0xnxmoit1shq18t,6,4,3,1.0,23,pd,1.0,10.667,2.367154863643346
i4iqh3roj0xnxmoit1shq18t,7,5,3,1.0,52,pd,0.0,12.188,2.5004518611234627
i4iqh3roj0xnxmoit1shq18t,8,5,3,1.0,59,pd,0.0,10.251,2.327375261801264
i7zrmmwvdnj5z4egmqshkxzy,1,2,3,1.0,19,pd,1.0,4.695,1.5464981126602262
i7zrmmwvdnj5z4egmqshkxzy,2,2,3,1.0,20,pd,0.0,11.022,2.399893275461044
i7zrmmwvdnj5z4egmqshkxzy,3,3,3,1.0,15,pd,1.0,16.048,2.7755842312195798
i7zrmmwvdnj5z4egmqshkxzy,4,3,3,1.0,10,pd,0.0,14.405,2.667575368536492
i7zrmmwvdnj5z4egmqshkxzy,5,4,3,1.0,12,pd,1.0,19.08,2.9486406660201405
i7zrmmwvdnj5z4egmqshkxzy,6,4,3,1.0,23,pd,1.0,8.341,2.1211831132594745
i7zrmmwvdnj5z4egmqshkxzy,7,5,3,1.0,14,pd,0.0,14.991,2.7074500210301777
i7zrmmwvdnj5z4egmqshkxzy,8,5,3,1.0,26,pd,0.0,17.63,2.869601996409779
igjmvdboset684mifuqojpij,1,2,3,1.0,19,pd,1.0,5.619,1.7261537121300612
igjmvdboset684mifuqojpij,2,2,3,1.0,20,pd,0.0,7.961,2.0745546201064413
igjmvdboset684mifuqojpij,3,3,3,1.0,15,pd,1.0,1.529,0.4246139269469252
igjmvdboset684mifuqojpij,4,3,3,1.0,10,pd,1.0,8.314,2.1179408408304456
igjmvdboset684mifuqojpij,5,4,3,1.0,16,pd,1.0,9.343,2.2346273998108184
igjmvdboset684mifuqojpij,6,4,3,1.0,17,pd,1.0,13.38,2.5937610547000824
igjmvdboset684mifuqojpij,7,5,3,1.0,52,pd,0.0,12.572,2.531472118935321
igjmvdboset684mifuqojpij,8,5,3,1.0,59,pd,0.0,1.629,0.4879663296199081
ikqcfr8gvb697kq3xjql5t80,1,2,3,1.0,1,pd,1.0,3.996,1.385293860786307
ikqcfr8gvb697kq3xjql5t80,2,2,3,1.0,6,pd,1.0,7.525,2.0182308106349396
ikqcfr8gvb697kq3xjql5t80,3,3,3,1.0,11,pd,0.0,8.599,2.1516459174287594
ikqcfr8gvb697kq3xjql5t80,4,3,3,1.0,18,pd,1.0,12.295,2.5091926756681557
ikqcfr8gvb697kq3xjql5t80,5,4,3,1.0,12,pd,0.0,12.598,2.5335380711997373
ikqcfr8gvb697kq3xjql5t80,6,4,3,1.0,23,pd,1.0,10.65,2.365559892155434
ikqcfr8gvb697kq3xjql5t80,7,5,3,1.0,14,pd,0.0,14.248,2.6566165459873603
ikqcfr8gvb697kq3xjql5t80,8,5,3,1.0,26,pd,1.0,16.875,2.8258332367585934
ip976i3g4frmel44c8xbm6iy,1,2,3,1.0,1,pd,1.0,2.179,0.7788660559624827
ip976i3g4frmel44c8xbm6iy,2,2,3,1.0,6,pd,1.0,6.959,1.9400357858627129
ip976i3g4frmel44c8xbm6iy,3,3,3,1.0,11,pd,1.0,7.539,2.020089547229565
ip976i3g4frmel44c8xbm6iy,4,3,3,1.0,18,pd,1.0,7.161,1.9686496360248027
ip976i3g4frmel44c8xbm6iy,5,4,3,1.0,16,pd,1.0,8.295,2.1156529236424078
ip976i3g4frmel44c8xbm6iy,6,4,3,1.0,17,pd,1.0,21.2,3.054001181677967
ip976i3g4frmel44c8xbm6iy,7,5,3,1.0,52,pd,1.0,10.525,2.3537533795684453
ip976i3g4frmel44c8xbm6iy,8,5,3,1.0,59,pd,0.0,17.949,2.8875344030760046
izjm4wjylx9ezfoipz0taful,1,2,3,1.0,19,pd,1.0,9.787,2.2810549744436823
izjm4wjylx9ezfoipz0taful,2,2,3,1.0,20,pd,1.0,12.037,2.487985239397598
izjm4wjylx9ezfoipz0taful,3,3,3,1.0,15,pd,1.0,13.297,2.5875384458745687
izjm4wjylx9ezfoipz0taful,4,3,3,1.0,10,pd,1.0,10.327,2.334761824689267
izjm4wjylx9ezfoipz0taful,5,4,3,1.0,16,pd,1.0,8.459,2.1352309633218773
izjm4wjylx9ezfoipz0taful,6,4,3,1.0,17,pd,0.0,6.986,1.9439081463846402
izjm4wjylx9ezfoipz0taful,7,5,3,1.0,52,pd,0.0,12.737,2.5445111436076226
izjm4wjylx9ezfoipz0taful,8,5,3,1.0,59,pd,0.0,11.835,2.4710612429659475
j9vb4rt311eml70hs1jq6hek,1,2,3,1.0,19,pd,1.0,12.998,2.564795499472157
j9vb4rt311eml70hs1jq6hek,2,2,3,1.0,20,pd,1.0,15.694,2.7532784737052816
j9vb4rt311eml70hs1jq6hek,3,3,3,1.0,15,pd,0.0,13.233,2.5827137097909123
j9vb4rt311eml70hs1jq6hek,4,3,3,1.0,10,pd,1.0,16.284,2.7901830306407325
j9vb4rt311eml70hs1jq6hek,5,4,3,1.0,12,pd,0.0,21.198,3.053906837605063
j9vb4rt311eml70hs1jq6hek,6,4,3,1.0,23,pd,1.0,11.892,2.4758659051358514
j9vb4rt311eml70hs1jq6hek,7,5,3,1.0,52,pd,0.0,16.928,2.828969055675889
j9vb4rt311eml70hs1jq6hek,8,5,3,1.0,59,pd,0.0,15.405,2.734692132048631
jdpiwwidqfq7f857a4nss1m5,1,2,3,1.0,1,pd,1.0,3.26,1.1817271953786161
jdpiwwidqfq7f857a4nss1m5,2,2,3,1.0,6,pd,1.0,6.595,1.886311786169278
jdpiwwidqfq7f857a4nss1m5,3,3,3,1.0,11,pd,0.0,9.609,2.2627001592951306
jdpiwwidqfq7f857a4nss1m5,4,3,3,1.0,18,pd,0.0,8.204,2.104621840210134
jdpiwwidqfq7f857a4nss1m5,5,4,3,1.0,16,pd,1.0,5.861,1.7683202374942921
jdpiwwidqfq7f857a4nss1m5,6,4,3,1.0,17,pd,0.0,9.138,2.2124415431410798
jdpiwwidqfq7f857a4nss1m5,7,5,3,1.0,14,pd,0.0,7.747,2.0473056716497653
jdpiwwidqfq7f857a4nss1m5,8,5,3,1.0,26,pd,0.0,12.569,2.5312334649427006
jf62ky1ybuaf1tdqwxu02ej9,1,2,3,1.0,19,pd,1.0,13.748,2.6208933589875874
jf62ky1ybuaf1tdqwxu02ej9,2,2,3,1.0,20,pd,0.0,21.857,3.08452123636805
jf62ky1ybuaf1tdqwxu02ej9,3,3,3,1.0,11,pd,1.0,11.058,2.4031541479157412
jf62ky1ybuaf1tdqwxu02ej9,4,3,3,1.0,18,pd,1.0,11.944,2.4802290602368893
jf62ky1ybuaf1tdqwxu02ej9,5,4,3,1.0,12,pd,1.0,12.138,2.4963410274136635
jf62ky1ybuaf1tdqwxu02ej9,6,4,3,1.0,23,pd,0.0,5.034,1.616214896713124
jf62ky1ybuaf1tdqwxu02ej9,7,5,3,1.0,14,pd,1.0,3.717,1.312916891315115
jf62ky1ybuaf1tdqwxu02ej9,8,5,3,1.0,26,pd,1.0,2.141,0.7612730096075457
jgsxr1bmtcsohmexq5w51rkt,1,2,3,1.0,19,pd,0.0,1.343,0.2949059175411005
jgsxr1bmtcsohmexq5w51rkt,2,2,3,1.0,20,pd,0.0,1.149,0.13889199886661865
jgsxr1bmtcsohmexq5w51rkt,3,3,3,1.0,11,pd,0.0,0.844,-0.16960278438617998
jgsxr1bmtcsohmexq5w51rkt,4,3,3,1.0,18,pd,0.0,1.047,0.045928931888399735
jgsxr1bmtcsohmexq5w51rkt,5,4,3,1.0,12,pd,1.0,1.478,0.39068982252601003
jgsxr1bmtcsohmexq5w51rkt,6,4,3,1.0,23,pd,0.0,2.084,0.7342891238911206
jgsxr1bmtcsohmexq5w51rkt,7,5,3,1.0,14,pd,0.0,0.749,-0.2890162954649176
jgsxr1bmtcsohmexq5w51rkt,8,5,3,1.0,26,pd,1.0,0.683,-0.3812604194113469
jgvrtxnptfze90i4jc2j3s3m,1,2,3,1.0,1,pd,1.0,2.594,0.9532010858942521
jgvrtxnptfze90i4jc2j3s3m,2,2,3,1.0,6,pd,1.0,8.246,2.109728234284708
jgvrtxnptfze90i4jc2j3s3m,3,3,3,1.0,11,pd,1.0,28.427,3.347339397759474
jgvrtxnptfze90i4jc2j3s3m,4,3,3,1.0,18,pd,1.0,10.417,2.3434390870023116
jgvrtxnptfze90i4jc2j3s3m,5,4,3,1.0,12,pd,1.0,18.606,2.923484109346367
jgvrtxnptfze90i4jc2j3s3m,6,4,3,1.0,23,pd,1.0,11.017,2.399439534357928
jgvrtxnptfze90i4jc2j3s3m,7,5,3,1.0,14,pd,1.0,19.794,2.9853788614744996
jgvrtxnptfze90i4jc2j3s3m,8,5,3,1.0,26,pd,1.0,17.476,2.8608285110891893
jms40b92b01ep1j8lq3tmodd,1,2,3,1.0,1,pd,1.0,3.781,1.329988524908796
jms40b92b01ep1j8lq3tmodd,2,2,3,1.0,6,pd,1.0,8.749,2.1689394081241273
jms40b92b01ep1j8lq3tmodd,3,3,3,1.0,15,pd,1.0,9.077,2.2057437415444903
jms40b92b01ep1j8lq3tmodd,4,3,3,1.0,10,pd,0.0,7.165,1.9692080612801353
jms40b92b01ep1j8lq3tmodd,5,4,3,1.0,16,pd,0.0,6.141,1.814987595347262
jms40b92b01ep1j8lq3tmodd,6,4,3,1.0,17,pd,0.0,6.788,1.91515634737198
jms40b92b01ep1j8lq3tmodd,7,5,3,1.0,52,pd,0.0,10.589,2.3598157264483173
jms40b92b01ep1j8lq3tmodd,8,5,3,1.0,59,pd,0.0,9.207,2.219964064305709
jn4jqdnicw40wwcl7nhvjno3,1,2,3,1.0,1,pd,1.0,2.796,1.0281898243715637
jn4jqdnicw40wwcl7nhvjno3,2,2,3,1.0,6,pd,1.0,9.179,2.216918266236954
jn4jqdnicw40wwcl7nhvjno3,3,3,3,1.0,15,pd,0.0,22.222,3.101082789161817
jn4jqdnicw40wwcl7nhvjno3,4,3,3,1.0,10,pd,1.0,10.556,2.3566944186410774
jn4jqdnicw40wwcl7nhvjno3,5,4,3,1.0,16,pd,0.0,13.23,2.5824869781268642
jn4jqdnicw40wwcl7nhvjno3,6,4,3,1.0,17,pd,1.0,14.501,2.674217612565758
jn4jqdnicw40wwcl7nhvjno3,7,5,3,1.0,52,pd,0.0,20.527,3.021741092735042
jn4jqdnicw40wwcl7nhvjno3,8,5,3,1.0,59,pd,0.0,15.677,2.752194670086394
k1ifw77ij6huwmsv54ssahr2,1,2,3,1.0,1,pd,1.0,2.361,0.859085258103376
k1ifw77ij6huwmsv54ssahr2,2,2,3,1.0,6,pd,1.0,13.741,2.620384064349637
k1ifw77ij6huwmsv54ssahr2,3,3,3,1.0,11,pd,1.0,10.85,2.3841650799864684
k1ifw77ij6huwmsv54ssahr2,4,3,3,1.0,18,pd,0.0,2.188,0.7829878845597349
k1ifw77ij6huwmsv54ssahr2,5,4,3,1.0,12,pd,1.0,6.653,1.8950678807597503
k1ifw77ij6huwmsv54ssahr2,6,4,3,1.0,23,pd,1.0,4.282,1.4544201901674911
k1ifw77ij6huwmsv54ssahr2,7,5,3,1.0,52,pd,0.0,13.988,2.6381998192011293
k1ifw77ij6huwmsv54ssahr2,8,5,3,1.0,59,pd,1.0,0.557,-0.5851900390548529
k4021dlxnmkquyizv6gjbe8f,1,2,3,1.0,19,pd,0.0,18.02,2.8914822521801917
k4021dlxnmkquyizv6gjbe8f,2,2,3,1.0,20,pd,0.0,22.319,3.105438333642048
k4021dlxnmkquyizv6gjbe8f,3,3,3,1.0,11,pd,0.0,5.269,1.6618405912271488
k4021dlxnmkquyizv6gjbe8f,4,3,3,1.0,18,pd,1.0,8.779,2.1723625059440717
k4021dlxnmkquyizv6gjbe8f,5,4,3,1.0,16,pd,1.0,9.849,2.2873699271875654
k4021dlxnmkquyizv6gjbe8f,6,4,3,1.0,17,pd,1.0,6.828,1.9210318049321942
k4021dlxnmkquyizv6gjbe8f,7,5,3,1.0,14,pd,0.0,4.309,1.460705858633701
k4021dlxnmkquyizv6gjbe8f,8,5,3,1.0,26,pd,1.0,6.108,1.809599387356386
k5r8zyrt60gbiya0rqllldee,1,2,3,1.0,19,pd,1.0,18.861,2.937096298069034
k5r8zyrt60gbiya0rqllldee,2,2,3,1.0,20,pd,1.0,10.979,2.3959843572525954
k5r8zyrt60gbiya0rqllldee,3,3,3,1.0,15,pd,0.0,21.134,3.050883118018839
k5r8zyrt60gbiya0rqllldee,4,3,3,1.0,10,pd,1.0,11.176,2.413768621954661
k5r8zyrt60gbiya0rqllldee,5,4,3,1.0,12,pd,0.0,28.25,3.34109345759245
k5r8zyrt60gbiya0rqllldee,6,4,3,1.0,23,pd,1.0,13.763,2.6219838319973956
k5r8zyrt60gbiya0rqllldee,7,5,3,1.0,52,pd,0.0,27.028,3.2968733656899283
k5r8zyrt60gbiya0rqllldee,8,5,3,1.0,59,pd,0.0,21.176,3.0528684649248
k8dbel0hjcn8mthghho5pclb,1,2,3,1.0,19,pd,0.0,5.716,1.743269260067621
k8dbel0hjcn8mthghho5pclb,2,2,3,1.0,20,pd,0.0,9.957,2.298275821405947
k8dbel0hjcn8mthghho5pclb,3,3,3,1.0,11,pd,0.0,6.876,1.9280370875206028
k8dbel0hjcn8mthghho5pclb,4,3,3,1.0,18,pd,0.0,4.351,1.470405703738543
k8dbel0hjcn8mthghho5pclb,5,4,3,1.0,16,pd,1.0,2.469,0.9038132103630424
k8dbel0hjcn8mthghho5pclb,6,4,3,1.0,17,pd,1.0,3.917,1.3653260546836943
k8dbel0hjcn8mthghho5pclb,7,5,3,1.0,14,pd,0.0,2.842,1.044508029674909
k8dbel0hjcn8mthghho5pclb,8,5,3,1.0,26,pd,0.0,4.187,1.4319844870370064
k9undyo19khqlh5022zgeubt,1,2,3,1.0,1,pd,1.0,2.333,0.847154993039293
k9undyo19khqlh5022zgeubt,2,2,3,1.0,6,pd,1.0,8.377,2.1254898551716725
k9undyo19khqlh5022zgeubt,3,3,3,1.0,11,pd,0.0,20.612,3.025873430465978
k9undyo19khqlh5022zgeubt,4,3,3,1.0,18,pd,1.0,17.441,2.8588237562865313
k9undyo19khqlh5022zgeubt,5,4,3,1.0,12,pd,0.0,27.437,3.311892467434721
k9undyo19khqlh5022zgeubt,6,4,3,1.0,23,pd,1.0,12.152,2.4974937652934717
k9undyo19khqlh5022zgeubt,7,5,3,1.0,52,pd,1.0,25.986,3.2575579314605445
k9undyo19khqlh5022zgeubt,8,5,3,1.0,59,pd,0.0,25.905,3.2544360002667516
ke0bzw04mt5wiwciak9x8px5,1,2,3,1.0,19,pd,1.0,4.71,1.5496879080283263
ke0bzw04mt5wiwciak9x8px5,2,2,3,1.0,20,pd,1.0,7.0,1.9459101490553132
ke0bzw04mt5wiwciak9x8px5,3,3,3,1.0,15,pd,0.0,2.586,0.9501122803496657
ke0bzw04mt5wiwciak9x8px5,4,3,3,1.0,10,pd,1.0,3.312,1.1975522365230131
ke0bzw04mt5wiwciak9x8px5,5,4,3,1.0,16,pd,1.0,4.24,1.4445632692438664
ke0bzw04mt5wiwciak9x8px5,6,4,3,1.0,17,pd,0.0,2.914,1.069526707773013
ke0bzw04mt5wiwciak9x8px5,7,5,3,1.0,14,pd,0.0,4.087,1.4078112045821403
ke0bzw04mt5wiwciak9x8px5,8,5,3,1.0,26,pd,1.0,7.613,2.0298573123240757
kfno018tzphxukrw3hznhl6b,1,2,3,1.0,19,pd,0.0,3.102,1.132047064754347
kfno018tzphxukrw3hznhl6b,2,2,3,1.0,20,pd,0.0,1.383,0.32425505268262117
kfno018tzphxukrw3hznhl6b,3,3,3,1.0,11,pd,0.0,2.12,0.7514160886839212
kfno018tzphxukrw3hznhl6b,4,3,3,1.0,18,pd,0.0,1.741,0.554459660786052
kfno018tzphxukrw3hznhl6b,5,4,3,1.0,16,pd,0.0,1.442,0.3660310388627573
kfno018tzphxukrw3hznhl6b,6,4,3,1.0,17,pd,0.0,2.576,0.9462378082421072
kfno018tzphxukrw3hznhl6b,7,5,3,1.0,52,pd,1.0,1.393,0.3314596947976687
kfno018tzphxukrw3hznhl6b,8,5,3,1.0,59,pd,0.0,2.33,0.8458682675776092
kltfud9cd9tg4sb4od1z8ib1,1,2,3,1.0,1,pd,1.0,1.885,0.6339278208999741
kltfud9cd9tg4sb4od1z8ib1,2,2,3,1.0,6,pd,1.0,7.644,2.0339210263780267
kltfud9cd9tg4sb4od1z8ib1,3,3,3,1.0,15,pd,0.0,9.538,2.2552838198760328
kltfud9cd9tg4sb4od1z8ib1,4,3,3,1.0,10,pd,0.0,9.29,2.2289385528257473
kltfud9cd9tg4sb4od1z8ib1,5,4,3,1.0,12,pd,0.0,8.765,2.1707665183731977
kltfud9cd9tg4sb4od1z8ib1,6,4,3,1.0,23,pd,1.0,5.164,1.641711472984396
kltfud9cd9tg4sb4od1z8ib1,7,5,3,1.0,52,pd,1.0,2.289,0.8281150409704298
kltfud9cd9tg4sb4od1z8ib1,8,5,3,1.0,59,pd,0.0,17.169,2.843105432095075
kne02r0ef01jtjaz8oegm4e2,1,2,3,1.0,1,pd,1.0,5.266,1.6612710610741177
kne02r0ef01jtjaz8oegm4e2,2,2,3,1.0,6,pd,1.0,26.247,3.2675516967922373
kne02r0ef01jtjaz8oegm4e2,3,3,3,1.0,11,pd,1.0,25.607,3.242865751608297
kne02r0ef01jtjaz8oegm4e2,4,3,3,1.0,18,pd,1.0,17.143,2.841589927025344
kne02r0ef01jtjaz8oegm4e2,5,4,3,1.0,12,pd,1.0,17.904,2.8850241515695694
kne02r0ef01jtjaz8oegm4e2,6,4,3,1.0,23,pd,0.0,25.839,3.2518849784751462
kne02r0ef01jtjaz8oegm4e2,7,5,3,1.0,52,pd,0.0,28.52,3.3506055955460954
kne02r0ef01jtjaz8oegm4e2,8,5,3,1.0,59,pd,0.0,26.606,3.281136754261714
kueeomc1gdxng0g9wf80nmkh,1,2,3,1.0,19,pd,1.0,9.514,2.2527643980100898
kueeomc1gdxng0g9wf80nmkh,2,2,3,1.0,20,pd,1.0,15.085,2.7137008726110246
kueeomc1gdxng0g9wf80nmkh,3,3,3,1.0,15,pd,1.0,13.992,2.638485737716301
kueeomc1gdxng0g9wf80nmkh,4,3,3,1.0,10,pd,0.0,9.858,2.288283308283186
kueeomc1gdxng0g9wf80nmkh,5,4,3,1.0,12,pd,0.0,12.131,2.4957641597887825
kueeomc1gdxng0g9wf80nmkh,6,4,3,1.0,23,pd,1.0,13.605,2.6104373722352094
kueeomc1gdxng0g9wf80nmkh,7,5,3,1.0,14,pd,0.0,12.913,2.5582345558645145
kueeomc1gdxng0g9wf80nmkh,8,5,3,1.0,26,pd,1.0,12.527,2.5278863148620547
kv683zj2q4uxh23bzyw2i9nj,1,2,3,1.0,19,pd,1.0,7.648,2.0344441757491003
kv683zj2q4uxh23bzyw2i9nj,2,2,3,1.0,20,pd,1.0,8.6,2.151762203259462
kv683zj2q4uxh23bzyw2i9nj,3,3,3,1.0,15,pd,1.0,9.546,2.256122218583705
kv683zj2q4uxh23bzyw2i9nj,4,3,3,1.0,10,pd,1.0,6.609,1.8884323564883159
kv683zj2q4uxh23bzyw2i9nj,5,4,3,1.0,16,pd,1.0,15.408,2.7348868550557697
kv683zj2q4uxh23bzyw2i9nj,6,4,3,1.0,17,pd,0.0,10.162,2.31865527317154
kv683zj2q4uxh23bzyw2i9nj,7,5,3,1.0,14,pd,0.0,16.752,2.818517654128181
kv683zj2q4uxh23bzyw2i9nj,8,5,3,1.0,26,pd,0.0,6.352,1.8487697239448346
l0n6q3ifgz910fqxoi6vuds4,1,2,3,1.0,1,pd,1.0,2.924,1.072952541887532
l0n6q3ifgz910fqxoi6vuds4,2,2,3,1.0,6,pd,1.0,7.97,2.075684492802124
l0n6q3ifgz910fqxoi6vuds4,3,3,3,1.0,11,pd,1.0,13.83,2.626840145676667
l0n6q3ifgz910fqxoi6vuds4,4,3,3,1.0,18,pd,1.0,13.534,2.605205037810034
l0n6q3ifgz910fqxoi6vuds4,5,4,3,1.0,12,pd,1.0,7.46,2.0095554142156695
l0n6q3ifgz910fqxoi6vuds4,6,4,3,1.0,23,pd,1.0,7.468,2.0106272256794764
l0n6q3ifgz910fqxoi6vuds4,7,5,3,1.0,52,pd,1.0,14.006,2.639485809233326
l0n6q3ifgz910fqxoi6vuds4,8,5,3,1.0,59,pd,1.0,6.219,1.8276091221217523
l9fw7uzr1yh5hc8sr6u2i9bq,1,2,3,1.0,19,pd,1.0,19.357,2.9630541111634088
l9fw7uzr1yh5hc8sr6u2i9bq,2,2,3,1.0,20,pd,1.0,12.074,2.4910543803742344
l9fw7uzr1yh5hc8sr6u2i9bq,3,3,3,1.0,15,pd,1.0,25.876,3.253315898181739
l9fw7uzr1yh5hc8sr6u2i9bq,4,3,3,1.0,10,pd,1.0,18.963,2.9424897121582716
l9fw7uzr1yh5hc8sr6u2i9bq,5,4,3,1.0,16,pd,1.0,19.613,2.976192611679374
l9fw7uzr1yh5hc8sr6u2i9bq,6,4,3,1.0,17,pd,1.0,26.152,3.2639256694219094
l9fw7uzr1yh5hc8sr6u2i9bq,7,5,3,1.0,52,pd,1.0,12.207,2.502009557687663
l9fw7uzr1yh5hc8sr6u2i9bq,8,5,3,1.0,59,pd,0.0,26.47,3.27601201623901
m4latujdqhb0fa9jlo0po324,1,2,3,1.0,1,pd,1.0,2.119,0.7509442792861621
m4latujdqhb0fa9jlo0po324,2,2,3,1.0,6,pd,1.0,5.01,1.6114359150967734
m4latujdqhb0fa9jlo0po324,3,3,3,1.0,11,pd,0.0,8.68,2.1610215286722587
m4latujdqhb0fa9jlo0po324,4,3,3,1.0,18,pd,1.0,0.236,-1.443923473956527
m4latujdqhb0fa9jlo0po324,5,4,3,1.0,12,pd,0.0,9.05,2.2027647577118348
m4latujdqhb0fa9jlo0po324,6,4,3,1.0,23,pd,1.0,6.195,1.8237425150811057
m4latujdqhb0fa9jlo0po324,7,5,3,1.0,14,pd,0.0,7.305,1.9885590452026627
m4latujdqhb0fa9jlo0po324,8,5,3,1.0,26,pd,0.0,12.986,2.5638718540862953
m8lnn9ww484u7daprzliwsms,1,2,3,1.0,1,pd,1.0,2.586,0.9501122803496657
m8lnn9ww484u7daprzliwsms,2,2,3,1.0,6,pd,1.0,5.722,1.7443183946279186
m8lnn9ww484u7daprzliwsms,3,3,3,1.0,15,pd,1.0,11.407,2.434227202045761
m8lnn9ww484u7daprzliwsms,4,3,3,1.0,10,pd,1.0,20.917,3.040562225471783
m8lnn9ww484u7daprzliwsms,5,4,3,1.0,16,pd,1.0,16.565,2.807292035751859
m8lnn9ww484u7daprzliwsms,6,4,3,1.0,17,pd,1.0,14.715,2.6888673816854363
m8lnn9ww484u7daprzliwsms,7,5,3,1.0,14,pd,0.0,16.663,2.8131906925564865
m8lnn9ww484u7daprzliwsms,8,5,3,1.0,26,pd,1.0,13.667,2.6149841679826635
mnogoa63pdgk5mcbo4tjshqx,1,2,3,1.0,19,pd,1.0,6.392,1.8550472084639735
mnogoa63pdgk5mcbo4tjshqx,2,2,3,1.0,20,pd,1.0,13.121,2.574214000123579
mnogoa63pdgk5mcbo4tjshqx,3,3,3,1.0,15,pd,0.0,17.579,2.866705007817754
mnogoa63pdgk5mcbo4tjshqx,4,3,3,1.0,10,pd,1.0,9.51,2.252343876557299
mnogoa63pdgk5mcbo4tjshqx,5,4,3,1.0,16,pd,1.0,11.056,2.402973267025314
mnogoa63pdgk5mcbo4tjshqx,6,4,3,1.0,17,pd,1.0,23.596,3.161077206140829
mnogoa63pdgk5mcbo4tjshqx,7,5,3,1.0,52,pd,0.0,18.647,2.9256852752419564
mnogoa63pdgk5mcbo4tjshqx,8,5,3,1.0,59,pd,1.0,19.583,2.974661842934699
mo64hmd74j361z4s51gqpbq5,1,2,3,1.0,19,pd,1.0,7.719,2.043684821967717
mo64hmd74j361z4s51gqpbq5,2,2,3,1.0,20,pd,1.0,8.735,2.16733794358602
mo64hmd74j361z4s51gqpbq5,3,3,3,1.0,11,pd,0.0,19.47,2.968874819384108
mo64hmd74j361z4s51gqpbq5,4,3,3,1.0,18,pd,1.0,13.862,2.629151283495793
mo64hmd74j361z4s51gqpbq5,5,4,3,1.0,16,pd,1.0,5.784,1.7550954848564635
mo64hmd74j361z4s51gqpbq5,6,4,3,1.0,17,pd,0.0,20.182,3.004791118042337
mo64hmd74j361z4s51gqpbq5,7,5,3,1.0,52,pd,1.0,17.857,2.8823955882149876
mo64hmd74j361z4s51gqpbq5,8,5,3,1.0,59,pd,0.0,15.678,2.7522584557665306
n010u6xtj8uwo8ruehi3fz19,1,2,3,1.0,19,pd,1.0,8.516,2.1419467470312332
n010u6xtj8uwo8ruehi3fz19,2,2,3,1.0,20,pd,1.0,13.831,2.6269124496425706
n010u6xtj8uwo8ruehi3fz19,3,3,3,1.0,15,pd,0.0,14.078,2.64461329518594
n010u6xtj8uwo8ruehi3fz19,4,3,3,1.0,10,pd,1.0,18.398,2.9122419630549654
n010u6xtj8uwo8ruehi3fz19,5,4,3,1.0,12,pd,0.0,15.002,2.7081835255474447
n010u6xtj8uwo8ruehi3fz19,6,4,3,1.0,23,pd,1.0,18.319,2.907938772603322
n010u6xtj8uwo8ruehi3fz19,7,5,3,1.0,14,pd,1.0,23.537,3.158573651059819
n010u6xtj8uwo8ruehi3fz19,8,5,3,1.0,26,pd,1.0,27.958,3.330703384048937
n2jg76vpczghdr0htoiuyq87,1,2,3,1.0,19,pd,1.0,15.787,2.75918681654959
n2jg76vpczghdr0htoiuyq87,2,2,3,1.0,20,pd,1.0,7.084,1.9578387199205871
n2jg76vpczghdr0htoiuyq87,3,3,3,1.0,11,pd,0.0,27.567,3.3166194051868576
n2jg76vpczghdr0htoiuyq87,4,3,3,1.0,18,pd,1.0,15.732,2.755696854569563
n2jg76vpczghdr0htoiuyq87,5,4,3,1.0,12,pd,0.0,27.443,3.3121111263277205
n2jg76vpczghdr0htoiuyq87,6,4,3,1.0,23,pd,1.0,8.813,2.1762279041175234
n2jg76vpczghdr0htoiuyq87,7,5,3,1.0,52,pd,0.0,10.709,2.371084509418738
n2jg76vpczghdr0htoiuyq87,8,5,3,1.0,59,pd,0.0,10.054,2.3079705652703835
n4bmbnrp5quihkg03i2j2mbe,1,2,3,1.0,19,pd,1.0,5.351,1.6772834593291677
n4bmbnrp5quihkg03i2j2mbe,2,2,3,1.0,20,pd,1.0,14.045,2.642266460556207
n4bmbnrp5quihkg03i2j2mbe,3,3,3,1.0,15,pd,0.0,8.259,2.11130351482858
n4bmbnrp5quihkg03i2j2mbe,4,3,3,1.0,10,pd,0.0,21.66,3.0754672415728446
n4bmbnrp5quihkg03i2j2mbe,5,4,3,1.0,16,pd,1.0,26.558,3.2793310205681356
n4bmbnrp5quihkg03i2j2mbe,6,4,3,1.0,17,pd,0.0,8.814,2.1763413664197953
n4bmbnrp5quihkg03i2j2mbe,7,5,3,1.0,52,pd,0.0,12.606,2.5341728910909183
n4bmbnrp5quihkg03i2j2mbe,8,5,3,1.0,59,pd,0.0,10.637,2.364338489269528
n5jmmm60g0laqqk7sark6dwq,1,2,3,1.0,19,pd,1.0,9.622,2.264052143277262
n5jmmm60g0laqqk7sark6dwq,2,2,3,1.0,20,pd,1.0,10.552,2.3563154154150134
n5jmmm60g0laqqk7sark6dwq,3,3,3,1.0,15,pd,0.0,16.223,2.786429988428262
n5jmmm60g0laqqk7sark6dwq,4,3,3,1.0,10,pd,1.0,13.324,2.5895669203314333
n5jmmm60g0laqqk7sark6dwq,5,4,3,1.0,12,pd,1.0,19.167,2.953190050288316
n5jmmm60g0laqqk7sark6dwq,6,4,3,1.0,23,pd,1.0,21.164,3.0523016250418853
n5jmmm60g0laqqk7sark6dwq,7,5,3,1.0,52,pd,0.0,25.6,3.242592351485517
n5jmmm60g0laqqk7sark6dwq,8,5,3,1.0,59,pd,1.0,26.951,3.2940204024179964
n9t9dhsih2wqxyvss2s0flkz,1,2,3,1.0,19,pd,1.0,6.191,1.823096624537095
n9t9dhsih2wqxyvss2s0flkz,2,2,3,1.0,20,pd,1.0,7.364,1.9966032633708315
n9t9dhsih2wqxyvss2s0flkz,3,3,3,1.0,11,pd,0.0,7.204,1.9746364273137096
n9t9dhsih2wqxyvss2s0flkz,4,3,3,1.0,18,pd,1.0,4.809,1.5704891622955257
n9t9dhsih2wqxyvss2s0flkz,5,4,3,1.0,16,pd,1.0,5.569,1.7172155046075315
n9t9dhsih2wqxyvss2s0flkz,6,4,3,1.0,17,pd,1.0,5.918,1.7779985539780179
n9t9dhsih2wqxyvss2s0flkz,7,5,3,1.0,52,pd,1.0,7.906,2.0676219648744936
n9t9dhsih2wqxyvss2s0flkz,8,5,3,1.0,59,pd,0.0,8.94,2.190535589185423
nfuyluc7usjl6icx8b9o3xn0,1,2,3,1.0,19,pd,1.0,7.998,2.079191510424627
nfuyluc7usjl6icx8b9o3xn0,2,2,3,1.0,20,pd,1.0,4.467,1.4967170423699816
nfuyluc7usjl6icx8b9o3xn0,3,3,3,1.0,15,pd,0.0,5.704,1.7411676831119947
nfuyluc7usjl6icx8b9o3xn0,4,3,3,1.0,10,pd,1.0,3.543,1.264973825883335
nfuyluc7usjl6icx8b9o3xn0,5,4,3,1.0,16,pd,1.0,10.335,2.3355361931337315
nfuyluc7usjl6icx8b9o3xn0,6,4,3,1.0,17,pd,0.0,6.11,1.809926773183504
nfuyluc7usjl6icx8b9o3xn0,7,5,3,1.0,52,pd,0.0,3.392,1.2214197179296566
nfuyluc7usjl6icx8b9o3xn0,8,5,3,1.0,59,pd,0.0,4.178,1.429832663134374
nk8s4khwfbh5lp5a7i99tb1m,1,2,3,1.0,19,pd,1.0,11.172,2.4134106480829303
nk8s4khwfbh5lp5a7i99tb1m,2,2,3,1.0,20,pd,1.0,12.817,2.550772414747687
nk8s4khwfbh5lp5a7i99tb1m,3,3,3,1.0,15,pd,1.0,27.226,3.304172399090281
nk8s4khwfbh5lp5a7i99tb1m,4,3,3,1.0,10,pd,1.0,18.133,2.8977334826718883
nk8s4khwfbh5lp5a7i99tb1m,5,4,3,1.0,16,pd,1.0,14.929,2.703305630071453
nk8s4khwfbh5lp5a7i99tb1m,6,4,3,1.0,17,pd,1.0,19.378,2.9641384019628125
nk8s4khwfbh5lp5a7i99tb1m,7,5,3,1.0,14,pd,1.0,11.497,2.442086131771603
nk8s4khwfbh5lp5a7i99tb1m,8,5,3,1.0,26,pd,1.0,19.989,2.9951821222485098
nl9o6qwgvf9xydryv86o98ot,1,2,3,1.0,1,pd,1.0,3.287,1.1899752946820823
nl9o6qwgvf9xydryv86o98ot,2,2,3,1.0,6,pd,1.0,9.36,2.2364452904895007
nl9o6qwgvf9xydryv86o98ot,3,3,3,1.0,11,pd,1.0,8.465,2.1359400155850987
nl9o6qwgvf9xydryv86o98ot,4,3,3,1.0,18,pd,1.0,7.839,2.059111275206585
nl9o6qwgvf9xydryv86o98ot,5,4,3,1.0,16,pd,1.0,6.302,1.8408670433350829
nl9o6qwgvf9xydryv86o98ot,6,4,3,1.0,17,pd,0.0,9.593,2.2610336658358103
nl9o6qwgvf9xydryv86o98ot,7,5,3,1.0,52,pd,1.0,12.592,2.5330616916750475
nl9o6qwgvf9xydryv86o98ot,8,5,3,1.0,59,pd,0.0,14.049,2.642551218869514
nqpcgnf33a2t327z5hwm4bfs,1,2,3,1.0,1,pd,1.0,2.765,1.0170406349742982
nqpcgnf33a2t327z5hwm4bfs,2,2,3,1.0,6,pd,1.0,13.262,2.584902802946676
nqpcgnf33a2t327z5hwm4bfs,3,3,3,1.0,15,pd,1.0,11.233,2.418855874659432
nqpcgnf33a2t327z5hwm4bfs,4,3,3,1.0,10,pd,1.0,8.878,2.1835763064118434
nqpcgnf33a2t327z5hwm4bfs,5,4,3,1.0,12,pd,1.0,8.967,2.1935511719699106
nqpcgnf33a2t327z5hwm4bfs,6,4,3,1.0,23,pd,1.0,7.553,2.0219448353313108
nqpcgnf33a2t327z5hwm4bfs,7,5,3,1.0,52,pd,0.0,28.848,3.3620406664609614
nqpcgnf33a2t327z5hwm4bfs,8,5,3,1.0,59,pd,1.0,7.798,2.0538672905604054
ntwcxhglf5m7chxycp10gy4b,1,2,3,1.0,1,pd,1.0,2.599,0.9551267556593532
ntwcxhglf5m7chxycp10gy4b,2,2,3,1.0,6,pd,1.0,7.915,2.0687596933329755
ntwcxhglf5m7chxycp10gy4b,3,3,3,1.0,15,pd,0.0,20.387,3.014897442815002
ntwcxhglf5m7chxycp10gy4b,4,3,3,1.0,10,pd,0.0,29.088,3.3703257179950685
ntwcxhglf5m7chxycp10gy4b,5,4,3,1.0,12,pd,1.0,14.191,2.6526079608524005
ntwcxhglf5m7chxycp10gy4b,6,4,3,1.0,23,pd,1.0,8.942,2.190759277811789
ntwcxhglf5m7chxycp10gy4b,7,5,3,1.0,52,pd,1.0,25.688,3.2460239567872127
ntwcxhglf5m7chxycp10gy4b,8,5,3,1.0,59,pd,0.0,15.758,2.7573481728234963
nwnm7jjlm7nnxxyzcci5o6kx,1,2,3,1.0,19,pd,1.0,9.344,2.234734426085871
nwnm7jjlm7nnxxyzcci5o6kx,2,2,3,1.0,20,pd,1.0,11.901,2.476622430200303
nwnm7jjlm7nnxxyzcci5o6kx,3,3,3,1.0,15,pd,1.0,11.205,2.41636010725289
nwnm7jjlm7nnxxyzcci5o6kx,4,3,3,1.0,10,pd,1.0,10.412,2.342958987132319
nwnm7jjlm7nnxxyzcci5o6kx,5,4,3,1.0,12,pd,0.0,6.486,1.8696460078851262
nwnm7jjlm7nnxxyzcci5o6kx,6,4,3,1.0,23,pd,1.0,19.248,2.9574071592323232
nwnm7jjlm7nnxxyzcci5o6kx,7,5,3,1.0,52,pd,0.0,17.49,2.8616292890305104
nwnm7jjlm7nnxxyzcci5o6kx,8,5,3,1.0,59,pd,1.0,18.732,2.9302332913212954
nynyg75n4le93u2h70uvtfvr,1,2,3,1.0,19,pd,1.0,4.019,1.391033115467064
nynyg75n4le93u2h70uvtfvr,2,2,3,1.0,20,pd,1.0,3.335,1.204472679367587
nynyg75n4le93u2h70uvtfvr,3,3,3,1.0,15,pd,0.0,3.912,1.3640487521725708
nynyg75n4le93u2h70uvtfvr,4,3,3,1.0,10,pd,0.0,5.792,1.7564776550834151
nynyg75n4le93u2h70uvtfvr,5,4,3,1.0,12,pd,0.0,2.339,0.849723487602042
nynyg75n4le93u2h70uvtfvr,6,4,3,1.0,23,pd,0.0,1.171,0.15785808461558032
nynyg75n4le93u2h70uvtfvr,7,5,3,1.0,52,pd,0.0,3.009,1.1016077976479082
nynyg75n4le93u2h70uvtfvr,8,5,3,1.0,59,pd,0.0,2.355,0.8565407274683811
o37ptzs09vzng6tseo9vrsff,1,2,3,1.0,19,pd,0.0,6.407,1.8573911426568845
o37ptzs09vzng6tseo9vrsff,2,2,3,1.0,20,pd,0.0,18.597,2.9230002773878923
o37ptzs09vzng6tseo9vrsff,3,3,3,1.0,15,pd,1.0,27.001,3.295873902355512
o37ptzs09vzng6tseo9vrsff,4,3,3,1.0,10,pd,1.0,15.96,2.7700855920216627
o37ptzs09vzng6tseo9vrsff,5,4,3,1.0,16,pd,1.0,8.457,2.1349945008000852
o37ptzs09vzng6tseo9vrsff,6,4,3,1.0,17,pd,0.0,21.302,3.058800965020974
o37ptzs09vzng6tseo9vrsff,7,5,3,1.0,52,pd,0.0,15.002,2.7081835255474447
o37ptzs09vzng6tseo9vrsff,8,5,3,1.0,59,pd,0.0,16.0,2.772588722239781
o5p8cho9vuif1ht234wea7lj,1,2,3,1.0,1,pd,0.0,2.886,1.0598714603516792
o5p8cho9vuif1ht234wea7lj,2,2,3,1.0,6,pd,1.0,2.298,0.8320391794265639
o5p8cho9vuif1ht234wea7lj,3,3,3,1.0,11,pd,0.0,2.454,0.8977193462887197
o5p8cho9vuif1ht234wea7lj,4,3,3,1.0,18,pd,0.0,1.276,0.24373018492259815
o5p8cho9vuif1ht234wea7lj,5,4,3,1.0,16,pd,0.0,1.257,0.22872792960811028
o5p8cho9vuif1ht234wea7lj,6,4,3,1.0,17,pd,0.0,0.935,-0.06720874969344999
o5p8cho9vuif1ht234wea7lj,7,5,3,1.0,52,pd,1.0,0.778,-0.2510287548037454
o5p8cho9vuif1ht234wea7lj,8,5,3,1.0,59,pd,0.0,1.362,0.3089542077273207
o94rktohjg5n5pji7idpj3ne,1,2,3,1.0,1,pd,1.0,6.755,1.910282971412162
o94rktohjg5n5pji7idpj3ne,2,2,3,1.0,6,pd,1.0,14.259,2.657388286299982
o94rktohjg5n5pji7idpj3ne,3,3,3,1.0,11,pd,1.0,20.371,3.0141123208354204
o94rktohjg5n5pji7idpj3ne,4,3,3,1.0,18,pd,1.0,18.546,2.920254132378034
o94rktohjg5n5pji7idpj3ne,5,4,3,1.0,12,pd,0.0,21.548,3.0702830048182874
o94rktohjg5n5pji7idpj3ne,6,4,3,1.0,23,pd,1.0,18.563,2.921170352227086
o94rktohjg5n5pji7idpj3ne,7,5,3,1.0,14,pd,0.0,21.992,3.0906787508629447
o94rktohjg5n5pji7idpj3ne,8,5,3,1.0,26,pd,1.0,20.106,3.0010182779832286
oe507xuw2kbu750010sj0pk3,1,2,3,1.0,1,pd,1.0,2.817,1.0356724888942357
oe507xuw2kbu750010sj0pk3,2,2,3,1.0,6,pd,1.0,8.026,2.0826862718447248
oe507xuw2kbu750010sj0pk3,3,3,3,1.0,11,pd,1.0,14.99,2.7073833121145063
oe507xuw2kbu750010sj0pk3,4,3,3,1.0,18,pd,1.0,15.499,2.7407755057149137
oe507xuw2kbu750010sj0pk3,5,4,3,1.0,16,pd,1.0,8.19,2.102913897864978
oe507xuw2kbu750010sj0pk3,6,4,3,1.0,17,pd,1.0,16.098,2.778695040671542
oe507xuw2kbu750010sj0pk3,7,5,3,1.0,52,pd,0.0,15.161,2.7187263410994444
oe507xuw2kbu750010sj0pk3,8,5,3,1.0,59,pd,0.0,9.608,2.2625960847776825
ofunde9ez9f8jpp0ol2bzfeb,1,2,3,1.0,1,pd,1.0,2.633,0.9681238805141723
ofunde9ez9f8jpp0ol2bzfeb,2,2,3,1.0,6,pd,1.0,4.904,1.5900511986339103
ofunde9ez9f8jpp0ol2bzfeb,3,3,3,1.0,11,pd,1.0,9.936,2.296164525191123
ofunde9ez9f8jpp0ol2bzfeb,4,3,3,1.0,18,pd,0.0,11.577,2.4490203712235914
ofunde9ez9f8jpp0ol2bzfeb,5,4,3,1.0,12,pd,0.0,13.828,2.626695522059378
ofunde9ez9f8jpp0ol2bzfeb,6,4,3,1.0,23,pd,1.0,5.344,1.6759744362343447
ofunde9ez9f8jpp0ol2bzfeb,7,5,3,1.0,52,pd,0.0,25.654,3.244699504877659
ofunde9ez9f8jpp0ol2bzfeb,8,5,3,1.0,59,pd,0.0,28.817,3.3609654907742765
opn52u47032uy5s4bqtq4thp,1,2,3,1.0,1,pd,0.0,2.079,0.731887008875876
opn52u47032uy5s4bqtq4thp,2,2,3,1.0,6,pd,1.0,7.264,1.9829306412989922
opn52u47032uy5s4bqtq4thp,3,3,3,1.0,15,pd,0.0,14.648,2.6843038073722094
opn52u47032uy5s4bqtq4thp,4,3,3,1.0,10,pd,0.0,24.05,3.1801349965517702
opn52u47032uy5s4bqtq4thp,5,4,3,1.0,16,pd,1.0,4.848,1.5785662487670133
opn52u47032uy5s4bqtq4thp,6,4,3,1.0,17,pd,0.0,15.126,2.716415117433838
opn52u47032uy5s4bqtq4thp,7,5,3,1.0,14,pd,0.0,24.11,3.1826266921930797
opn52u47032uy5s4bqtq4thp,8,5,3,1.0,26,pd,0.0,14.448,2.6705559966746297
opq8ltjs54l84mznb4j7poie,1,2,3,1.0,19,pd,1.0,9.127,2.2112370535347403
opq8ltjs54l84mznb4j7poie,2,2,3,1.0,20,pd,1.0,9.6,2.2617630984737906
opq8ltjs54l84mznb4j7poie,3,3,3,1.0,11,pd,1.0,12.528,2.527966139248447
opq8ltjs54l84mznb4j7poie,4,3,3,1.0,18,pd,1.0,10.904,2.3891296943942315
opq8ltjs54l84mznb4j7poie,5,4,3,1.0,16,pd,1.0,8.416,2.130134655995354
opq8ltjs54l84mznb4j7poie,6,4,3,1.0,17,pd,1.0,12.513,2.526768103882918
opq8ltjs54l84mznb4j7poie,7,5,3,1.0,52,pd,1.0,25.496,3.2385215771150353
opq8ltjs54l84mznb4j7poie,8,5,3,1.0,59,pd,0.0,29.96,3.3998631586490187
p22gffsvhq7t6s5j5z3jhsoj,1,2,3,1.0,1,pd,1.0,2.611,0.9597332897169919
p22gffsvhq7t6s5j5z3jhsoj,2,2,3,1.0,6,pd,1.0,4.547,1.5144676748428734
p22gffsvhq7t6s5j5z3jhsoj,3,3,3,1.0,11,pd,1.0,21.716,3.0780493160432045
p22gffsvhq7t6s5j5z3jhsoj,4,3,3,1.0,18,pd,1.0,16.76,2.818995095053937
p22gffsvhq7t6s5j5z3jhsoj,5,4,3,1.0,16,pd,1.0,10.111,2.313623940109262
p22gffsvhq7t6s5j5z3jhsoj,6,4,3,1.0,17,pd,0.0,26.934,3.29338942902785
p22gffsvhq7t6s5j5z3jhsoj,7,5,3,1.0,52,pd,0.0,27.05,3.2976870052924907
p22gffsvhq7t6s5j5z3jhsoj,8,5,3,1.0,59,pd,0.0,23.182,3.143376115466553
p233f40aj2ompblg0np7ck05,1,2,3,1.0,19,pd,1.0,4.126,1.4173084146490602
p233f40aj2ompblg0np7ck05,2,2,3,1.0,20,pd,0.0,5.704,1.7411676831119947
p233f40aj2ompblg0np7ck05,3,3,3,1.0,11,pd,0.0,6.105,1.809108107562668
p233f40aj2ompblg0np7ck05,4,3,3,1.0,18,pd,0.0,10.411,2.342862939492616
p233f40aj2ompblg0np7ck05,5,4,3,1.0,16,pd,0.0,8.92,2.188295946591918
p233f40aj2ompblg0np7ck05,6,4,3,1.0,17,pd,1.0,8.552,2.146165173722744
p233f40aj2ompblg0np7ck05,7,5,3,1.0,52,pd,0.0,13.084,2.5713901096761376
p233f40aj2ompblg0np7ck05,8,5,3,1.0,59,pd,0.0,9.095,2.2077248119700856
p4wk3mkf18i32bq9fmhqgqxm,1,2,3,1.0,1,pd,1.0,3.542,1.2646915393606417
p4wk3mkf18i32bq9fmhqgqxm,2,2,3,1.0,6,pd,0.0,13.296,2.5874632381130924
p4wk3mkf18i32bq9fmhqgqxm,3,3,3,1.0,15,pd,1.0,13.071,2.5703960358034146
p4wk3mkf18i32bq9fmhqgqxm,4,3,3,1.0,10,pd,1.0,20.408,3.0159269808395104
p4wk3mkf18i32bq9fmhqgqxm,5,4,3,1.0,12,pd,1.0,15.719,2.754870171746101
p4wk3mkf18i32bq9fmhqgqxm,6,4,3,1.0,23,pd,1.0,10.259,2.3281553691055756
p4wk3mkf18i32bq9fmhqgqxm,7,5,3,1.0,14,pd,0.0,19.233,2.95662755367323
p4wk3mkf18i32bq9fmhqgqxm,8,5,3,1.0,26,pd,0.0,16.285,2.790244438728197
p8ngi1qy0tgt2613jz8ju482,1,2,3,1.0,19,pd,0.0,10.076,2.3101563584903637
p8ngi1qy0tgt2613jz8ju482,2,2,3,1.0,20,pd,1.0,16.928,2.828969055675889
p8ngi1qy0tgt2613jz8ju482,3,3,3,1.0,11,pd,0.0,16.248,2.7879698242780835
p8ngi1qy0tgt2613jz8ju482,4,3,3,1.0,18,pd,1.0,20.063,2.9988773226980636
p8ngi1qy0tgt2613jz8ju482,5,4,3,1.0,16,pd,1.0,6.93,1.9358598132018119
p8ngi1qy0tgt2613jz8ju482,6,4,3,1.0,17,pd,1.0,17.727,2.8750889010316474
p8ngi1qy0tgt2613jz8ju482,7,5,3,1.0,14,pd,0.0,21.577,3.071627932557248
p8ngi1qy0tgt2613jz8ju482,8,5,3,1.0,26,pd,0.0,29.057,3.369259418126215
pdp0sjilpxro3n4ai3ziwy9l,1,2,3,1.0,1,pd,1.0,1.831,0.6048622656923737
pdp0sjilpxro3n4ai3ziwy9l,2,2,3,1.0,6,pd,1.0,3.342,1.206569430173202
pdp0sjilpxro3n4ai3ziwy9l,3,3,3,1.0,11,pd,0.0,6.071,1.803523336148297
pdp0sjilpxro3n4ai3ziwy9l,4,3,3,1.0,18,pd,0.0,5.622,1.7266874724843402
pdp0sjilpxro3n4ai3ziwy9l,5,4,3,1.0,12,pd,0.0,3.326,1.201770380770736
pdp0sjilpxro3n4ai3ziwy9l,6,4,3,1.0,23,pd,1.0,9.623,2.2641560663742637
pdp0sjilpxro3n4ai3ziwy9l,7,5,3,1.0,52,pd,0.0,11.534,2.445299195193221
pdp0sjilpxro3n4ai3ziwy9l,8,5,3,1.0,59,pd,0.0,6.527,1.8759474196530803
pgiebczhtlpklswe11sq6yun,1,2,3,1.0,19,pd,1.0,14.212,2.6540866781587806
pgiebczhtlpklswe11sq6yun,2,2,3,1.0,20,pd,1.0,14.403,2.667436518216913
pgiebczhtlpklswe11sq6yun,3,3,3,1.0,11,pd,0.0,16.24,2.787477334733532
pgiebczhtlpklswe11sq6yun,4,3,3,1.0,18,pd,0.0,26.582,3.280234294999141
pgiebczhtlpklswe11sq6yun,5,4,3,1.0,12,pd,,,
pgiebczhtlpklswe11sq6yun,6,4,3,1.0,23,pd,0.0,9.774,2.279725798847963
pgiebczhtlpklswe11sq6yun,7,5,3,1.0,52,pd,1.0,22.422,3.1100426197314017
pgiebczhtlpklswe11sq6yun,8,5,3,1.0,59,pd,1.0,29.072,3.3697755116538155
pjspp9sgkpyn2kh3sh4mqhgm,1,2,3,1.0,19,pd,1.0,8.678,2.160791087376159
pjspp9sgkpyn2kh3sh4mqhgm,2,2,3,1.0,20,pd,1.0,7.02,1.9487632180377197
pjspp9sgkpyn2kh3sh4mqhgm,3,3,3,1.0,11,pd,1.0,20.025,2.996981492954423
pjspp9sgkpyn2kh3sh4mqhgm,4,3,3,1.0,18,pd,1.0,16.866,2.8252997611524497
pjspp9sgkpyn2kh3sh4mqhgm,5,4,3,1.0,16,pd,1.0,6.09,1.8066480817218056
pjspp9sgkpyn2kh3sh4mqhgm,6,4,3,1.0,17,pd,0.0,7.222,1.977131922855266
pjspp9sgkpyn2kh3sh4mqhgm,7,5,3,1.0,52,pd,1.0,17.388,2.855780313126546
pjspp9sgkpyn2kh3sh4mqhgm,8,5,3,1.0,59,pd,0.0,11.284,2.42338579313975
pyz9lk7me91x9ehbw3oiyqd7,1,2,3,1.0,1,pd,1.0,2.112,0.7476353658440151
pyz9lk7me91x9ehbw3oiyqd7,2,2,3,1.0,6,pd,1.0,3.047,1.114157500003572
pyz9lk7me91x9ehbw3oiyqd7,3,3,3,1.0,11,pd,1.0,5.947,1.7828868907244566
pyz9lk7me91x9ehbw3oiyqd7,4,3,3,1.0,18,pd,1.0,8.516,2.1419467470312332
pyz9lk7me91x9ehbw3oiyqd7,5,4,3,1.0,12,pd,0.0,8.537,2.1444096580281693
pyz9lk7me91x9ehbw3oiyqd7,6,4,3,1.0,23,pd,1.0,9.17,2.2159372862683733
pyz9lk7me91x9ehbw3oiyqd7,7,5,3,1.0,52,pd,0.0,7.945,2.072542799988679
pyz9lk7me91x9ehbw3oiyqd7,8,5,3,1.0,59,pd,0.0,6.116,1.810908288066816
q3layilcyvnfn92z2xlu2njq,1,2,3,1.0,1,pd,1.0,2.176,0.7774883289936962
q3layilcyvnfn92z2xlu2njq,2,2,3,1.0,6,pd,0.0,16.516,2.804329608023844
q3layilcyvnfn92z2xlu2njq,3,3,3,1.0,15,pd,1.0,11.843,2.471736975739358
q3layilcyvnfn92z2xlu2njq,4,3,3,1.0,10,pd,1.0,13.705,2.617760729754749
q3layilcyvnfn92z2xlu2njq,5,4,3,1.0,16,pd,1.0,15.677,2.752194670086394
q3layilcyvnfn92z2xlu2njq,6,4,3,1.0,17,pd,1.0,18.916,2.940008124781629
q3layilcyvnfn92z2xlu2njq,7,5,3,1.0,52,pd,0.0,17.117,2.8400721217135274
q3layilcyvnfn92z2xlu2njq,8,5,3,1.0,59,pd,0.0,22.747,3.124433268569725
qbulyg8ke67tb1x8xuecwhi4,1,2,3,1.0,19,pd,1.0,5.615,1.7254415881904066
qbulyg8ke67tb1x8xuecwhi4,2,2,3,1.0,20,pd,1.0,7.13,1.9643112344262046
qbulyg8ke67tb1x8xuecwhi4,3,3,3,1.0,11,pd,0.0,8.693,2.162518104096927
qbulyg8ke67tb1x8xuecwhi4,4,3,3,1.0,18,pd,1.0,9.939,2.2964664119858686
qbulyg8ke67tb1x8xuecwhi4,5,4,3,1.0,16,pd,1.0,4.253,1.4476246162714965
qbulyg8ke67tb1x8xuecwhi4,6,4,3,1.0,17,pd,0.0,8.544,2.145229282217839
qbulyg8ke67tb1x8xuecwhi4,7,5,3,1.0,52,pd,0.0,13.866,2.6294398005202986
qbulyg8ke67tb1x8xuecwhi4,8,5,3,1.0,59,pd,0.0,6.943,1.9377339577711363
qz3cypz22zf4di7y9yj1uuur,1,2,3,1.0,19,pd,1.0,9.883,2.2908161093940467
qz3cypz22zf4di7y9yj1uuur,2,2,3,1.0,20,pd,1.0,9.687,2.270784780444248
qz3cypz22zf4di7y9yj1uuur,3,3,3,1.0,15,pd,1.0,7.553,2.0219448353313108
qz3cypz22zf4di7y9yj1uuur,4,3,3,1.0,10,pd,1.0,11.531,2.445039060788979
qz3cypz22zf4di7y9yj1uuur,5,4,3,1.0,16,pd,1.0,9.06,2.203869120054888
qz3cypz22zf4di7y9yj1uuur,6,4,3,1.0,17,pd,1.0,9.758,2.2780874613936453
qz3cypz22zf4di7y9yj1uuur,7,5,3,1.0,52,pd,0.0,15.098,2.714562284717433
qz3cypz22zf4di7y9yj1uuur,8,5,3,1.0,59,pd,1.0,15.439,2.7368967756597895
s62sytaf6l5lm2fdeumsed7n,1,2,3,1.0,19,pd,0.0,1.947,0.6662897263900627
s62sytaf6l5lm2fdeumsed7n,2,2,3,1.0,20,pd,1.0,2.564,0.9415685390584236
s62sytaf6l5lm2fdeumsed7n,3,3,3,1.0,15,pd,0.0,0.658,-0.4185503476568198
s62sytaf6l5lm2fdeumsed7n,4,3,3,1.0,10,pd,0.0,0.93,-0.07257069283483537
s62sytaf6l5lm2fdeumsed7n,5,4,3,1.0,12,pd,1.0,2.304,0.8346467428336447
s62sytaf6l5lm2fdeumsed7n,6,4,3,1.0,23,pd,1.0,1.076,0.07325046173959274
s62sytaf6l5lm2fdeumsed7n,7,5,3,1.0,14,pd,1.0,1.791,0.5827741230785747
s62sytaf6l5lm2fdeumsed7n,8,5,3,1.0,26,pd,1.0,0.986,-0.014098924379501648
s69v6c39uejlekaa0wd3n6gv,1,2,3,1.0,19,pd,1.0,9.413,2.242091712565083
s69v6c39uejlekaa0wd3n6gv,2,2,3,1.0,20,pd,0.0,14.559,2.6782093590911886
s69v6c39uejlekaa0wd3n6gv,3,3,3,1.0,11,pd,0.0,10.791,2.3787124533815964
s69v6c39uejlekaa0wd3n6gv,4,3,3,1.0,18,pd,0.0,15.625,2.7488721956224653
s69v6c39uejlekaa0wd3n6gv,5,4,3,1.0,12,pd,0.0,10.652,2.365747667951686
s69v6c39uejlekaa0wd3n6gv,6,4,3,1.0,23,pd,0.0,12.173,2.4992203844274594
s69v6c39uejlekaa0wd3n6gv,7,5,3,1.0,14,pd,0.0,19.034,2.9462268536501517
s69v6c39uejlekaa0wd3n6gv,8,5,3,1.0,26,pd,0.0,8.775,2.1719067693519296
s6qdrc38m24k85lsun809tm1,1,2,3,1.0,1,pd,1.0,1.511,0.41277168329060243
s6qdrc38m24k85lsun809tm1,2,2,3,1.0,6,pd,0.0,4.752,1.5585655820603437
s6qdrc38m24k85lsun809tm1,3,3,3,1.0,15,pd,0.0,6.968,1.9413282395502016
s6qdrc38m24k85lsun809tm1,4,3,3,1.0,10,pd,1.0,14.864,2.698942182071483
s6qdrc38m24k85lsun809tm1,5,4,3,1.0,16,pd,1.0,9.224,2.221808782966758
s6qdrc38m24k85lsun809tm1,6,4,3,1.0,17,pd,1.0,14.84,2.6973262377392344
s6qdrc38m24k85lsun809tm1,7,5,3,1.0,52,pd,0.0,9.312,2.231303890989082
s6qdrc38m24k85lsun809tm1,8,5,3,1.0,59,pd,0.0,7.24,1.979621206397625
s814fvyx3xtxgoh26lu2xo0o,1,2,3,1.0,19,pd,0.0,4.791,1.566739157900985
s814fvyx3xtxgoh26lu2xo0o,2,2,3,1.0,20,pd,1.0,10.463,2.34784522439891
s814fvyx3xtxgoh26lu2xo0o,3,3,3,1.0,11,pd,0.0,11.255,2.4208124743586956
s814fvyx3xtxgoh26lu2xo0o,4,3,3,1.0,18,pd,1.0,6.407,1.8573911426568845
s814fvyx3xtxgoh26lu2xo0o,5,4,3,1.0,12,pd,0.0,3.932,1.3691482022849202
s814fvyx3xtxgoh26lu2xo0o,6,4,3,1.0,23,pd,0.0,5.962,1.7854059952558796
s814fvyx3xtxgoh26lu2xo0o,7,5,3,1.0,14,pd,1.0,3.493,1.250760965824695
s814fvyx3xtxgoh26lu2xo0o,8,5,3,1.0,26,pd,0.0,5.193,1.6473115648621819
sagqv1lehfgbzqedwjaoa251,1,2,3,1.0,1,pd,1.0,3.42,1.2296405510745139
sagqv1lehfgbzqedwjaoa251,2,2,3,1.0,6,pd,1.0,8.503,2.1404190424036553
sagqv1lehfgbzqedwjaoa251,3,3,3,1.0,11,pd,1.0,21.474,3.0668429010119436
sagqv1lehfgbzqedwjaoa251,4,3,3,1.0,18,pd,1.0,15.112,2.7154891301992086
sagqv1lehfgbzqedwjaoa251,5,4,3,1.0,12,pd,1.0,22.681,3.1215275695982987
sagqv1lehfgbzqedwjaoa251,6,4,3,1.0,23,pd,1.0,15.578,2.745859662497757
sagqv1lehfgbzqedwjaoa251,7,5,3,1.0,14,pd,1.0,14.725,2.6895467295376503
sagqv1lehfgbzqedwjaoa251,8,5,3,1.0,26,pd,,,
sr24x05xbcfpp407vazkqlrz,1,2,3,1.0,1,pd,1.0,3.847,1.347293623770158
sr24x05xbcfpp407vazkqlrz,2,2,3,1.0,6,pd,1.0,4.672,1.5415872455259259
sr24x05xbcfpp407vazkqlrz,3,3,3,1.0,15,pd,1.0,13.073,2.570549034579723
sr24x05xbcfpp407vazkqlrz,4,3,3,1.0,10,pd,0.0,6.59,1.8855533485144158
sr24x05xbcfpp407vazkqlrz,5,4,3,1.0,16,pd,0.0,1.229,0.20620083058389785
sr24x05xbcfpp407vazkqlrz,6,4,3,1.0,17,pd,0.0,0.855,-0.15665381004537685
sr24x05xbcfpp407vazkqlrz,7,5,3,1.0,14,pd,0.0,2.15,0.7654678421395714
sr24x05xbcfpp407vazkqlrz,8,5,3,1.0,26,pd,0.0,1.277,0.24451357705040216
t40o3iej643eic2dnq824zbo,1,2,3,1.0,19,pd,1.0,13.983,2.6378423060587135
t40o3iej643eic2dnq824zbo,2,2,3,1.0,20,pd,1.0,11.59,2.4501426573516603
t40o3iej643eic2dnq824zbo,3,3,3,1.0,15,pd,0.0,12.039,2.4881513799528894
t40o3iej643eic2dnq824zbo,4,3,3,1.0,10,pd,0.0,18.649,2.9257925253493093
t40o3iej643eic2dnq824zbo,5,4,3,1.0,12,pd,0.0,18.613,2.923860261316196
t40o3iej643eic2dnq824zbo,6,4,3,1.0,23,pd,0.0,10.854,2.384533675641213
t40o3iej643eic2dnq824zbo,7,5,3,1.0,14,pd,,,
t40o3iej643eic2dnq824zbo,8,5,3,1.0,26,pd,0.0,14.0,2.6390573296152584
t88l62m5luc73cw4o1ue30nz,1,2,3,1.0,19,pd,1.0,4.735,1.5549817266380417
t88l62m5luc73cw4o1ue30nz,2,2,3,1.0,20,pd,0.0,5.117,1.6325683298229547
t88l62m5luc73cw4o1ue30nz,3,3,3,1.0,11,pd,1.0,6.202,1.8248718206782573
t88l62m5luc73cw4o1ue30nz,4,3,3,1.0,18,pd,1.0,7.245,1.9803115757726457
t88l62m5luc73cw4o1ue30nz,5,4,3,1.0,16,pd,1.0,3.382,1.2184672504763885
t88l62m5luc73cw4o1ue30nz,6,4,3,1.0,17,pd,0.0,4.106,1.4124493185967417
t88l62m5luc73cw4o1ue30nz,7,5,3,1.0,14,pd,0.0,3.614,1.2848151921700368
t88l62m5luc73cw4o1ue30nz,8,5,3,1.0,26,pd,0.0,6.134,1.8138470656920598
t9d3r4e94iufm1ah305ebkha,1,2,3,1.0,1,pd,1.0,2.75,1.0116009116784799
t9d3r4e94iufm1ah305ebkha,2,2,3,1.0,6,pd,0.0,11.414,2.4348406721145164
t9d3r4e94iufm1ah305ebkha,3,3,3,1.0,11,pd,0.0,22.106,3.0958490648887635
t9d3r4e94iufm1ah305ebkha,4,3,3,1.0,18,pd,1.0,11.403,2.4338764786752214
t9d3r4e94iufm1ah305ebkha,5,4,3,1.0,16,pd,1.0,6.626,1.8910013038777043
t9d3r4e94iufm1ah305ebkha,6,4,3,1.0,17,pd,0.0,26.126,3.2629309870643715
t9d3r4e94iufm1ah305ebkha,7,5,3,1.0,14,pd,0.0,8.235,2.1083933636296037
t9d3r4e94iufm1ah305ebkha,8,5,3,1.0,26,pd,0.0,10.914,2.39004636876404
tx3bx0nov1zafxqgq5qxd3ov,1,2,3,1.0,19,pd,1.0,9.543,2.2558079014351167
tx3bx0nov1zafxqgq5qxd3ov,2,2,3,1.0,20,pd,0.0,17.649,2.8706791245504286
tx3bx0nov1zafxqgq5qxd3ov,3,3,3,1.0,15,pd,0.0,27.33,3.3079849999399764
tx3bx0nov1zafxqgq5qxd3ov,4,3,3,1.0,10,pd,1.0,28.525,3.350780895748139
tx3bx0nov1zafxqgq5qxd3ov,5,4,3,1.0,12,pd,1.0,16.625,2.810907586541918
tx3bx0nov1zafxqgq5qxd3ov,6,4,3,1.0,23,pd,1.0,15.405,2.734692132048631
tx3bx0nov1zafxqgq5qxd3ov,7,5,3,1.0,52,pd,0.0,28.845,3.3619366677088527
tx3bx0nov1zafxqgq5qxd3ov,8,5,3,1.0,59,pd,0.0,25.198,3.226764626288438
u14cqkb3zem2awe3nc6gek7c,1,2,3,1.0,1,pd,1.0,2.699,0.9928813340358675
u14cqkb3zem2awe3nc6gek7c,2,2,3,1.0,6,pd,1.0,3.395,1.2223037610106595
u14cqkb3zem2awe3nc6gek7c,3,3,3,1.0,15,pd,0.0,2.318,0.84070474491756
u14cqkb3zem2awe3nc6gek7c,4,3,3,1.0,10,pd,0.0,1.372,0.31626952930369356
u14cqkb3zem2awe3nc6gek7c,5,4,3,1.0,16,pd,0.0,1.711,0.5370779949100565
u14cqkb3zem2awe3nc6gek7c,6,4,3,1.0,17,pd,0.0,1.798,0.5866749360494286
u14cqkb3zem2awe3nc6gek7c,7,5,3,1.0,52,pd,0.0,2.272,0.8206605008589049
u14cqkb3zem2awe3nc6gek7c,8,5,3,1.0,59,pd,0.0,2.095,0.7395535533741011
ulw69hgebw64mbud6y4skmnm,1,2,3,1.0,19,pd,1.0,6.628,1.8913030995643165
ulw69hgebw64mbud6y4skmnm,2,2,3,1.0,20,pd,0.0,11.227,2.4183215914766425
ulw69hgebw64mbud6y4skmnm,3,3,3,1.0,15,pd,0.0,23.047,3.1375356091283537
ulw69hgebw64mbud6y4skmnm,4,3,3,1.0,10,pd,0.0,2.636,0.9692626166402608
ulw69hgebw64mbud6y4skmnm,5,4,3,1.0,16,pd,0.0,1.611,0.47685510419483734
ulw69hgebw64mbud6y4skmnm,6,4,3,1.0,17,pd,1.0,1.155,0.14410034397375687
ulw69hgebw64mbud6y4skmnm,7,5,3,1.0,14,pd,0.0,7.214,1.9760235824813472
ulw69hgebw64mbud6y4skmnm,8,5,3,1.0,26,pd,0.0,7.563,2.0232679368738924
v55aoqnaqxifjonrej1e94qo,1,2,3,1.0,19,pd,1.0,7.816,2.0561729147404817
v55aoqnaqxifjonrej1e94qo,2,2,3,1.0,20,pd,1.0,10.396,2.341421116779244
v55aoqnaqxifjonrej1e94qo,3,3,3,1.0,15,pd,1.0,11.743,2.463257318382944
v55aoqnaqxifjonrej1e94qo,4,3,3,1.0,10,pd,1.0,16.419,2.7984392008298906
v55aoqnaqxifjonrej1e94qo,5,4,3,1.0,12,pd,0.0,20.954,3.0423295589307733
v55aoqnaqxifjonrej1e94qo,6,4,3,1.0,23,pd,1.0,12.776,2.5475684109127115
v55aoqnaqxifjonrej1e94qo,7,5,3,1.0,14,pd,1.0,15.197,2.721098039951468
v55aoqnaqxifjonrej1e94qo,8,5,3,1.0,26,pd,1.0,16.865,2.8252404685136137
veifenknm2exp55wkymimhgq,1,2,3,1.0,19,pd,1.0,17.268,2.8488550776932313
veifenknm2exp55wkymimhgq,2,2,3,1.0,20,pd,0.0,2.012,0.6991292522374928
veifenknm2exp55wkymimhgq,3,3,3,1.0,11,pd,0.0,14.92,2.702702594775615
veifenknm2exp55wkymimhgq,4,3,3,1.0,18,pd,0.0,1.87,0.6259384308664954
veifenknm2exp55wkymimhgq,5,4,3,1.0,12,pd,1.0,12.275,2.507564673680584
veifenknm2exp55wkymimhgq,6,4,3,1.0,23,pd,1.0,11.685,2.4583059679908215
veifenknm2exp55wkymimhgq,7,5,3,1.0,14,pd,0.0,16.495,2.8030573046805447
veifenknm2exp55wkymimhgq,8,5,3,1.0,26,pd,0.0,2.75,1.0116009116784799
vmjfhqsa104plen4ymhhb54j,1,2,3,1.0,19,pd,1.0,10.974,2.3955288386367837
vmjfhqsa104plen4ymhhb54j,2,2,3,1.0,20,pd,1.0,10.953,2.3936133913416096
vmjfhqsa104plen4ymhhb54j,3,3,3,1.0,15,pd,0.0,26.246,3.2675135964740947
vmjfhqsa104plen4ymhhb54j,4,3,3,1.0,10,pd,1.0,24.203,3.1864765924215233
vmjfhqsa104plen4ymhhb54j,5,4,3,1.0,12,pd,1.0,20.222,3.0067711206692076
vmjfhqsa104plen4ymhhb54j,6,4,3,1.0,23,pd,1.0,15.505,2.7411625525524124
vmjfhqsa104plen4ymhhb54j,7,5,3,1.0,52,pd,0.0,27.065,3.298241380248941
vmjfhqsa104plen4ymhhb54j,8,5,3,1.0,59,pd,,,
w32b9rodpxgsg5wncn0r2hqe,1,2,3,1.0,1,pd,1.0,2.094,0.739076112448345
w32b9rodpxgsg5wncn0r2hqe,2,2,3,1.0,6,pd,1.0,8.103,2.092234363478588
w32b9rodpxgsg5wncn0r2hqe,3,3,3,1.0,11,pd,1.0,24.22,3.1871787381249463
w32b9rodpxgsg5wncn0r2hqe,4,3,3,1.0,18,pd,1.0,22.381,3.108212384637992
w32b9rodpxgsg5wncn0r2hqe,5,4,3,1.0,12,pd,,,
w32b9rodpxgsg5wncn0r2hqe,6,4,3,1.0,23,pd,0.0,12.513,2.526768103882918
w32b9rodpxgsg5wncn0r2hqe,7,5,3,1.0,52,pd,0.0,20.262,3.0087472106314856
w32b9rodpxgsg5wncn0r2hqe,8,5,3,1.0,59,pd,0.0,28.514,3.350395194731769
w8ybcy6j8oex2oif8n1si4kq,1,2,3,1.0,19,pd,1.0,16.255,2.7884005537558685
w8ybcy6j8oex2oif8n1si4kq,2,2,3,1.0,20,pd,1.0,9.958,2.298376248219991
w8ybcy6j8oex2oif8n1si4kq,3,3,3,1.0,15,pd,1.0,7.733,2.0454968856268985
w8ybcy6j8oex2oif8n1si4kq,4,3,3,1.0,10,pd,1.0,24.586,3.2021771752451493
w8ybcy6j8oex2oif8n1si4kq,5,4,3,1.0,16,pd,1.0,15.445,2.7372853263705452
w8ybcy6j8oex2oif8n1si4kq,6,4,3,1.0,17,pd,1.0,7.903,2.0672424342228384
w8ybcy6j8oex2oif8n1si4kq,7,5,3,1.0,52,pd,0.0,16.236,2.7872309989766513
w8ybcy6j8oex2oif8n1si4kq,8,5,3,1.0,59,pd,1.0,17.726,2.875032488316206
wedqa75qtxrnh46824tn6jbk,1,2,3,1.0,19,pd,1.0,5.855,1.7672959970496807
wedqa75qtxrnh46824tn6jbk,2,2,3,1.0,20,pd,1.0,7.977,2.0765624009289927
wedqa75qtxrnh46824tn6jbk,3,3,3,1.0,15,pd,1.0,7.0,1.9459101490553132
wedqa75qtxrnh46824tn6jbk,4,3,3,1.0,10,pd,1.0,12.888,2.5562966458746734
wedqa75qtxrnh46824tn6jbk,5,4,3,1.0,12,pd,1.0,10.664,2.3668735828764076
wedqa75qtxrnh46824tn6jbk,6,4,3,1.0,23,pd,1.0,16.537,2.8056002946680594
wedqa75qtxrnh46824tn6jbk,7,5,3,1.0,52,pd,1.0,16.807,2.8217954662944296
wedqa75qtxrnh46824tn6jbk,8,5,3,1.0,59,pd,0.0,16.489,2.802693491918831
whp1eqbn0x2dxh7by3nk2dda,1,2,3,1.0,1,pd,1.0,2.719,1.0002641656503337
whp1eqbn0x2dxh7by3nk2dda,2,2,3,1.0,6,pd,1.0,7.343,1.9937474784694735
whp1eqbn0x2dxh7by3nk2dda,3,3,3,1.0,11,pd,1.0,11.829,2.4705541435636
whp1eqbn0x2dxh7by3nk2dda,4,3,3,1.0,18,pd,1.0,12.623,2.5355205467707247
whp1eqbn0x2dxh7by3nk2dda,5,4,3,1.0,12,pd,0.0,24.259,3.1887876825509154
whp1eqbn0x2dxh7by3nk2dda,6,4,3,1.0,23,pd,1.0,13.497,2.602467438527145
whp1eqbn0x2dxh7by3nk2dda,7,5,3,1.0,52,pd,1.0,17.339,2.8529582995625358
whp1eqbn0x2dxh7by3nk2dda,8,5,3,1.0,59,pd,1.0,29.715,3.391651968818624
wjrrapbor7p9s1y6swwqel6g,1,2,3,1.0,1,pd,1.0,2.845,1.0455630675782943
wjrrapbor7p9s1y6swwqel6g,2,2,3,1.0,6,pd,1.0,17.529,2.86385665224041
wjrrapbor7p9s1y6swwqel6g,3,3,3,1.0,11,pd,1.0,19.149,2.95225049494203
wjrrapbor7p9s1y6swwqel6g,4,3,3,1.0,18,pd,1.0,15.641,2.7498956716921046
wjrrapbor7p9s1y6swwqel6g,5,4,3,1.0,12,pd,1.0,12.991,2.5642568100135956
wjrrapbor7p9s1y6swwqel6g,6,4,3,1.0,23,pd,1.0,13.048,2.5686348653187125
wjrrapbor7p9s1y6swwqel6g,7,5,3,1.0,14,pd,0.0,24.903,3.2149882781410084
wjrrapbor7p9s1y6swwqel6g,8,5,3,1.0,26,pd,1.0,24.95,3.2168738221975275
wmd7phtdpm131ssmim16a09r,1,2,3,1.0,1,pd,1.0,1.991,0.6886370250820593
wmd7phtdpm131ssmim16a09r,2,2,3,1.0,6,pd,1.0,7.52,2.017566137961748
wmd7phtdpm131ssmim16a09r,3,3,3,1.0,15,pd,1.0,15.973,2.7708997968078197
wmd7phtdpm131ssmim16a09r,4,3,3,1.0,10,pd,0.0,14.602,2.6811585056338942
wmd7phtdpm131ssmim16a09r,5,4,3,1.0,12,pd,1.0,11.169,2.4131420835586894
wmd7phtdpm131ssmim16a09r,6,4,3,1.0,23,pd,1.0,13.736,2.6200201235951743
wmd7phtdpm131ssmim16a09r,7,5,3,1.0,52,pd,1.0,17.355,2.8538806493137496
wmd7phtdpm131ssmim16a09r,8,5,3,1.0,59,pd,1.0,25.581,3.241849888428022
wocr3thfx6cm41pyjjzkb4lo,1,2,3,1.0,1,pd,1.0,2.721,1.0009994598011094
wocr3thfx6cm41pyjjzkb4lo,2,2,3,1.0,6,pd,1.0,11.432,2.4364164406275663
wocr3thfx6cm41pyjjzkb4lo,3,3,3,1.0,11,pd,0.0,21.388,3.062830017086485
wocr3thfx6cm41pyjjzkb4lo,4,3,3,1.0,18,pd,1.0,15.368,2.7322874254662555
wocr3thfx6cm41pyjjzkb4lo,5,4,3,1.0,16,pd,1.0,9.71,2.2731562823032334
wocr3thfx6cm41pyjjzkb4lo,6,4,3,1.0,17,pd,1.0,26.799,3.2883645733878115
wocr3thfx6cm41pyjjzkb4lo,7,5,3,1.0,14,pd,0.0,25.651,3.244582557211606
wocr3thfx6cm41pyjjzkb4lo,8,5,3,1.0,26,pd,1.0,25.797,3.250258206096869
wrbi4z8vg5zmwa3cniznq7kr,1,2,3,1.0,19,pd,1.0,8.703,2.1636677938073765
wrbi4z8vg5zmwa3cniznq7kr,2,2,3,1.0,20,pd,1.0,5.656,1.7327169285942716
wrbi4z8vg5zmwa3cniznq7kr,3,3,3,1.0,15,pd,0.0,6.472,1.8674851797561907
wrbi4z8vg5zmwa3cniznq7kr,4,3,3,1.0,10,pd,0.0,8.952,2.191876971009624
wrbi4z8vg5zmwa3cniznq7kr,5,4,3,1.0,16,pd,0.0,3.976,1.3802762887943276
wrbi4z8vg5zmwa3cniznq7kr,6,4,3,1.0,17,pd,0.0,8.464,2.1358218751159437
wrbi4z8vg5zmwa3cniznq7kr,7,5,3,1.0,52,pd,0.0,5.479,1.7009226025562787
wrbi4z8vg5zmwa3cniznq7kr,8,5,3,1.0,59,pd,0.0,5.879,1.7713866794201178
wz2ndcdxilb4q81ykcq4809w,1,2,3,1.0,1,pd,1.0,3.157,1.1496222095758546
wz2ndcdxilb4q81ykcq4809w,2,2,3,1.0,6,pd,0.0,7.136,1.9651523952777084
wz2ndcdxilb4q81ykcq4809w,3,3,3,1.0,15,pd,0.0,22.606,3.1182153577685394
wz2ndcdxilb4q81ykcq4809w,4,3,3,1.0,10,pd,0.0,29.6,3.3877743613300146
wz2ndcdxilb4q81ykcq4809w,5,4,3,1.0,12,pd,0.0,26.108,3.262241780772971
wz2ndcdxilb4q81ykcq4809w,6,4,3,1.0,23,pd,0.0,24.42,3.1954024686825586
wz2ndcdxilb4q81ykcq4809w,7,5,3,1.0,52,pd,1.0,26.705,3.2848508137917336
wz2ndcdxilb4q81ykcq4809w,8,5,3,1.0,59,pd,0.0,26.846,3.2901168340654445
wzfis0ja2uu2ozc3erzrlron,1,2,3,1.0,19,pd,1.0,12.666,2.5389212380942388
wzfis0ja2uu2ozc3erzrlron,2,2,3,1.0,20,pd,1.0,9.162,2.2150644954645506
wzfis0ja2uu2ozc3erzrlron,3,3,3,1.0,11,pd,1.0,13.119,2.574061561098893
wzfis0ja2uu2ozc3erzrlron,4,3,3,1.0,18,pd,1.0,14.096,2.6458910691938238
wzfis0ja2uu2ozc3erzrlron,5,4,3,1.0,16,pd,1.0,5.304,1.6684612528835614
wzfis0ja2uu2ozc3erzrlron,6,4,3,1.0,17,pd,1.0,7.106,1.9609394975988352
wzfis0ja2uu2ozc3erzrlron,7,5,3,1.0,14,pd,1.0,19.7,2.9806186357439426
wzfis0ja2uu2ozc3erzrlron,8,5,3,1.0,26,pd,1.0,14.394,2.6668114530856126
x95sri0tbypb9ga34bql9gpc,1,2,3,1.0,1,pd,1.0,4.201,1.435322592187245
x95sri0tbypb9ga34bql9gpc,2,2,3,1.0,6,pd,1.0,11.563,2.447810345146825
x95sri0tbypb9ga34bql9gpc,3,3,3,1.0,15,pd,1.0,14.622,2.682527243871124
x95sri0tbypb9ga34bql9gpc,4,3,3,1.0,10,pd,1.0,16.725,2.816904606014292
x95sri0tbypb9ga34bql9gpc,5,4,3,1.0,16,pd,1.0,9.195,2.2186598580562844
x95sri0tbypb9ga34bql9gpc,6,4,3,1.0,17,pd,0.0,26.898,3.2920519344013575
x95sri0tbypb9ga34bql9gpc,7,5,3,1.0,52,pd,1.0,26.151,3.2638874306975487
x95sri0tbypb9ga34bql9gpc,8,5,3,1.0,59,pd,0.0,19.826,2.9869942076107057
x9yinwmoyajxhbzo6k7xc2an,1,2,3,1.0,1,pd,1.0,3.057,1.1174340429086975
x9yinwmoyajxhbzo6k7xc2an,2,2,3,1.0,6,pd,0.0,18.766,2.9320467218678576
x9yinwmoyajxhbzo6k7xc2an,3,3,3,1.0,11,pd,0.0,22.434,3.110577665223032
x9yinwmoyajxhbzo6k7xc2an,4,3,3,1.0,18,pd,1.0,15.977,2.7711501880454343
x9yinwmoyajxhbzo6k7xc2an,5,4,3,1.0,12,pd,1.0,27.404,3.3106889881406527
x9yinwmoyajxhbzo6k7xc2an,6,4,3,1.0,23,pd,1.0,14.329,2.662285455734466
x9yinwmoyajxhbzo6k7xc2an,7,5,3,1.0,52,pd,0.0,26.338,3.2710127632880286
x9yinwmoyajxhbzo6k7xc2an,8,5,3,1.0,59,pd,0.0,28.516,3.3504653332553818
xdbs345yx1gy374scqd6b0o9,1,2,3,1.0,1,pd,1.0,3.599,1.2806560290968938
xdbs345yx1gy374scqd6b0o9,2,2,3,1.0,6,pd,0.0,8.307,2.1170985328569345
xdbs345yx1gy374scqd6b0o9,3,3,3,1.0,11,pd,0.0,10.46,2.347558458636777
xdbs345yx1gy374scqd6b0o9,4,3,3,1.0,18,pd,1.0,18.426,2.9137627106867403
xdbs345yx1gy374scqd6b0o9,5,4,3,1.0,12,pd,1.0,11.548,2.4465122618006885
xdbs345yx1gy374scqd6b0o9,6,4,3,1.0,23,pd,1.0,11.971,2.482487058269233
xdbs345yx1gy374scqd6b0o9,7,5,3,1.0,14,pd,0.0,26.74,3.286160571673797
xdbs345yx1gy374scqd6b0o9,8,5,3,1.0,26,pd,0.0,16.135,2.7809908255039253
xtenn66s2r66unn451ffd0gn,1,2,3,1.0,19,pd,0.0,6.74,1.9080599249242156
xtenn66s2r66unn451ffd0gn,2,2,3,1.0,20,pd,1.0,6.645,1.8938646921652087
xtenn66s2r66unn451ffd0gn,3,3,3,1.0,11,pd,1.0,9.862,2.2886889878019345
xtenn66s2r66unn451ffd0gn,4,3,3,1.0,18,pd,1.0,6.695,1.9013609791431358
xtenn66s2r66unn451ffd0gn,5,4,3,1.0,16,pd,1.0,4.769,1.5621366393160874
xtenn66s2r66unn451ffd0gn,6,4,3,1.0,17,pd,0.0,14.208,2.6538051862498144
xtenn66s2r66unn451ffd0gn,7,5,3,1.0,14,pd,0.0,13.276,2.5859578938577283
xtenn66s2r66unn451ffd0gn,8,5,3,1.0,26,pd,0.0,15.242,2.7240547752439257
yeyf5cr0oz08obuk9slyam10,1,2,3,1.0,1,pd,1.0,1.953,0.6693666518945419
yeyf5cr0oz08obuk9slyam10,2,2,3,1.0,6,pd,1.0,10.374,2.3393026759292086
yeyf5cr0oz08obuk9slyam10,3,3,3,1.0,11,pd,1.0,8.732,2.1669944386876976
yeyf5cr0oz08obuk9slyam10,4,3,3,1.0,18,pd,0.0,9.288,2.2287232443955904
yeyf5cr0oz08obuk9slyam10,5,4,3,1.0,16,pd,1.0,4.497,1.5034105077885702
yeyf5cr0oz08obuk9slyam10,6,4,3,1.0,17,pd,1.0,11.387,2.432472353828468
yeyf5cr0oz08obuk9slyam10,7,5,3,1.0,52,pd,0.0,14.036,2.6416254577209686
yeyf5cr0oz08obuk9slyam10,8,5,3,1.0,59,pd,0.0,8.169,2.100346502359732
ykfd3p7e4j5s36ksscm33dzz,1,2,3,1.0,19,pd,1.0,11.097,2.4066748015184265
ykfd3p7e4j5s36ksscm33dzz,2,2,3,1.0,20,pd,1.0,9.639,2.265817368801831
ykfd3p7e4j5s36ksscm33dzz,3,3,3,1.0,11,pd,1.0,26.007,3.258365732554613
ykfd3p7e4j5s36ksscm33dzz,4,3,3,1.0,18,pd,1.0,13.657,2.6142522106962875
ykfd3p7e4j5s36ksscm33dzz,5,4,3,1.0,16,pd,1.0,8.135,2.096175740671001
ykfd3p7e4j5s36ksscm33dzz,6,4,3,1.0,17,pd,1.0,25.61,3.242982900211434
ykfd3p7e4j5s36ksscm33dzz,7,5,3,1.0,52,pd,1.0,23.795,3.169475474573074
ykfd3p7e4j5s36ksscm33dzz,8,5,3,1.0,59,pd,0.0,29.793,3.3942734665893313
yo56smy7qaae5qs2l8ztx4r4,1,2,3,1.0,19,pd,1.0,6.542,1.8782429291161922
yo56smy7qaae5qs2l8ztx4r4,2,2,3,1.0,20,pd,1.0,12.239,2.5046275744002013
yo56smy7qaae5qs2l8ztx4r4,3,3,3,1.0,15,pd,1.0,19.26,2.9580304063699794
yo56smy7qaae5qs2l8ztx4r4,4,3,3,1.0,10,pd,1.0,17.785,2.8783554054004186
yo56smy7qaae5qs2l8ztx4r4,5,4,3,1.0,12,pd,1.0,22.913,3.1317044350772054
yo56smy7qaae5qs2l8ztx4r4,6,4,3,1.0,23,pd,1.0,28.311,3.343250421707306
yo56smy7qaae5qs2l8ztx4r4,7,5,3,1.0,14,pd,0.0,27.567,3.3166194051868576
yo56smy7qaae5qs2l8ztx4r4,8,5,3,1.0,26,pd,0.0,11.206,2.4164493491430927
yo8bylaza1b280dbu1btk185,1,2,3,1.0,19,pd,1.0,18.864,2.937255343795015
yo8bylaza1b280dbu1btk185,2,2,3,1.0,20,pd,1.0,13.196,2.579913753366335
yo8bylaza1b280dbu1btk185,3,3,3,1.0,15,pd,,,
yo8bylaza1b280dbu1btk185,4,3,3,1.0,10,pd,1.0,18.919,2.9401667081042824
yo8bylaza1b280dbu1btk185,5,4,3,1.0,16,pd,1.0,13.569,2.6077877791638158
yo8bylaza1b280dbu1btk185,6,4,3,1.0,17,pd,1.0,20.958,3.04252043505275
yo8bylaza1b280dbu1btk185,7,5,3,1.0,52,pd,,,
yo8bylaza1b280dbu1btk185,8,5,3,1.0,59,pd,0.0,0.248,-1.3943265328171548
yu4r9iioam431s56hlzdhd5x,1,2,3,1.0,1,pd,1.0,2.438,0.8911780310590799
yu4r9iioam431s56hlzdhd5x,2,2,3,1.0,6,pd,1.0,5.632,1.7284646188557413
yu4r9iioam431s56hlzdhd5x,3,3,3,1.0,15,pd,1.0,9.238,2.2233254120084136
yu4r9iioam431s56hlzdhd5x,4,3,3,1.0,10,pd,0.0,15.818,2.7611485320972253
yu4r9iioam431s56hlzdhd5x,5,4,3,1.0,12,pd,1.0,5.911,1.7768150218422323
yu4r9iioam431s56hlzdhd5x,6,4,3,1.0,23,pd,0.0,8.647,2.1572124399782933
yu4r9iioam431s56hlzdhd5x,7,5,3,1.0,52,pd,0.0,13.768,2.6223470589092384
yu4r9iioam431s56hlzdhd5x,8,5,3,1.0,59,pd,1.0,13.816,2.6258273408443777
z4msps7pfz5irt5s4nno460i,1,2,3,1.0,19,pd,0.0,12.764,2.546628708415997
z4msps7pfz5irt5s4nno460i,2,2,3,1.0,20,pd,1.0,6.479,1.8685661774678202
z4msps7pfz5irt5s4nno460i,3,3,3,1.0,15,pd,0.0,9.304,2.2304444152163634
z4msps7pfz5irt5s4nno460i,4,3,3,1.0,10,pd,0.0,10.952,2.3935220879861476
z4msps7pfz5irt5s4nno460i,5,4,3,1.0,12,pd,0.0,6.879,1.928473292543877
z4msps7pfz5irt5s4nno460i,6,4,3,1.0,23,pd,1.0,9.202,2.2194208517332767
z4msps7pfz5irt5s4nno460i,7,5,3,1.0,52,pd,1.0,9.244,2.2239746924121344
z4msps7pfz5irt5s4nno460i,8,5,3,1.0,59,pd,0.0,6.323,1.8441937790764762
zoo463f39bz7mlyxt7ivk9ob,1,2,3,1.0,1,pd,1.0,3.205,1.1647120903726333
zoo463f39bz7mlyxt7ivk9ob,2,2,3,1.0,6,pd,1.0,7.268,1.9834811505339247
zoo463f39bz7mlyxt7ivk9ob,3,3,3,1.0,15,pd,1.0,8.974,2.1943315075537915
zoo463f39bz7mlyxt7ivk9ob,4,3,3,1.0,10,pd,1.0,14.116,2.6473089058130235
zoo463f39bz7mlyxt7ivk9ob,5,4,3,1.0,12,pd,0.0,12.181,2.499877360717822
zoo463f39bz7mlyxt7ivk9ob,6,4,3,1.0,23,pd,1.0,11.138,2.4103626851674766
zoo463f39bz7mlyxt7ivk9ob,7,5,3,1.0,14,pd,1.0,15.384,2.733328008286479
zoo463f39bz7mlyxt7ivk9ob,8,5,3,1.0,26,pd,1.0,21.37,3.0619880693310564
zpib9xtiih76osu2o6qm0yus,1,2,3,1.0,1,pd,1.0,1.842,0.6108519378331152
zpib9xtiih76osu2o6qm0yus,2,2,3,1.0,6,pd,0.0,4.796,1.5677822371652679
zpib9xtiih76osu2o6qm0yus,3,3,3,1.0,11,pd,1.0,7.078,1.9569913819232716
zpib9xtiih76osu2o6qm0yus,4,3,3,1.0,18,pd,0.0,5.832,1.763359994706357
zpib9xtiih76osu2o6qm0yus,5,4,3,1.0,16,pd,1.0,4.929,1.5951361277232408
zpib9xtiih76osu2o6qm0yus,6,4,3,1.0,17,pd,1.0,7.391,2.0002630438027498
zpib9xtiih76osu2o6qm0yus,7,5,3,1.0,52,pd,0.0,4.689,1.5452193401074492
zpib9xtiih76osu2o6qm0yus,8,5,3,1.0,59,pd,0.0,5.913,1.7771533168386928
zzml755kuw69m5au8z6wt0lg,1,2,3,1.0,19,pd,1.0,8.695,2.1627481478062465
