[{"view_history":[{"page_index":0,"viewing_time":11164.5}],"rt":11166.100000143051,"trial_type":"instructions","trial_index":0,"time_elapsed":11267,"internal_node_id":"0.0-0.0","experiment":"validation","task_version":"2.0","jspsych_version":"6.3.1"},{"rt":9557.399999856949,"responses":{"age":"25","gender-categorical":"Female","gender-free-response":"","ethnicity":"Hispanic or Latino","race":["White"],"education":"Some college"},"survey":"demographics","trial_type":"survey-demo","trial_index":1,"time_elapsed":20880,"internal_node_id":"0.0-1.0","experiment":"validation","task_version":"2.0","jspsych_version":"6.3.1"},{"responses":{"Q09":"4","Q03":"4","Q08":"3","Q04":"4","Q05":"2","Q01":"3","Q06":"3","Q07":"4","Q02":"3"},"rt":32690.200000047684,"item_order":[8,2,7,3,4,0,5,6,1],"radio_events":[5603,9170.900000095367,11136.799999952316,15288.900000095367,18360.200000047684,21159.599999904633,22332.099999904633,24902.900000095367,25508.799999952316,31320.599999904633],"key_events":[],"mouse_events":[4173.400000095367,5603,9170.900000095367,11136.799999952316,14170.700000047684,15288.900000095367,18360.200000047684,21159.599999904633,22332.099999904633,23394.700000047684,23965.799999952316,24384.5,24902.900000095367,25508.799999952316,26201,31320.599999904633,32685.200000047684],"straightlining":0.4444444444444444,"zigzagging":0.75,"honeypot":0,"survey":"pcf","trial_type":"survey-template","trial_index":2,"time_elapsed":53582,"internal_node_id":"0.0-2.0","experiment":"validation","task_version":"2.0","jspsych_version":"6.3.1","infrequency":0},{"responses":{"Q04":"1","Q08":"1","Q09":"1","Q01":"0","Q06":"0","Q07":"0","Q11":"0","Q10":"1","Q05":"3","Q03":"1","Q02":"1"},"rt":47851.799999952316,"item_order":[3,7,8,0,5,6,10,9,4,2,1],"radio_events":[6368.799999952316,7377.5,9583.799999952316,11985.299999952316,12682,15003.299999952316,21498.89999985695,36051.299999952316,38221.299999952316,41919.09999990463,44177,47050.799999952316],"key_events":[],"mouse_events":[4393.399999856949,6368.799999952316,7377.5,8377.099999904633,9583.799999952316,10976.599999904633,11985.299999952316,12682,15003.299999952316,21498.89999985695,35449.700000047684,36051.299999952316,37349.5,38221.299999952316,41919.09999990463,44177,47050.799999952316,47849.09999990463],"straightlining":0.45454545454545453,"zigzagging":0.2,"honeypot":0,"survey":"nfc10","trial_type":"survey-template","trial_index":3,"time_elapsed":101441,"internal_node_id":"0.0-3.0","experiment":"validation","task_version":"2.0","jspsych_version":"6.3.1","infrequency":0},{"rt":35562.09999990463,"response":{"Q5":0,"Q8":0,"Q3":2,"Q7":2,"Q6":1,"Q1":3,"Q4":3,"Q2":2,"Q0":3},"question_order":[5,8,3,7,6,1,4,2,0],"survey":"sns","trial_type":"survey-likert","trial_index":4,"time_elapsed":137014,"internal_node_id":"0.0-4.0","experiment":"validation","task_version":"2.0","jspsych_version":"6.3.1","infrequency":0},{"value":0,"trial_type":"call-function","trial_index":5,"time_elapsed":137018,"internal_node_id":"0.0-5.0","experiment":"validation","task_version":"2.0","jspsych_version":"6.3.1","interactions":"[]"}]