[{"view_history":[{"page_index":0,"viewing_time":3263.6000003814697}],"rt":3264.2000002861023,"trial_type":"instructions","trial_index":0,"time_elapsed":3304,"internal_node_id":"0.0-0.0","experiment":"validation","task_version":"1.1","jspsych_version":"6.3.1"},{"rt":16235.099999904633,"responses":{"age":"62","gender-categorical":"Female","gender-free-response":"","ethnicity":"Not Hispanic or Latino","race":["White"],"education":"Some college"},"survey":"demographics","trial_type":"survey-demo","trial_index":1,"time_elapsed":19545,"internal_node_id":"0.0-1.0","experiment":"validation","task_version":"1.1","jspsych_version":"6.3.1"},{"responses":{"Q02":"3","Q06":"3","Q07":"2","Q04":"3","Q01":"2","Q03":"2","Q05":"3"},"rt":29756.599999904633,"item_order":[1,5,6,3,0,2,4],"radio_events":[7223.099999904633,12936.400000095367,14871.900000095367,19130,23265.800000190735,26066.900000095367,28963.5],"key_events":[],"mouse_events":[6196,7223.099999904633,12936.400000095367,14871.900000095367,19130,23265.800000190735,26066.900000095367,28963.5,29752.599999904633],"straightlining":0.42857142857142855,"zigzagging":0.6666666666666666,"honeypot":0,"survey":"nfc6","trial_type":"survey-template","trial_index":2,"time_elapsed":49315,"internal_node_id":"0.0-2.0","experiment":"validation","task_version":"1.1","jspsych_version":"6.3.1","infrequency":0},{"responses":{"Q05":"0","Q10":"0","Q03":"0","Q01":"3","Q07":"4","Q09":"3","Q02":"4","Q04":"3","Q11":"0","Q08":"3","Q06":"3"},"rt":31925.60000038147,"item_order":[4,9,2,0,6,8,1,3,10,7,5],"radio_events":[2182.2000002861023,5386.10000038147,7448.800000190735,8684.800000190735,11229.900000095367,12977.400000095367,17770.5,20614.700000286102,22852.10000038147,25618.400000095367,28808.900000095367,31139],"key_events":[],"mouse_events":[2182.2000002861023,5386.10000038147,7448.800000190735,8684.800000190735,11229.900000095367,12977.400000095367,17770.5,20614.700000286102,22852.10000038147,25618.400000095367,28808.900000095367,31139,31922.400000095367],"straightlining":0.36363636363636365,"zigzagging":0.4,"honeypot":0,"survey":"openness","trial_type":"survey-template","trial_index":3,"time_elapsed":81256,"internal_node_id":"0.0-3.0","experiment":"validation","task_version":"1.1","jspsych_version":"6.3.1","infrequency":0},{"responses":{"Q06":"1","Q01":"0","Q02":"0","Q04":"0","Q07":"0","Q08":"1","Q09":"0","Q03":"0","Q05":"1","Q10":"2","Q11":"4"},"rt":21185,"item_order":[5,0,1,3,6,7,8,2,4,9,10],"radio_events":[2927.5999999046326,4610.5,5700,7341,8333.099999904633,9705.900000095367,10390,12660.199999809265,14517.400000095367,15713,18794.599999904633,20633.299999713898],"key_events":[],"mouse_events":[2927.5999999046326,4610.5,5700,7341,8333.099999904633,9705.900000095367,10390,12660.199999809265,14517.400000095367,15713,18794.599999904633,20633.299999713898,21182.5],"straightlining":0.36363636363636365,"zigzagging":0.6,"honeypot":0,"survey":"neuroticism","trial_type":"survey-template","trial_index":4,"time_elapsed":102452,"internal_node_id":"0.0-4.0","experiment":"validation","task_version":"1.1","jspsych_version":"6.3.1","infrequency":0},{"value":[0,1.155844155844156,1.6666666666666665],"trial_type":"call-function","trial_index":5,"time_elapsed":102460,"internal_node_id":"0.0-5.0","experiment":"validation","task_version":"1.1","jspsych_version":"6.3.1","interactions":"[]"}]