[{"view_history":[{"page_index":0,"viewing_time":1173}],"rt":1173.1000000238419,"trial_type":"instructions","trial_index":0,"time_elapsed":1183,"internal_node_id":"0.0-0.0","experiment":"validation","task_version":"2.0","jspsych_version":"6.3.1"},{"rt":6495.299999982119,"responses":{"age":"36","gender-categorical":"Male","gender-free-response":"","ethnicity":"Not Hispanic or Latino","race":["Black or African American"],"education":"Bachelor degree"},"survey":"demographics","trial_type":"survey-demo","trial_index":1,"time_elapsed":7679,"internal_node_id":"0.0-1.0","experiment":"validation","task_version":"2.0","jspsych_version":"6.3.1"},{"rt":27132.40000000596,"response":{"Q7":4,"Q1":4,"Q6":1,"Q8":0,"Q0":3,"Q4":3,"Q3":4,"Q2":5,"Q5":4},"question_order":[7,1,6,8,0,4,3,2,5],"survey":"sns","trial_type":"survey-likert","trial_index":2,"time_elapsed":34813,"internal_node_id":"0.0-2.0","experiment":"validation","task_version":"2.0","jspsych_version":"6.3.1","infrequency":0},{"responses":{"Q04":"3","Q09":"4","Q06":"3","Q07":"3","Q01":"3","Q08":"4","Q03":"4","Q05":"3","Q02":"3"},"rt":232821.20000001788,"item_order":[3,8,5,6,0,7,2,4,1],"radio_events":[203746,205796,210380,214665.90000000596,215004.09999999404,218856,223535.90000000596,226098,229840,231921.90000000596],"key_events":[],"mouse_events":[203104.09999999404,203442,203746,205796,210380,213690,214665.90000000596,215004.09999999404,218856,223535.90000000596,224079.90000000596,224655.90000000596,226098,226804.09999999404,229840,231585.90000000596,231921.90000000596,232820.40000000596],"straightlining":0.6666666666666666,"zigzagging":0.25,"honeypot":0,"survey":"pcf","trial_type":"survey-template","trial_index":3,"time_elapsed":267636,"internal_node_id":"0.0-3.0","experiment":"validation","task_version":"2.0","jspsych_version":"6.3.1","infrequency":0},{"responses":{"Q03":"3","Q09":"3","Q01":"3","Q02":"3","Q07":"3","Q06":"3","Q05":"1","Q11":"0","Q04":"3","Q10":"2","Q08":"3"},"rt":35520.09999999404,"item_order":[2,8,0,1,6,5,4,10,3,9,7],"radio_events":[3585.199999988079,5299.199999988079,8969.09999999404,9321.299999982119,17303.09999999404,17735.29999998212,22605.29999998212,24031.19999998808,27613.29999998212,30993.19999998808,35071.19999998808],"key_events":[],"mouse_events":[3121.199999988079,3585.199999988079,5299.199999988079,6485.0999999940395,7205.199999988079,7863,8969.09999999404,9321.299999982119,16821.40000000596,17303.09999999404,17735.29999998212,22605.29999998212,23519.09999999404,24031.19999998808,27613.29999998212,30993.19999998808,34205.19999998808,35071.19999998808,35519.40000000596],"straightlining":0.6363636363636364,"zigzagging":0.3,"honeypot":0,"survey":"nfc10","trial_type":"survey-template","trial_index":4,"time_elapsed":303158,"internal_node_id":"0.0-4.0","experiment":"validation","task_version":"2.0","jspsych_version":"6.3.1","infrequency":0},{"value":0,"trial_type":"call-function","trial_index":5,"time_elapsed":303159,"internal_node_id":"0.0-5.0","experiment":"validation","task_version":"2.0","jspsych_version":"6.3.1","interactions":"[{\"event\":\"blur\",\"trial\":3,\"time\":36143},{\"event\":\"focus\",\"trial\":3,\"time\":222243}]"}]