[{"view_history":[{"page_index":0,"viewing_time":5899.800000011921}],"rt":5902.9000000059605,"trial_type":"instructions","trial_index":0,"time_elapsed":5926,"internal_node_id":"0.0-0.0","experiment":"validation","task_version":"1.1","jspsych_version":"6.3.1"},{"rt":27896.09999999404,"responses":{"age":"29","gender-categorical":"Male","gender-free-response":"","ethnicity":"Not Hispanic or Latino","race":["Black or African American"],"education":"Bachelor degree"},"survey":"demographics","trial_type":"survey-demo","trial_index":1,"time_elapsed":33840,"internal_node_id":"0.0-1.0","experiment":"validation","task_version":"1.1","jspsych_version":"6.3.1"},{"responses":{"Q03":"1","Q06":"3","Q01":"2","Q05":"2","Q04":"1","Q02":"3","Q07":"2"},"rt":89415.60000002384,"item_order":[2,5,0,4,3,1,6],"radio_events":[14686.600000023842,59484.70000001788,64222.90000000596,68689.30000001192,75620.20000001788,78271,81642.70000001788],"key_events":[],"mouse_events":[13735.100000023842,14686.600000023842,59484.70000001788,64222.90000000596,68689.30000001192,75620.20000001788,78271,81642.70000001788,89407.30000001192],"straightlining":0.5714285714285714,"zigzagging":0.5,"honeypot":0,"survey":"nfc6","trial_type":"survey-template","trial_index":2,"time_elapsed":123277,"internal_node_id":"0.0-2.0","experiment":"validation","task_version":"1.1","jspsych_version":"6.3.1","infrequency":0},{"responses":{"Q04":"0","Q03":"4","Q09":"3","Q01":"4","Q11":"0","Q08":"4","Q07":"4","Q05":"0","Q10":"2","Q06":"2","Q02":"2"},"rt":46594,"item_order":[3,2,8,0,10,7,6,4,9,5,1],"radio_events":[12746.5,14635.300000011921,20368.20000001788,23549.90000000596,24497.5,27140,29263.30000001192,34598,36588.40000000596,39843.80000001192,43924.60000002384,45245.20000001788],"key_events":[],"mouse_events":[12746.5,14635.300000011921,20368.20000001788,23549.90000000596,24497.5,27140,29263.30000001192,34598,36588.40000000596,39843.80000001192,43924.60000002384,45245.20000001788,46572.60000002384],"straightlining":0.36363636363636365,"zigzagging":0.2,"honeypot":0,"survey":"openness","trial_type":"survey-template","trial_index":3,"time_elapsed":169892,"internal_node_id":"0.0-3.0","experiment":"validation","task_version":"1.1","jspsych_version":"6.3.1","infrequency":0},{"responses":{"Q05":"2","Q03":"2","Q06":"2","Q08":"0","Q04":"3","Q07":"2","Q11":"4","Q10":"0","Q09":"1","Q01":"2","Q02":"0"},"rt":50024.30000001192,"item_order":[4,2,5,7,3,6,10,9,8,0,1],"radio_events":[3447,12185.09999999404,13725.40000000596,17946.09999999404,21164.30000001192,24052,27968.59999999404,32360.69999998808,35612.5,38451.69999998808,46385.80000001192],"key_events":[],"mouse_events":[3447,12185.09999999404,13725.40000000596,17946.09999999404,20195,21164.30000001192,24052,27120.90000000596,27968.59999999404,32360.69999998808,35612.5,38451.69999998808,46385.80000001192,50007.40000000596],"straightlining":0.45454545454545453,"zigzagging":0.4,"honeypot":0,"survey":"neuroticism","trial_type":"survey-template","trial_index":4,"time_elapsed":219937,"internal_node_id":"0.0-4.0","experiment":"validation","task_version":"1.1","jspsych_version":"6.3.1","infrequency":0},{"value":[0,1.3896103896103895,1.1],"trial_type":"call-function","trial_index":5,"time_elapsed":219945,"internal_node_id":"0.0-5.0","experiment":"validation","task_version":"1.1","jspsych_version":"6.3.1","interactions":"[]"}]