[{"success":true,"timeout":false,"failed_images":[],"failed_audio":[],"failed_video":[],"trial_type":"preload","trial_index":0,"time_elapsed":3404,"internal_node_id":"0.0-0.0","experiment":"validation","task_version":"2.0","jspsych_version":"6.3.1"},{"success":true,"trial_type":"fullscreen","trial_index":1,"time_elapsed":6288,"internal_node_id":"0.0-1.0","experiment":"validation","task_version":"2.0","jspsych_version":"6.3.1"},{"view_history":[{"page_index":0,"viewing_time":5978.400000095367},{"page_index":1,"viewing_time":2575.6999999284744}],"rt":8554.700000047684,"trial_type":"instructions","trial_index":2,"time_elapsed":14844,"internal_node_id":"0.0-2.0","experiment":"validation","task_version":"2.0","jspsych_version":"6.3.1"},{"min_width":700,"min_height":600,"inner_width":1920,"inner_height":1080,"trial_type":"screen-check","trial_index":3,"time_elapsed":14845,"internal_node_id":"0.0-3.0-0.0-0.0","experiment":"validation","task_version":"2.0","jspsych_version":"6.3.1"},{"rt":null,"stimulus":"<div style=\"font-size:24px;\">Loading puzzle:<br>1 / 9</div>","response":null,"trial_type":"html-keyboard-response","trial_index":4,"time_elapsed":16058,"internal_node_id":"0.0-3.0-0.0-1.0","experiment":"validation","task_version":"2.0","jspsych_version":"6.3.1"},{"stimulus":"../static/img/rpm/a11.png","choice_order":[0,3,2,1,5,4],"correct":4,"choice":4,"accuracy":1,"rt":12199.199999928474,"screen_resolution":[1920,1080],"minimum_resolution":1,"all_loaded":true,"test_form":"a","trial_type":"rpm","trial_index":5,"time_elapsed":28262,"internal_node_id":"0.0-3.0-0.0-2.0","experiment":"validation","task_version":"2.0","jspsych_version":"6.3.1"},{"min_width":700,"min_height":600,"inner_width":1920,"inner_height":1080,"trial_type":"screen-check","trial_index":6,"time_elapsed":28264,"internal_node_id":"0.0-3.0-0.0-0.1","experiment":"validation","task_version":"2.0","jspsych_version":"6.3.1"},{"rt":null,"stimulus":"<div style=\"font-size:24px;\">Loading puzzle:<br>2 / 9</div>","response":null,"trial_type":"html-keyboard-response","trial_index":7,"time_elapsed":29465,"internal_node_id":"0.0-3.0-0.0-1.1","experiment":"validation","task_version":"2.0","jspsych_version":"6.3.1"},{"stimulus":"../static/img/rpm/a24.png","choice_order":[3,1,4,2,0,5],"correct":4,"choice":4,"accuracy":1,"rt":12572.599999904633,"screen_resolution":[1920,1080],"minimum_resolution":1,"all_loaded":true,"test_form":"a","trial_type":"rpm","trial_index":8,"time_elapsed":42040,"internal_node_id":"0.0-3.0-0.0-2.1","experiment":"validation","task_version":"2.0","jspsych_version":"6.3.1"},{"min_width":700,"min_height":600,"inner_width":1920,"inner_height":1080,"trial_type":"screen-check","trial_index":9,"time_elapsed":42042,"internal_node_id":"0.0-3.0-0.0-0.2","experiment":"validation","task_version":"2.0","jspsych_version":"6.3.1"},{"rt":null,"stimulus":"<div style=\"font-size:24px;\">Loading puzzle:<br>3 / 9</div>","response":null,"trial_type":"html-keyboard-response","trial_index":10,"time_elapsed":43243,"internal_node_id":"0.0-3.0-0.0-1.2","experiment":"validation","task_version":"2.0","jspsych_version":"6.3.1"},{"stimulus":"../static/img/rpm/a28.png","choice_order":[6,0,3,5,7,1,4,2],"correct":7,"choice":7,"accuracy":1,"rt":29656.100000023842,"screen_resolution":[1920,1080],"minimum_resolution":1,"all_loaded":true,"test_form":"a","trial_type":"rpm","trial_index":11,"time_elapsed":72902,"internal_node_id":"0.0-3.0-0.0-2.2","experiment":"validation","task_version":"2.0","jspsych_version":"6.3.1"},{"min_width":700,"min_height":600,"inner_width":1920,"inner_height":1080,"trial_type":"screen-check","trial_index":12,"time_elapsed":72905,"internal_node_id":"0.0-3.0-0.0-0.3","experiment":"validation","task_version":"2.0","jspsych_version":"6.3.1"},{"rt":null,"stimulus":"<div style=\"font-size:24px;\">Loading puzzle:<br>4 / 9</div>","response":null,"trial_type":"html-keyboard-response","trial_index":13,"time_elapsed":74105,"internal_node_id":"0.0-3.0-0.0-1.3","experiment":"validation","task_version":"2.0","jspsych_version":"6.3.1"},{"stimulus":"../static/img/rpm/a36.png","choice_order":[4,7,3,1,0,2,6,5],"correct":1,"choice":null,"accuracy":null,"rt":null,"screen_resolution":[1920,1080],"minimum_resolution":1,"all_loaded":true,"test_form":"a","trial_type":"rpm","trial_index":14,"time_elapsed":104110,"internal_node_id":"0.0-3.0-0.0-2.3","experiment":"validation","task_version":"2.0","jspsych_version":"6.3.1"},{"min_width":700,"min_height":600,"inner_width":1920,"inner_height":1080,"trial_type":"screen-check","trial_index":15,"time_elapsed":104119,"internal_node_id":"0.0-3.0-0.0-0.4","experiment":"validation","task_version":"2.0","jspsych_version":"6.3.1"},{"rt":null,"stimulus":"<div style=\"font-size:24px;\">Loading puzzle:<br>5 / 9</div>","response":null,"trial_type":"html-keyboard-response","trial_index":16,"time_elapsed":105320,"internal_node_id":"0.0-3.0-0.0-1.4","experiment":"validation","task_version":"2.0","jspsych_version":"6.3.1"},{"stimulus":"../static/img/rpm/a43.png","choice_order":[0,5,3,2,1,7,6,4],"correct":4,"choice":4,"accuracy":1,"rt":24360.699999928474,"screen_resolution":[1920,1080],"minimum_resolution":1,"all_loaded":true,"test_form":"a","trial_type":"rpm","trial_index":17,"time_elapsed":129685,"internal_node_id":"0.0-3.0-0.0-2.4","experiment":"validation","task_version":"2.0","jspsych_version":"6.3.1"},{"min_width":700,"min_height":600,"inner_width":1920,"inner_height":1080,"trial_type":"screen-check","trial_index":18,"time_elapsed":129687,"internal_node_id":"0.0-3.0-0.0-0.5","experiment":"validation","task_version":"2.0","jspsych_version":"6.3.1"},{"rt":null,"stimulus":"<div style=\"font-size:24px;\">Loading puzzle:<br>6 / 9</div>","response":null,"trial_type":"html-keyboard-response","trial_index":19,"time_elapsed":130888,"internal_node_id":"0.0-3.0-0.0-1.5","experiment":"validation","task_version":"2.0","jspsych_version":"6.3.1"},{"stimulus":"../static/img/rpm/a48.png","choice_order":[6,4,3,2,5,7,0,1],"correct":5,"choice":2,"accuracy":0,"rt":29942.900000095367,"screen_resolution":[1920,1080],"minimum_resolution":1,"all_loaded":true,"test_form":"a","trial_type":"rpm","trial_index":20,"time_elapsed":160835,"internal_node_id":"0.0-3.0-0.0-2.5","experiment":"validation","task_version":"2.0","jspsych_version":"6.3.1"},{"min_width":700,"min_height":600,"inner_width":1920,"inner_height":1080,"trial_type":"screen-check","trial_index":21,"time_elapsed":160837,"internal_node_id":"0.0-3.0-0.0-0.6","experiment":"validation","task_version":"2.0","jspsych_version":"6.3.1"},{"rt":null,"stimulus":"<div style=\"font-size:24px;\">Loading puzzle:<br>7 / 9</div>","response":null,"trial_type":"html-keyboard-response","trial_index":22,"time_elapsed":162038,"internal_node_id":"0.0-3.0-0.0-1.6","experiment":"validation","task_version":"2.0","jspsych_version":"6.3.1"},{"stimulus":"../static/img/rpm/a49.png","choice_order":[2,1,7,4,3,0,5,6],"correct":6,"choice":6,"accuracy":1,"rt":24801.900000095367,"screen_resolution":[1920,1080],"minimum_resolution":1,"all_loaded":true,"test_form":"a","trial_type":"rpm","trial_index":23,"time_elapsed":186843,"internal_node_id":"0.0-3.0-0.0-2.6","experiment":"validation","task_version":"2.0","jspsych_version":"6.3.1"},{"min_width":700,"min_height":600,"inner_width":1920,"inner_height":1080,"trial_type":"screen-check","trial_index":24,"time_elapsed":186845,"internal_node_id":"0.0-3.0-0.0-0.7","experiment":"validation","task_version":"2.0","jspsych_version":"6.3.1"},{"rt":null,"stimulus":"<div style=\"font-size:24px;\">Loading puzzle:<br>8 / 9</div>","response":null,"trial_type":"html-keyboard-response","trial_index":25,"time_elapsed":188046,"internal_node_id":"0.0-3.0-0.0-1.7","experiment":"validation","task_version":"2.0","jspsych_version":"6.3.1"},{"stimulus":"../static/img/rpm/a53.png","choice_order":[7,1,0,6,2,5,4,3],"correct":0,"choice":0,"accuracy":1,"rt":28913.899999976158,"screen_resolution":[1920,1080],"minimum_resolution":1,"all_loaded":true,"test_form":"a","trial_type":"rpm","trial_index":26,"time_elapsed":216963,"internal_node_id":"0.0-3.0-0.0-2.7","experiment":"validation","task_version":"2.0","jspsych_version":"6.3.1"},{"min_width":700,"min_height":600,"inner_width":1920,"inner_height":1080,"trial_type":"screen-check","trial_index":27,"time_elapsed":216965,"internal_node_id":"0.0-3.0-0.0-0.8","experiment":"validation","task_version":"2.0","jspsych_version":"6.3.1"},{"rt":null,"stimulus":"<div style=\"font-size:24px;\">Loading puzzle:<br>9 / 9</div>","response":null,"trial_type":"html-keyboard-response","trial_index":28,"time_elapsed":218165,"internal_node_id":"0.0-3.0-0.0-1.8","experiment":"validation","task_version":"2.0","jspsych_version":"6.3.1"},{"stimulus":"../static/img/rpm/a55.png","choice_order":[2,5,6,7,0,3,4,1],"correct":1,"choice":3,"accuracy":0,"rt":29926.799999952316,"screen_resolution":[1920,1080],"minimum_resolution":1,"all_loaded":true,"test_form":"a","trial_type":"rpm","trial_index":29,"time_elapsed":248094,"internal_node_id":"0.0-3.0-0.0-2.8","experiment":"validation","task_version":"2.0","jspsych_version":"6.3.1"},{"value":{"rpm_raw":6,"rpm_err":3,"rpm_adj":49.16970644781863,"rpm_rt":192374.09999990463},"trial_type":"call-function","trial_index":30,"time_elapsed":248097,"internal_node_id":"0.0-3.0-1.0","experiment":"validation","task_version":"2.0","jspsych_version":"6.3.1"},{"view_history":[{"page_index":0,"viewing_time":1680.3999999761581}],"rt":1680.6000000238419,"trial_type":"instructions","trial_index":31,"time_elapsed":249778,"internal_node_id":"0.0-4.0","experiment":"validation","task_version":"2.0","jspsych_version":"6.3.1","interactions":"[{\"event\":\"fullscreenenter\",\"trial\":1,\"time\":5302}]"}]