[{"view_history":[{"page_index":0,"viewing_time":3804.7000000476837}],"rt":3804.9000000953674,"trial_type":"instructions","trial_index":0,"time_elapsed":3820,"internal_node_id":"0.0-0.0","experiment":"validation","task_version":"1.1","jspsych_version":"6.3.1"},{"rt":23958.699999809265,"responses":{"age":"30","gender-categorical":"Male","gender-free-response":"","ethnicity":"Not Hispanic or Latino","race":["Black or African American"],"education":"Associate degree"},"survey":"demographics","trial_type":"survey-demo","trial_index":1,"time_elapsed":27781,"internal_node_id":"0.0-1.0","experiment":"validation","task_version":"1.1","jspsych_version":"6.3.1"},{"responses":{"Q02":"1","Q07":"2","Q03":"3","Q01":"1","Q04":"1","Q05":"1","Q06":"3"},"rt":46117.89999985695,"item_order":[1,6,2,0,3,4,5],"radio_events":[15309,15940.899999856949,21237,23805,30396.89999985695,34676.89999985695,40501],"key_events":[],"mouse_events":[12373,15309,15940.899999856949,21237,23805,29981,30396.89999985695,34252.699999809265,34676.89999985695,40501,46116.89999985695],"straightlining":0.5714285714285714,"zigzagging":0.3333333333333333,"honeypot":0,"survey":"nfc6","trial_type":"survey-template","trial_index":2,"time_elapsed":73901,"internal_node_id":"0.0-2.0","experiment":"validation","task_version":"1.1","jspsych_version":"6.3.1","infrequency":0},{"responses":{"Q08":"1","Q03":"2","Q01":"2","Q05":"2","Q06":"2","Q11":"4","Q04":"0","Q07":"3","Q10":"1","Q09":"4","Q02":"0"},"rt":43757.799999952316,"item_order":[7,2,0,4,5,10,3,6,9,8,1],"radio_events":[6044.799999952316,9524.899999856949,11284.799999952316,16436.799999952316,18804.699999809265,21628.89999985695,24612.5,27772.799999952316,32148.599999904633,38700.699999809265,41860.699999809265],"key_events":[],"mouse_events":[6044.799999952316,9524.899999856949,11284.799999952316,16436.799999952316,18804.699999809265,21628.89999985695,24612.5,27772.799999952316,32148.599999904633,38700.699999809265,41860.699999809265,43756.799999952316],"straightlining":0.36363636363636365,"zigzagging":0.3,"honeypot":0,"survey":"neuroticism","trial_type":"survey-template","trial_index":3,"time_elapsed":117662,"internal_node_id":"0.0-3.0","experiment":"validation","task_version":"1.1","jspsych_version":"6.3.1","infrequency":0},{"responses":{"Q06":"2","Q03":"2","Q01":"3","Q07":"3","Q09":"3","Q08":"2","Q05":"2","Q11":"0","Q02":"2","Q10":"4","Q04":"2"},"rt":58605.5,"item_order":[5,2,0,6,8,7,4,10,1,9,3],"radio_events":[12900.599999904633,15172.599999904633,21444.400000095367,29348.599999904633,34700.59999990463,37948.5,39948.40000009537,44516.40000009537,48188.299999952316,53964.40000009537,57420.299999952316],"key_events":[],"mouse_events":[11444.5,12900.599999904633,15172.599999904633,21444.400000095367,24548.599999904633,29348.599999904633,34700.59999990463,37948.5,39948.40000009537,44516.40000009537,48188.299999952316,53964.40000009537,57420.299999952316,58604.40000009537],"straightlining":0.5454545454545454,"zigzagging":0.2,"honeypot":0,"survey":"openness","trial_type":"survey-template","trial_index":4,"time_elapsed":176269,"internal_node_id":"0.0-4.0","experiment":"validation","task_version":"1.1","jspsych_version":"6.3.1","infrequency":0},{"value":[0,1.4805194805194803,0.8333333333333333],"trial_type":"call-function","trial_index":5,"time_elapsed":176270,"internal_node_id":"0.0-5.0","experiment":"validation","task_version":"1.1","jspsych_version":"6.3.1","interactions":"[]"}]