[{"view_history":[{"page_index":0,"viewing_time":1587.7000000476837}],"rt":1588.1000000238419,"trial_type":"instructions","trial_index":0,"time_elapsed":1608,"internal_node_id":"0.0-0.0","experiment":"validation","task_version":"1.1","jspsych_version":"6.3.1"},{"rt":10615.800000011921,"responses":{"age":"29","gender-categorical":"Female","gender-free-response":"","ethnicity":"Not Hispanic or Latino","race":["White"],"education":"Master degree or higher"},"survey":"demographics","trial_type":"survey-demo","trial_index":1,"time_elapsed":12228,"internal_node_id":"0.0-1.0","experiment":"validation","task_version":"1.1","jspsych_version":"6.3.1"},{"responses":{"Q05":"3","Q07":"3","Q08":"2","Q10":"2","Q09":"3","Q04":"2","Q01":"3","Q06":"2","Q03":"2","Q02":"2","Q11":"4"},"rt":22542.30000001192,"item_order":[4,6,7,9,8,3,0,5,2,1,10],"radio_events":[4396.200000047684,6130.800000011921,7384.600000023842,8439.200000047684,9945.800000011921,11273.100000023842,13093.100000023842,15511.900000035763,16522.100000023842,21094,22051.5],"key_events":[],"mouse_events":[4396.200000047684,6130.800000011921,7384.600000023842,8439.200000047684,9945.800000011921,11273.100000023842,13093.100000023842,15511.900000035763,16522.100000023842,21094,22051.5,22540.200000047684],"straightlining":0.5454545454545454,"zigzagging":0.5,"honeypot":0,"survey":"neuroticism","trial_type":"survey-template","trial_index":2,"time_elapsed":34776,"internal_node_id":"0.0-2.0","experiment":"validation","task_version":"1.1","jspsych_version":"6.3.1","infrequency":0},{"responses":{"Q03":"2","Q09":"3","Q08":"3","Q06":"3","Q10":"2","Q02":"2","Q01":"3","Q05":"1","Q04":"1","Q07":"3","Q11":"0"},"rt":20777.19999998808,"item_order":[2,8,7,5,9,1,0,4,3,6,10],"radio_events":[4141.199999988079,5696.699999988079,7667.5,9340.899999976158,10880.399999976158,12708,14214.399999976158,15526,17121.69999998808,18111.399999976158,19837.799999952316],"key_events":[],"mouse_events":[4141.199999988079,5696.699999988079,7667.5,9340.899999976158,10880.399999976158,12708,14214.399999976158,15526,17121.69999998808,18111.399999976158,19837.799999952316,20775],"straightlining":0.36363636363636365,"zigzagging":0.4,"honeypot":0,"survey":"openness","trial_type":"survey-template","trial_index":3,"time_elapsed":55559,"internal_node_id":"0.0-3.0","experiment":"validation","task_version":"1.1","jspsych_version":"6.3.1","infrequency":0},{"responses":{"Q04":"3","Q01":"3","Q02":"3","Q05":"3","Q03":"3","Q07":"2","Q06":"3"},"rt":31925,"item_order":[3,0,1,4,2,6,5],"radio_events":[10703.100000023842,12420.900000035763,17400,20408.900000035763,21353.400000035763,23543.80000001192,31117.200000047684],"key_events":[],"mouse_events":[10703.100000023842,12420.900000035763,15246.5,17400,18858,20408.900000035763,21353.400000035763,23543.80000001192,26960,31117.200000047684,31923.600000023842],"straightlining":0.5714285714285714,"zigzagging":0.3333333333333333,"honeypot":0,"survey":"nfc6","trial_type":"survey-template","trial_index":4,"time_elapsed":87487,"internal_node_id":"0.0-4.0","experiment":"validation","task_version":"1.1","jspsych_version":"6.3.1","infrequency":0},{"value":[0,1.4805194805194803,1.2333333333333334],"trial_type":"call-function","trial_index":5,"time_elapsed":87491,"internal_node_id":"0.0-5.0","experiment":"validation","task_version":"1.1","jspsych_version":"6.3.1","interactions":"[]"}]