[{"view_history":[{"page_index":0,"viewing_time":3475.399999856949}],"rt":3475.5999999046326,"trial_type":"instructions","trial_index":0,"time_elapsed":3492,"internal_node_id":"0.0-0.0","experiment":"validation","task_version":"2.0","jspsych_version":"6.3.1"},{"rt":29142.699999809265,"responses":{"age":"44","gender-categorical":"Male","gender-free-response":"","ethnicity":"Not Hispanic or Latino","race":["White"],"education":"Some college"},"survey":"demographics","trial_type":"survey-demo","trial_index":1,"time_elapsed":32638,"internal_node_id":"0.0-1.0","experiment":"validation","task_version":"2.0","jspsych_version":"6.3.1"},{"responses":{"Q04":"1","Q08":"3","Q03":"3","Q01":"1","Q06":"0","Q09":"1","Q05":"3","Q10":"1","Q02":"1","Q11":"0","Q07":"1"},"rt":39089.60000014305,"item_order":[3,7,2,0,5,8,4,9,1,10,6],"radio_events":[8528.600000143051,13672.200000047684,16208.100000143051,18224.200000047684,21656.10000014305,22176.10000014305,23744.400000095367,27400.5,30400.5,32824.299999952316,35432.200000047684,38144.200000047684],"key_events":[],"mouse_events":[8528.600000143051,10912.100000143051,12496,13264.100000143051,13672.200000047684,15552.400000095367,16208.100000143051,17784.299999952316,18224.200000047684,21656.10000014305,22176.10000014305,23744.400000095367,27400.5,29856.400000095367,30400.5,32376.400000095367,32824.299999952316,35432.200000047684,38144.200000047684,39088.40000009537],"straightlining":0.6363636363636364,"zigzagging":0.4,"honeypot":0,"survey":"nfc10","trial_type":"survey-template","trial_index":2,"time_elapsed":71734,"internal_node_id":"0.0-2.0","experiment":"validation","task_version":"2.0","jspsych_version":"6.3.1","infrequency":0},{"responses":{"Q08":"4","Q01":"4","Q03":"4","Q05":"4","Q07":"4","Q02":"4","Q06":"4","Q09":"4","Q04":"4"},"rt":21834.400000095367,"item_order":[7,0,2,4,6,1,5,8,3],"radio_events":[7633.799999952316,8417.700000047684,9073.700000047684,9890,10489.799999952316,13353.799999952316,13713.799999952316,16289.799999952316,18945.799999952316],"key_events":[],"mouse_events":[289.60000014305115,4506.299999952316,5857.700000047684,6450.700000047684,7153.700000047684,7633.799999952316,8417.700000047684,9073.700000047684,9890,10489.799999952316,12465.799999952316,13353.799999952316,13713.799999952316,15881.600000143051,16289.799999952316,18377.799999952316,18945.799999952316,21833.60000014305],"straightlining":0.8888888888888888,"zigzagging":0.25,"honeypot":0,"survey":"pcf","trial_type":"survey-template","trial_index":3,"time_elapsed":93573,"internal_node_id":"0.0-3.0","experiment":"validation","task_version":"2.0","jspsych_version":"6.3.1","infrequency":0},{"rt":31322.299999952316,"response":{"Q7":5,"Q5":5,"Q6":2,"Q4":5,"Q3":4,"Q0":4,"Q8":0,"Q2":4,"Q1":4},"question_order":[7,5,6,4,3,0,8,2,1],"survey":"sns","trial_type":"survey-likert","trial_index":4,"time_elapsed":124900,"internal_node_id":"0.0-4.0","experiment":"validation","task_version":"2.0","jspsych_version":"6.3.1","infrequency":0},{"value":0,"trial_type":"call-function","trial_index":5,"time_elapsed":124905,"internal_node_id":"0.0-5.0","experiment":"validation","task_version":"2.0","jspsych_version":"6.3.1","interactions":"[{\"event\":\"blur\",\"trial\":1,\"time\":9230},{\"event\":\"focus\",\"trial\":1,\"time\":26892},{\"event\":\"blur\",\"trial\":2,\"time\":44054},{\"event\":\"focus\",\"trial\":2,\"time\":45041}]"}]