[{"view_history":[{"page_index":0,"viewing_time":4264.899999856949}],"rt":4266.399999856949,"trial_type":"instructions","trial_index":0,"time_elapsed":4325,"internal_node_id":"0.0-0.0","experiment":"validation","task_version":"1.1","jspsych_version":"6.3.1"},{"rt":18452.200000047684,"responses":{"age":"20","gender-categorical":"Male","gender-free-response":"","ethnicity":"Not Hispanic or Latino","race":["Black or African American"],"education":"High school"},"survey":"demographics","trial_type":"survey-demo","trial_index":1,"time_elapsed":22783,"internal_node_id":"0.0-1.0","experiment":"validation","task_version":"1.1","jspsych_version":"6.3.1"},{"responses":{"Q05":"1","Q04":"3","Q07":"2","Q06":"3","Q02":"2","Q01":"2","Q03":"1"},"rt":23523.099999904633,"item_order":[4,3,6,5,1,0,2],"radio_events":[6820.799999952316,8026.899999856949,10999.599999904633,12634,15475.599999904633,17430.89999985695,20624],"key_events":[],"mouse_events":[6820.799999952316,8026.899999856949,9098.5,10999.599999904633,12634,14821.399999856949,15475.599999904633,17430.89999985695,20624,23520.099999904633],"straightlining":0.42857142857142855,"zigzagging":0.6666666666666666,"honeypot":0,"survey":"nfc6","trial_type":"survey-template","trial_index":2,"time_elapsed":46315,"internal_node_id":"0.0-2.0","experiment":"validation","task_version":"1.1","jspsych_version":"6.3.1","infrequency":0},{"responses":{"Q08":"2","Q03":"3","Q09":"1","Q01":"3","Q02":"2","Q05":"2","Q10":"2","Q06":"2","Q07":"3","Q04":"3","Q11":"4"},"rt":25239.700000047684,"item_order":[7,2,8,0,1,4,9,5,6,3,10],"radio_events":[2399,3680.2000000476837,5072,6700.5,7790.200000047684,8845.600000143051,9975.300000190735,11107.700000047684,16087.300000190735,18806.300000190735,20441.60000014305],"key_events":[],"mouse_events":[2399,3680.2000000476837,5072,6700.5,7790.200000047684,8845.600000143051,9975.300000190735,11107.700000047684,12160.100000143051,16087.300000190735,18806.300000190735,20441.60000014305,25236.10000014305],"straightlining":0.45454545454545453,"zigzagging":0.4,"honeypot":0,"survey":"neuroticism","trial_type":"survey-template","trial_index":3,"time_elapsed":71563,"internal_node_id":"0.0-3.0","experiment":"validation","task_version":"1.1","jspsych_version":"6.3.1","infrequency":0},{"responses":{"Q03":"2","Q05":"2","Q04":"1","Q09":"4","Q02":"3","Q11":"0","Q01":"2","Q08":"3","Q07":"4","Q06":"4","Q10":"4"},"rt":43767.300000190735,"item_order":[2,4,3,8,1,10,0,7,6,5,9],"radio_events":[4019.100000143051,5303.600000143051,7452.200000047684,10813.300000190735,12539.900000095367,17465.200000047684,23304.60000014305,30181.10000014305,37965.90000009537,38919.60000014305,41181.90000009537],"key_events":[],"mouse_events":[4019.100000143051,5303.600000143051,7452.200000047684,10813.300000190735,12539.900000095367,13563,17465.200000047684,23304.60000014305,30181.10000014305,37965.90000009537,38919.60000014305,41181.90000009537,43764.10000014305],"straightlining":0.45454545454545453,"zigzagging":0.3,"honeypot":0,"survey":"openness","trial_type":"survey-template","trial_index":4,"time_elapsed":115337,"internal_node_id":"0.0-4.0","experiment":"validation","task_version":"1.1","jspsych_version":"6.3.1","infrequency":0},{"value":[0,1.3376623376623376,1.3666666666666667],"trial_type":"call-function","trial_index":5,"time_elapsed":115341,"internal_node_id":"0.0-5.0","experiment":"validation","task_version":"1.1","jspsych_version":"6.3.1","interactions":"[]"}]