[{"view_history":[{"page_index":0,"viewing_time":3182.699999988079}],"rt":3183.800000011921,"trial_type":"instructions","trial_index":0,"time_elapsed":3205,"internal_node_id":"0.0-0.0","experiment":"validation","task_version":"1.1","jspsych_version":"6.3.1"},{"rt":13869.600000023842,"responses":{"age":"59","gender-categorical":"Female","gender-free-response":"","ethnicity":"Not Hispanic or Latino","race":["White"],"education":"Bachelor degree"},"survey":"demographics","trial_type":"survey-demo","trial_index":1,"time_elapsed":17084,"internal_node_id":"0.0-1.0","experiment":"validation","task_version":"1.1","jspsych_version":"6.3.1"},{"responses":{"Q07":"4","Q05":"0","Q01":"4","Q09":"4","Q11":"0","Q10":"1","Q08":"1","Q03":"1","Q02":"4","Q06":"1","Q04":"3"},"rt":50330.80000001192,"item_order":[6,4,0,8,10,9,7,2,1,5,3],"radio_events":[11006.800000011921,14948.300000011921,16902.40000000596,19464.69999998808,22078.90000000596,28317.90000000596,32966.5,37689.19999998808,40182.80000001192,46279.80000001192,48964.30000001192],"key_events":[],"mouse_events":[11006.800000011921,14948.300000011921,16902.40000000596,19464.69999998808,22078.90000000596,28317.90000000596,32966.5,37689.19999998808,40182.80000001192,46279.80000001192,48964.30000001192,50327.90000000596],"straightlining":0.2727272727272727,"zigzagging":0.3,"honeypot":0,"survey":"openness","trial_type":"survey-template","trial_index":2,"time_elapsed":67438,"internal_node_id":"0.0-2.0","experiment":"validation","task_version":"1.1","jspsych_version":"6.3.1","infrequency":0},{"responses":{"Q04":"1","Q07":"2","Q02":"1","Q03":"2","Q05":"3","Q06":"2","Q01":"1"},"rt":61665.09999999404,"item_order":[3,6,1,2,4,5,0],"radio_events":[30836.5,32933.59999999404,38327.5,42623.29999998212,48726.59999999404,55942.79999998212,60003.69999998808],"key_events":[],"mouse_events":[30836.5,32933.59999999404,38327.5,42623.29999998212,48726.59999999404,55942.79999998212,60003.69999998808,61663.5],"straightlining":0.42857142857142855,"zigzagging":1,"honeypot":0,"survey":"nfc6","trial_type":"survey-template","trial_index":3,"time_elapsed":129111,"internal_node_id":"0.0-3.0","experiment":"validation","task_version":"1.1","jspsych_version":"6.3.1","infrequency":0},{"responses":{"Q05":"3","Q04":"3","Q02":"3","Q10":"3","Q11":"4","Q08":"2","Q03":"3","Q09":"4","Q07":"2","Q06":"4","Q01":"2"},"rt":42993,"item_order":[4,3,1,9,10,7,2,8,6,5,0],"radio_events":[6452.200000017881,7988.800000011921,10594.600000023842,13017.5,15377.5,19530.80000001192,24240.30000001192,27619.90000000596,33810.70000001788,37046.80000001192,41423.60000002384],"key_events":[],"mouse_events":[6452.200000017881,7988.800000011921,10594.600000023842,13017.5,15377.5,19530.80000001192,24240.30000001192,27619.90000000596,33810.70000001788,37046.80000001192,41423.60000002384,42990.5],"straightlining":0.36363636363636365,"zigzagging":0.1,"honeypot":0,"survey":"neuroticism","trial_type":"survey-template","trial_index":4,"time_elapsed":172113,"internal_node_id":"0.0-4.0","experiment":"validation","task_version":"1.1","jspsych_version":"6.3.1","infrequency":0},{"value":[0,1.064935064935065,1.4000000000000001],"trial_type":"call-function","trial_index":5,"time_elapsed":172116,"internal_node_id":"0.0-5.0","experiment":"validation","task_version":"1.1","jspsych_version":"6.3.1","interactions":"[]"}]