[{"view_history":[{"page_index":0,"viewing_time":3510.2800000458956}],"rt":3510.74499997776,"trial_type":"instructions","trial_index":0,"time_elapsed":3546,"internal_node_id":"0.0-0.0","experiment":"validation","task_version":"1.1","jspsych_version":"6.3.1"},{"rt":13624.394999933429,"responses":{"age":"25","gender-categorical":"Female","gender-free-response":"","ethnicity":"Not Hispanic or Latino","race":["White"],"education":"Bachelor degree"},"survey":"demographics","trial_type":"survey-demo","trial_index":1,"time_elapsed":17180,"internal_node_id":"0.0-1.0","experiment":"validation","task_version":"1.1","jspsych_version":"6.3.1"},{"responses":{"Q06":"3","Q04":"0","Q01":"0","Q02":"0","Q09":"3","Q08":"1","Q11":"4","Q07":"0","Q05":"1","Q03":"0","Q10":"1"},"rt":39507.48000002932,"item_order":[5,3,0,1,8,7,10,6,4,2,9],"radio_events":[14767.450000043027,17647.400000016205,18732.8400000697,20181.790000060573,23352.20000008121,25646.13000000827,29148.80500000436,32655.455000000075,34644.985000020824,37199.640000006184,38556.87500000931],"key_events":[],"mouse_events":[14767.450000043027,17647.400000016205,18732.8400000697,20181.790000060573,23352.20000008121,25646.13000000827,26438.86500003282,29148.80500000436,32655.455000000075,34644.985000020824,37199.640000006184,38556.87500000931,39501.685000024736],"straightlining":0.36363636363636365,"zigzagging":0.4,"honeypot":0,"survey":"neuroticism","trial_type":"survey-template","trial_index":2,"time_elapsed":56694,"internal_node_id":"0.0-2.0","experiment":"validation","task_version":"1.1","jspsych_version":"6.3.1","infrequency":0},{"responses":{"Q01":"3","Q02":"3","Q04":"3","Q05":"3","Q06":"2","Q07":"2","Q03":"3"},"rt":37957.95499999076,"item_order":[0,1,3,4,5,6,2],"radio_events":[8282.510000048205,13710.880000027828,17538.105000043288,21460.734999971464,29108.230000012554,31598.909999942407,35636.949999956414],"key_events":[],"mouse_events":[8282.510000048205,13710.880000027828,17538.105000043288,21460.734999971464,29108.230000012554,31598.909999942407,35636.949999956414,36377.63000000268,37954.795000026934],"straightlining":0.42857142857142855,"zigzagging":0.3333333333333333,"honeypot":0,"survey":"nfc6","trial_type":"survey-template","trial_index":3,"time_elapsed":94657,"internal_node_id":"0.0-3.0","experiment":"validation","task_version":"1.1","jspsych_version":"6.3.1","infrequency":0},{"responses":{"Q03":"4","Q02":"3","Q10":"4","Q11":"0","Q07":"4","Q05":"1","Q04":"1","Q09":"4","Q08":"4","Q01":"4","Q06":"4"},"rt":36607.67499997746,"item_order":[2,1,9,10,6,4,3,8,7,0,5],"radio_events":[9477.190000005066,10854.470000020228,12411.484999931417,14525.384999928065,15910.31499998644,18364.444999955595,25569.629999925382,27538.784999982454,28876.210000016727,32322.82999996096,35514.24499996938],"key_events":[],"mouse_events":[8260.264999931678,9477.190000005066,10854.470000020228,12411.484999931417,14525.384999928065,15910.31499998644,18364.444999955595,19180.990000022575,25569.629999925382,27538.784999982454,28876.210000016727,32322.82999996096,35514.24499996938,36603.6450000247],"straightlining":0.5454545454545454,"zigzagging":0.3,"honeypot":0,"survey":"openness","trial_type":"survey-template","trial_index":4,"time_elapsed":131273,"internal_node_id":"0.0-4.0","experiment":"validation","task_version":"1.1","jspsych_version":"6.3.1","infrequency":0},{"value":[0,1.3376623376623376,1.0333333333333334],"trial_type":"call-function","trial_index":5,"time_elapsed":131278,"internal_node_id":"0.0-5.0","experiment":"validation","task_version":"1.1","jspsych_version":"6.3.1","interactions":"[]"}]