[{"view_history":[{"page_index":0,"viewing_time":1455.3999999985099}],"rt":1455.699999999255,"trial_type":"instructions","trial_index":0,"time_elapsed":1468,"internal_node_id":"0.0-0.0","experiment":"validation","task_version":"1.1","jspsych_version":"6.3.1"},{"rt":15589.39999999851,"responses":{"age":"23","gender-categorical":"Female","gender-free-response":"","ethnicity":"Not Hispanic or Latino","race":["White"],"education":"Master degree or higher"},"survey":"demographics","trial_type":"survey-demo","trial_index":1,"time_elapsed":17061,"internal_node_id":"0.0-1.0","experiment":"validation","task_version":"1.1","jspsych_version":"6.3.1"},{"responses":{"Q03":"3","Q04":"2","Q07":"2","Q05":"3","Q06":"1","Q02":"1","Q01":"1"},"rt":46185.599999997765,"item_order":[2,3,6,4,5,1,0],"radio_events":[6122.099999997765,19899.5,21843.300000000745,25739,32391.5,40510.099999997765,45482.199999999255],"key_events":[],"mouse_events":[6122.099999997765,19899.5,21843.300000000745,25739,32391.5,40510.099999997765,45482.199999999255,46183.300000000745],"straightlining":0.5714285714285714,"zigzagging":0.3333333333333333,"honeypot":0,"survey":"nfc6","trial_type":"survey-template","trial_index":2,"time_elapsed":63251,"internal_node_id":"0.0-2.0","experiment":"validation","task_version":"1.1","jspsych_version":"6.3.1","infrequency":0},{"responses":{"Q09":"4","Q06":"3","Q05":"0","Q10":"4","Q11":"0","Q08":"1","Q03":"4","Q02":"2","Q07":"4","Q01":"3","Q04":"2"},"rt":51595.800000000745,"item_order":[8,5,4,9,10,7,2,1,6,0,3],"radio_events":[3491.699999999255,6304.400000002235,11904.60000000149,14088.10000000149,21799.400000002235,23464.400000002235,25934.60000000149,30467.400000002235,44057.300000000745,47435,50964.199999999255],"key_events":[],"mouse_events":[3491.699999999255,6304.400000002235,11904.60000000149,14088.10000000149,20493.300000000745,21799.400000002235,23464.400000002235,25934.60000000149,30467.400000002235,44057.300000000745,47435,50318.900000002235,50964.199999999255,51593.199999999255],"straightlining":0.36363636363636365,"zigzagging":0.4,"honeypot":0,"survey":"openness","trial_type":"survey-template","trial_index":3,"time_elapsed":114850,"internal_node_id":"0.0-3.0","experiment":"validation","task_version":"1.1","jspsych_version":"6.3.1","infrequency":0},{"responses":{"Q08":"1","Q07":"2","Q03":"1","Q11":"4","Q04":"1","Q02":"2","Q05":"2","Q09":"3","Q06":"3","Q10":"1","Q01":"2"},"rt":25149.300000000745,"item_order":[7,6,2,10,3,1,4,8,5,9,0],"radio_events":[2687.699999999255,4759.199999999255,7061.900000002235,10129.10000000149,12973.699999999255,15737.900000002235,17729.699999999255,19721.300000000745,21410.5,22852.400000002235,24309.800000000745],"key_events":[],"mouse_events":[2687.699999999255,4759.199999999255,7061.900000002235,9268.900000002235,10129.10000000149,12973.699999999255,15737.900000002235,17729.699999999255,19721.300000000745,21410.5,22852.400000002235,24309.800000000745,25146.800000000745],"straightlining":0.36363636363636365,"zigzagging":0.5,"honeypot":0,"survey":"neuroticism","trial_type":"survey-template","trial_index":4,"time_elapsed":140002,"internal_node_id":"0.0-4.0","experiment":"validation","task_version":"1.1","jspsych_version":"6.3.1","infrequency":0},{"value":[0,1.2987012987012987,1.2333333333333334],"trial_type":"call-function","trial_index":5,"time_elapsed":140004,"internal_node_id":"0.0-5.0","experiment":"validation","task_version":"1.1","jspsych_version":"6.3.1","interactions":"[]"}]