[{"view_history":[{"page_index":0,"viewing_time":3282.099998474121}],"rt":3285.199998855591,"trial_type":"instructions","trial_index":0,"time_elapsed":3318,"internal_node_id":"0.0-0.0","experiment":"validation","task_version":"1.1","jspsych_version":"6.3.1"},{"rt":15326.5,"responses":{"age":"41","gender-categorical":"Female","gender-free-response":"","ethnicity":"Not Hispanic or Latino","race":["White"],"education":"Master degree or higher"},"survey":"demographics","trial_type":"survey-demo","trial_index":1,"time_elapsed":18655,"internal_node_id":"0.0-1.0","experiment":"validation","task_version":"1.1","jspsych_version":"6.3.1"},{"responses":{"Q03":"4","Q06":"3","Q08":"3","Q09":"4","Q02":"4","Q07":"4","Q10":"4","Q11":"0","Q04":"1","Q01":"4","Q05":"0"},"rt":41572.20000076294,"item_order":[2,5,7,8,1,6,9,10,3,0,4],"radio_events":[13063.20000076294,16173.5,19221.70000076294,21661.5,27093.39999961853,29021.30000114441,33469.39999961853,36013.5,38325.20000076294,40372.89999961853,40404.60000038147,41092.80000114441],"key_events":[],"mouse_events":[13063.20000076294,16173.5,19221.70000076294,21661.5,27093.39999961853,29021.30000114441,33469.39999961853,36013.5,38325.20000076294,40372.89999961853,40404.60000038147,41092.80000114441,41565.30000114441],"straightlining":0.36363636363636365,"zigzagging":0.4,"honeypot":0,"survey":"openness","trial_type":"survey-template","trial_index":2,"time_elapsed":60246,"internal_node_id":"0.0-2.0","experiment":"validation","task_version":"1.1","jspsych_version":"6.3.1","infrequency":0},{"responses":{"Q10":"1","Q07":"0","Q11":"4","Q01":"0","Q03":"0","Q02":"0","Q06":"1","Q04":"0","Q08":"0","Q05":"0","Q09":"3"},"rt":45008.20000076294,"item_order":[9,6,10,0,2,1,5,3,7,4,8],"radio_events":[11027,13051,15282.80000114441,18906.5,20866.5,21770.80000114441,31962.30000114441,33842.39999961853,36394,38586.30000114441,43818],"key_events":[],"mouse_events":[11027,13051,15282.80000114441,18906.5,20866.5,21770.80000114441,31962.30000114441,33842.39999961853,36394,38586.30000114441,43818,45002.60000038147],"straightlining":0.45454545454545453,"zigzagging":0.5,"honeypot":0,"survey":"neuroticism","trial_type":"survey-template","trial_index":3,"time_elapsed":105267,"internal_node_id":"0.0-3.0","experiment":"validation","task_version":"1.1","jspsych_version":"6.3.1","infrequency":0},{"responses":{"Q01":"3","Q04":"3","Q06":"3","Q02":"3","Q03":"4","Q05":"3","Q07":"2"},"rt":59616.80000114441,"item_order":[0,3,5,1,2,4,6],"radio_events":[10125.70000076294,19813.30000114441,23597.20000076294,49284.80000114441,54572.60000038147,57948.60000038147,58812.39999961853],"key_events":[],"mouse_events":[10125.70000076294,19813.30000114441,23597.20000076294,49284.80000114441,54572.60000038147,57948.60000038147,58812.39999961853,59612.80000114441],"straightlining":0.5714285714285714,"zigzagging":0.16666666666666666,"honeypot":0,"survey":"nfc6","trial_type":"survey-template","trial_index":4,"time_elapsed":164896,"internal_node_id":"0.0-4.0","experiment":"validation","task_version":"1.1","jspsych_version":"6.3.1","infrequency":0},{"value":[0,1.3896103896103895,1.0666666666666667],"trial_type":"call-function","trial_index":5,"time_elapsed":164904,"internal_node_id":"0.0-5.0","experiment":"validation","task_version":"1.1","jspsych_version":"6.3.1","interactions":"[]"}]