[{"view_history":[{"page_index":0,"viewing_time":3401.2000000029802}],"rt":3402,"trial_type":"instructions","trial_index":0,"time_elapsed":3415,"internal_node_id":"0.0-0.0","experiment":"validation","task_version":"1.1","jspsych_version":"6.3.1"},{"rt":13196.90000000596,"responses":{"age":"54","gender-categorical":"Female","gender-free-response":"","ethnicity":"Not Hispanic or Latino","race":["White"],"education":"High school"},"survey":"demographics","trial_type":"survey-demo","trial_index":1,"time_elapsed":16618,"internal_node_id":"0.0-1.0","experiment":"validation","task_version":"1.1","jspsych_version":"6.3.1"},{"responses":{"Q07":"3","Q01":"3","Q05":"1","Q10":"1","Q02":"1","Q08":"1","Q09":"3","Q04":"1","Q06":"1","Q11":"4","Q03":"2"},"rt":36193,"item_order":[6,0,4,9,1,7,8,3,5,10,2],"radio_events":[5501,9837,11652,12788.29999999702,17604.39999999106,18660.79999999702,21580.39999999106,23028.09999999404,27588.19999998808,28268,32228.59999999404,35364.19999998808],"key_events":[],"mouse_events":[5501,9837,11652,12788.29999999702,13844.59999999404,15780.09999999404,17604.39999999106,18660.79999999702,21580.39999999106,23028.09999999404,25748.5,27588.19999998808,28268,31300.29999999702,32228.59999999404,32820.39999999106,35364.19999998808,36188.39999999106],"straightlining":0.45454545454545453,"zigzagging":0.1,"honeypot":0,"survey":"neuroticism","trial_type":"survey-template","trial_index":2,"time_elapsed":52820,"internal_node_id":"0.0-2.0","experiment":"validation","task_version":"1.1","jspsych_version":"6.3.1","infrequency":0},{"responses":{"Q07":"3","Q05":"1","Q02":"1","Q06":"1","Q01":"3","Q09":"1","Q03":"0","Q10":"0","Q11":"0","Q04":"2","Q08":"2"},"rt":25984.69999998808,"item_order":[6,4,1,5,0,8,2,9,10,3,7],"radio_events":[3212.2999999970198,4692.199999988079,5964.699999988079,9596.5,10652.89999999106,12348.39999999106,15092.79999999702,16188.39999999106,18700.29999999702,22412.5,25228.19999998808],"key_events":[],"mouse_events":[3212.2999999970198,4692.199999988079,5964.699999988079,8172.199999988079,9092.29999999702,9596.5,10652.89999999106,11932.5,12348.39999999106,15092.79999999702,16188.39999999106,18700.29999999702,22412.5,25228.19999998808,25980.39999999106],"straightlining":0.36363636363636365,"zigzagging":0.2,"honeypot":0,"survey":"openness","trial_type":"survey-template","trial_index":3,"time_elapsed":78812,"internal_node_id":"0.0-3.0","experiment":"validation","task_version":"1.1","jspsych_version":"6.3.1","infrequency":0},{"responses":{"Q03":"1","Q01":"0","Q07":"2","Q02":"0","Q06":"0","Q05":"1","Q04":"1"},"rt":29921,"item_order":[2,0,6,1,5,4,3],"radio_events":[4852.70000000298,5989.20000000298,8244.89999999106,15685.09999999404,18284.79999999702,22036.79999999702,29012.79999999702],"key_events":[],"mouse_events":[4852.70000000298,5989.20000000298,8244.89999999106,15685.09999999404,18284.79999999702,21381.5,22036.79999999702,29012.79999999702,29917.29999999702],"straightlining":0.42857142857142855,"zigzagging":0.16666666666666666,"honeypot":0,"survey":"nfc6","trial_type":"survey-template","trial_index":4,"time_elapsed":108740,"internal_node_id":"0.0-4.0","experiment":"validation","task_version":"1.1","jspsych_version":"6.3.1","infrequency":0},{"value":[0,1.2467532467532467,0.4666666666666667],"trial_type":"call-function","trial_index":5,"time_elapsed":108743,"internal_node_id":"0.0-5.0","experiment":"validation","task_version":"1.1","jspsych_version":"6.3.1","interactions":"[]"}]