[{"view_history":[{"page_index":0,"viewing_time":1803.5}],"rt":1804.0999999940395,"trial_type":"instructions","trial_index":0,"time_elapsed":1826,"internal_node_id":"0.0-0.0","experiment":"validation","task_version":"1.1","jspsych_version":"6.3.1"},{"rt":8817.199999988079,"responses":{"age":"22","gender-categorical":"Female","gender-free-response":"","ethnicity":"Not Hispanic or Latino","race":["White"],"education":"Bachelor degree"},"survey":"demographics","trial_type":"survey-demo","trial_index":1,"time_elapsed":10664,"internal_node_id":"0.0-1.0","experiment":"validation","task_version":"1.1","jspsych_version":"6.3.1"},{"responses":{"Q01":"3","Q02":"3","Q07":"2","Q04":"3","Q06":"1","Q03":"3","Q05":"3"},"rt":39810.30000001192,"item_order":[0,1,6,3,5,2,4],"radio_events":[5446.0999999940395,8303.09999999404,12271.300000011921,17665.40000000596,25696.90000000596,32526.80000001192,33954.09999999404,34731.30000001192,38734.80000001192],"key_events":[],"mouse_events":[4964.700000017881,5446.0999999940395,8303.09999999404,12271.300000011921,17665.40000000596,25696.90000000596,31597.5,32526.80000001192,33954.09999999404,34731.30000001192,38734.80000001192,39805.40000000596],"straightlining":0.42857142857142855,"zigzagging":0.3333333333333333,"honeypot":0,"survey":"nfc6","trial_type":"survey-template","trial_index":2,"time_elapsed":50484,"internal_node_id":"0.0-2.0","experiment":"validation","task_version":"1.1","jspsych_version":"6.3.1","infrequency":0},{"responses":{"Q07":"1","Q06":"0","Q11":"4","Q01":"1","Q02":"0","Q09":"0","Q04":"0","Q10":"0","Q08":"0","Q05":"1","Q03":"1"},"rt":35045.10000002384,"item_order":[6,5,10,0,1,8,3,9,7,4,2],"radio_events":[7989.600000023842,10166.300000011921,12959.90000000596,16318.5,19017,22162.30000001192,25762.40000000596,27626.40000000596,29053.20000001788,31470.40000000596,33770.70000001788],"key_events":[],"mouse_events":[7989.600000023842,10166.300000011921,12959.90000000596,15293.200000017881,16318.5,19017,21521.70000001788,22162.30000001192,25762.40000000596,27626.40000000596,29053.20000001788,31470.40000000596,33770.70000001788,35041.90000000596],"straightlining":0.45454545454545453,"zigzagging":0.5,"honeypot":0,"survey":"neuroticism","trial_type":"survey-template","trial_index":3,"time_elapsed":85539,"internal_node_id":"0.0-3.0","experiment":"validation","task_version":"1.1","jspsych_version":"6.3.1","infrequency":0},{"responses":{"Q06":"3","Q01":"3","Q11":"0","Q05":"0","Q02":"3","Q07":"4","Q09":"4","Q08":"3","Q04":"1","Q03":"0","Q10":"0"},"rt":29013.30000001192,"item_order":[5,0,10,4,1,6,8,7,3,2,9],"radio_events":[4417.699999988079,6021.300000011921,8041.300000011921,11111,12120.59999999404,13824.300000011921,15827.90000000596,17563.59999999404,19182.5,21137.80000001192,23995.40000000596,26035.69999998808,28040.09999999404],"key_events":[],"mouse_events":[4417.699999988079,6021.300000011921,8041.300000011921,11111,11704.40000000596,12120.59999999404,13824.300000011921,15827.90000000596,17563.59999999404,19182.5,21137.80000001192,23490.30000001192,23995.40000000596,26035.69999998808,28040.09999999404,29010.30000001192],"straightlining":0.36363636363636365,"zigzagging":0.4,"honeypot":0,"survey":"openness","trial_type":"survey-template","trial_index":4,"time_elapsed":114562,"internal_node_id":"0.0-4.0","experiment":"validation","task_version":"1.1","jspsych_version":"6.3.1","infrequency":0},{"value":[0,1.2467532467532467,1.2333333333333334],"trial_type":"call-function","trial_index":5,"time_elapsed":114568,"internal_node_id":"0.0-5.0","experiment":"validation","task_version":"1.1","jspsych_version":"6.3.1","interactions":"[]"}]