[{"view_history":[{"page_index":0,"viewing_time":5438.0999999940395}],"rt":5438.5,"trial_type":"instructions","trial_index":0,"time_elapsed":5495,"internal_node_id":"0.0-0.0","experiment":"validation","task_version":"2.0","jspsych_version":"6.3.1"},{"rt":48586.70000000298,"responses":{"age":"45","gender-categorical":"Male","gender-free-response":"","ethnicity":"Not Hispanic or Latino","race":["White"],"education":"Bachelor degree"},"survey":"demographics","trial_type":"survey-demo","trial_index":1,"time_elapsed":54084,"internal_node_id":"0.0-1.0","experiment":"validation","task_version":"2.0","jspsych_version":"6.3.1"},{"responses":{"Q01":"2","Q02":"2","Q03":"3","Q05":"2","Q04":"4","Q09":"4","Q06":"2","Q07":"4","Q08":"3"},"rt":53557.79999999702,"item_order":[0,1,2,4,3,8,5,6,7],"radio_events":[9340.79999999702,15141.79999999702,20966.59999999404,24695.89999999106,30375.59999999404,35128.5,41976.59999999404,45707.59999999404,51091.79999999702],"key_events":[],"mouse_events":[9340.79999999702,15141.79999999702,20966.59999999404,24695.89999999106,30375.59999999404,35128.5,41976.59999999404,45707.59999999404,50739.59999999404,51091.79999999702,53555.79999999702],"straightlining":0.4444444444444444,"zigzagging":0.5,"honeypot":0,"survey":"pcf","trial_type":"survey-template","trial_index":2,"time_elapsed":107646,"internal_node_id":"0.0-2.0","experiment":"validation","task_version":"2.0","jspsych_version":"6.3.1","infrequency":0},{"responses":{"Q08":"3","Q03":"3","Q02":"3","Q05":"4","Q06":"2","Q11":"0","Q10":"3","Q07":"3","Q09":"3","Q04":"3","Q01":"2"},"rt":121428.29999999702,"item_order":[7,2,1,4,5,10,9,6,8,3,0],"radio_events":[8395.59999999404,14589.39999999106,31967.5,33072.29999999702,45105.5,66603.69999998808,77100.79999999702,87733.59999999404,96318.79999999702,102255.69999998808,114890.09999999404,118849.59999999404],"key_events":[],"mouse_events":[6859.5999999940395,7995.5999999940395,8395.59999999404,14589.39999999106,31967.5,33072.29999999702,45105.5,66603.69999998808,77100.79999999702,87733.59999999404,96318.79999999702,102255.69999998808,114330,114890.09999999404,118849.59999999404,121425.69999998808],"straightlining":0.45454545454545453,"zigzagging":0.1,"honeypot":0,"survey":"nfc10","trial_type":"survey-template","trial_index":3,"time_elapsed":229078,"internal_node_id":"0.0-3.0","experiment":"validation","task_version":"2.0","jspsych_version":"6.3.1","infrequency":0},{"rt":60089.10000000894,"response":{"Q6":0,"Q4":4,"Q5":5,"Q2":4,"Q1":4,"Q0":3,"Q3":4,"Q8":0,"Q7":4},"question_order":[6,4,5,2,1,0,3,8,7],"survey":"sns","trial_type":"survey-likert","trial_index":4,"time_elapsed":289172,"internal_node_id":"0.0-4.0","experiment":"validation","task_version":"2.0","jspsych_version":"6.3.1","infrequency":0},{"value":0,"trial_type":"call-function","trial_index":5,"time_elapsed":289173,"internal_node_id":"0.0-5.0","experiment":"validation","task_version":"2.0","jspsych_version":"6.3.1","interactions":"[{\"event\":\"blur\",\"trial\":1,\"time\":13488},{\"event\":\"focus\",\"trial\":1,\"time\":45856},{\"event\":\"blur\",\"trial\":3,\"time\":163421},{\"event\":\"focus\",\"trial\":3,\"time\":174185}]"}]