[{"view_history":[{"page_index":0,"viewing_time":3524.199999988079}],"rt":3525.699999988079,"trial_type":"instructions","trial_index":0,"time_elapsed":3594,"internal_node_id":"0.0-0.0","experiment":"validation","task_version":"2.0","jspsych_version":"6.3.1"},{"rt":8321.800000011921,"responses":{"age":"40","gender-categorical":"Male","gender-free-response":"","ethnicity":"Hispanic or Latino","race":["Rather not say"],"education":"Associate degree"},"survey":"demographics","trial_type":"survey-demo","trial_index":1,"time_elapsed":11922,"internal_node_id":"0.0-1.0","experiment":"validation","task_version":"2.0","jspsych_version":"6.3.1"},{"responses":{"Q05":"3","Q04":"3","Q01":"3","Q08":"4","Q06":"3","Q02":"2","Q09":"4","Q03":"4","Q07":"3"},"rt":25412.20000001788,"item_order":[4,3,0,7,5,1,8,2,6],"radio_events":[4114.300000011921,5380.5,7014.300000011921,8016.4000000059605,10458.40000000596,12052.5,15826.300000011921,18276.100000023842,22396.30000001192,24718.80000001192],"key_events":[3265.100000023842,4114.300000011921,5380.5,6484.4000000059605,7014.300000011921,8016.4000000059605,9730.100000023842,10458.40000000596,11324.200000017881,12052.5,15159.800000011921,15826.300000011921,18276.100000023842,21594.20000001788,22396.30000001192,24718.80000001192,25408.30000001192],"mouse_events":[],"straightlining":0.5555555555555556,"zigzagging":0.625,"honeypot":0,"survey":"pcf","trial_type":"survey-template","trial_index":2,"time_elapsed":37344,"internal_node_id":"0.0-2.0","experiment":"validation","task_version":"2.0","jspsych_version":"6.3.1","infrequency":0},{"rt":23500.69999998808,"response":{"Q2":5,"Q4":5,"Q3":5,"Q1":5,"Q0":5,"Q7":5,"Q5":5,"Q8":0,"Q6":0},"question_order":[2,4,3,1,0,7,5,8,6],"survey":"sns","trial_type":"survey-likert","trial_index":3,"time_elapsed":60854,"internal_node_id":"0.0-3.0","experiment":"validation","task_version":"2.0","jspsych_version":"6.3.1","infrequency":0},{"responses":{"Q05":"1","Q03":"2","Q01":"1","Q04":"1","Q10":"2","Q06":"2","Q07":"2","Q08":"3","Q11":"0","Q02":"2","Q09":"2"},"rt":31247.5,"item_order":[4,2,0,3,9,5,6,7,10,1,8],"radio_events":[5166.800000011921,7976.4000000059605,10412.40000000596,12245.800000011921,13881,15322.09999999404,17949.80000001192,22422.59999999404,26091.90000000596,29882.30000001192,30620.90000000596],"key_events":[4483.5,5166.800000011921,6671.9000000059605,7976.4000000059605,8602.40000000596,9097.5,10412.40000000596,12245.800000011921,13881,15322.09999999404,17374.09999999404,17949.80000001192,20651.70000001788,20987.5,21579.80000001192,22422.59999999404,26091.90000000596,29225.90000000596,29882.30000001192,30217.90000000596,30620.90000000596,31243.80000001192],"mouse_events":[],"straightlining":0.5454545454545454,"zigzagging":0.4,"honeypot":0,"survey":"nfc10","trial_type":"survey-template","trial_index":4,"time_elapsed":92109,"internal_node_id":"0.0-4.0","experiment":"validation","task_version":"2.0","jspsych_version":"6.3.1","infrequency":0},{"value":0,"trial_type":"call-function","trial_index":5,"time_elapsed":92114,"internal_node_id":"0.0-5.0","experiment":"validation","task_version":"2.0","jspsych_version":"6.3.1","interactions":"[]"}]