[{"view_history":[{"page_index":0,"viewing_time":1303.199999999255}],"rt":1303.699999999255,"trial_type":"instructions","trial_index":0,"time_elapsed":1333,"internal_node_id":"0.0-0.0","experiment":"validation","task_version":"1.1","jspsych_version":"6.3.1"},{"rt":8510,"responses":{"age":"35","gender-categorical":"Male","gender-free-response":"","ethnicity":"Not Hispanic or Latino","race":["White"],"education":"Bachelor degree"},"survey":"demographics","trial_type":"survey-demo","trial_index":1,"time_elapsed":9847,"internal_node_id":"0.0-1.0","experiment":"validation","task_version":"1.1","jspsych_version":"6.3.1"},{"responses":{"Q03":"4","Q06":"4","Q09":"4","Q02":"4","Q08":"3","Q07":"4","Q05":"0","Q01":"4","Q10":"4","Q04":"1","Q11":"0"},"rt":21931.60000000149,"item_order":[2,5,8,1,7,6,4,0,9,3,10],"radio_events":[6280,7247.800000000745,7999.800000000745,9127.89999999851,11407.800000000745,12543.89999999851,13655.89999999851,15784.10000000149,17304.10000000149,18791.89999999851,20159.89999999851],"key_events":[],"mouse_events":[2672.199999999255,4543.800000000745,6280,7247.800000000745,7999.800000000745,9127.89999999851,11407.800000000745,12543.89999999851,13655.89999999851,15784.10000000149,17304.10000000149,18791.89999999851,20159.89999999851,21928.199999999255],"straightlining":0.45454545454545453,"zigzagging":0.5,"honeypot":0,"survey":"openness","trial_type":"survey-template","trial_index":2,"time_elapsed":31785,"internal_node_id":"0.0-2.0","experiment":"validation","task_version":"1.1","jspsych_version":"6.3.1","infrequency":0},{"responses":{"Q02":"3","Q01":"3","Q06":"3","Q03":"3","Q04":"4","Q05":"3","Q07":"2"},"rt":17361,"item_order":[1,0,5,2,3,4,6],"radio_events":[2446.800000000745,4143.300000000745,8871.300000000745,11191.099999997765,12894.89999999851,15023.099999997765,16375.300000000745],"key_events":[],"mouse_events":[2446.800000000745,4143.300000000745,8399.099999997765,8871.300000000745,11191.099999997765,12655.699999999255,12894.89999999851,15023.099999997765,16047,16375.300000000745,17358.800000000745],"straightlining":0.5714285714285714,"zigzagging":0.3333333333333333,"honeypot":0,"survey":"nfc6","trial_type":"survey-template","trial_index":3,"time_elapsed":49150,"internal_node_id":"0.0-3.0","experiment":"validation","task_version":"1.1","jspsych_version":"6.3.1","infrequency":0},{"responses":{"Q05":"1","Q10":"1","Q04":"2","Q07":"3","Q06":"1","Q02":"1","Q08":"1","Q01":"1","Q11":"4","Q03":"0","Q09":"1"},"rt":16837,"item_order":[4,9,3,6,5,1,7,0,10,2,8],"radio_events":[2010,3178,4201.79999999702,5257.89999999851,6930.099999997765,8465.79999999702,10497.79999999702,11401.89999999851,12889.699999999255,14409.79999999702,16033.89999999851],"key_events":[],"mouse_events":[2010,3178,4201.79999999702,5257.89999999851,6930.099999997765,8465.79999999702,9801.89999999851,10497.79999999702,11401.89999999851,12889.699999999255,14409.79999999702,16033.89999999851,16833.89999999851],"straightlining":0.36363636363636365,"zigzagging":0.3,"honeypot":0,"survey":"neuroticism","trial_type":"survey-template","trial_index":4,"time_elapsed":65991,"internal_node_id":"0.0-4.0","experiment":"validation","task_version":"1.1","jspsych_version":"6.3.1","infrequency":0},{"value":[0,1.3896103896103895,1.1333333333333333],"trial_type":"call-function","trial_index":5,"time_elapsed":65994,"internal_node_id":"0.0-5.0","experiment":"validation","task_version":"1.1","jspsych_version":"6.3.1","interactions":"[]"}]