[{"view_history":[{"page_index":0,"viewing_time":3335.5}],"rt":3337.2000000029802,"trial_type":"instructions","trial_index":0,"time_elapsed":3355,"internal_node_id":"0.0-0.0","experiment":"validation","task_version":"1.1","jspsych_version":"6.3.1"},{"rt":44536.10000000894,"responses":{"age":"45","gender-categorical":"Female","gender-free-response":"","ethnicity":"Not Hispanic or Latino","race":["Black or African American"],"education":"Bachelor degree"},"survey":"demographics","trial_type":"survey-demo","trial_index":1,"time_elapsed":47903,"internal_node_id":"0.0-1.0","experiment":"validation","task_version":"1.1","jspsych_version":"6.3.1"},{"responses":{"Q06":"3","Q11":"4","Q10":"1","Q05":"1","Q02":"0","Q09":"4","Q03":"2","Q04":"3","Q07":"1","Q08":"1","Q01":"1"},"rt":37278.80000001192,"item_order":[5,10,9,4,1,8,2,3,6,7,0],"radio_events":[10081.300000011921,13567.20000000298,19276.80000001192,20738.80000001192,21998.40000000596,23016.20000000298,24918.60000000894,27327,32741.30000001192,34816.30000001192,36102.90000000596],"key_events":[],"mouse_events":[10081.300000011921,12426.60000000894,13567.20000000298,17616.40000000596,19276.80000001192,20738.80000001192,21998.40000000596,23016.20000000298,24918.60000000894,27327,32741.30000001192,34816.30000001192,36102.90000000596,37267.40000000596],"straightlining":0.36363636363636365,"zigzagging":0.3,"honeypot":0,"survey":"neuroticism","trial_type":"survey-template","trial_index":2,"time_elapsed":85202,"internal_node_id":"0.0-2.0","experiment":"validation","task_version":"1.1","jspsych_version":"6.3.1","infrequency":0},{"responses":{"Q06":"1","Q08":"2","Q04":"2","Q11":"0","Q07":"4","Q10":"4","Q09":"1","Q02":"4","Q01":"4","Q05":"0","Q03":"4"},"rt":115083.29999999702,"item_order":[5,7,3,10,6,9,8,1,0,4,2],"radio_events":[50146.89999999106,52387.39999999106,55160.39999999106,67805.59999999404,70582.20000000298,71399.89999999106,74463.70000000298,76232.39999999106,108882,110002.79999999702,112870,114147.29999999702],"key_events":[],"mouse_events":[48833.89999999106,50146.89999999106,52387.39999999106,55160.39999999106,67805.59999999404,70582.20000000298,71399.89999999106,74463.70000000298,76232.39999999106,108882,110002.79999999702,112870,114147.29999999702,115073.09999999404],"straightlining":0.36363636363636365,"zigzagging":0.2,"honeypot":0,"survey":"openness","trial_type":"survey-template","trial_index":3,"time_elapsed":200300,"internal_node_id":"0.0-3.0","experiment":"validation","task_version":"1.1","jspsych_version":"6.3.1","infrequency":0},{"responses":{"Q04":"0","Q06":"1","Q02":"0","Q07":"2","Q01":"0","Q03":"0","Q05":"0"},"rt":46345.10000000894,"item_order":[3,5,1,6,0,2,4],"radio_events":[25197.40000000596,35231.20000000298,37432.79999999702,39926.29999999702,41837.20000000298,43237.79999999702,45057.70000000298],"key_events":[],"mouse_events":[25197.40000000596,35231.20000000298,37432.79999999702,39926.29999999702,41837.20000000298,43237.79999999702,45057.70000000298,46334.70000000298],"straightlining":0.42857142857142855,"zigzagging":0.5,"honeypot":0,"survey":"nfc6","trial_type":"survey-template","trial_index":4,"time_elapsed":246665,"internal_node_id":"0.0-4.0","experiment":"validation","task_version":"1.1","jspsych_version":"6.3.1","infrequency":0},{"value":[0,1.155844155844156,1],"trial_type":"call-function","trial_index":5,"time_elapsed":246671,"internal_node_id":"0.0-5.0","experiment":"validation","task_version":"1.1","jspsych_version":"6.3.1","interactions":"[]"}]