[{"view_history":[{"page_index":0,"viewing_time":1493.2999999523163}],"rt":1493.5,"trial_type":"instructions","trial_index":0,"time_elapsed":1524,"internal_node_id":"0.0-0.0","experiment":"validation","task_version":"1.1","jspsych_version":"6.3.1"},{"rt":9682.100000023842,"responses":{"age":"19","gender-categorical":"Male","gender-free-response":"","ethnicity":"Not Hispanic or Latino","race":["Native Hawaiian or other Pacific Islander"],"education":"Some college"},"survey":"demographics","trial_type":"survey-demo","trial_index":1,"time_elapsed":11208,"internal_node_id":"0.0-1.0","experiment":"validation","task_version":"1.1","jspsych_version":"6.3.1"},{"responses":{"Q02":"3","Q04":"0","Q03":"3","Q06":"2","Q01":"1","Q07":"2","Q05":"1"},"rt":50302,"item_order":[1,3,2,5,0,6,4],"radio_events":[13694.600000023842,22453.799999952316,26015.399999976158,40807.299999952316,41947.60000002384,45183.5,49091.299999952316],"key_events":[],"mouse_events":[11424.199999928474,13694.600000023842,21660.600000023842,22453.799999952316,26015.399999976158,37108.10000002384,38205.5,39275.5,40807.299999952316,41947.60000002384,45183.5,49091.299999952316,50299.39999997616],"straightlining":0.42857142857142855,"zigzagging":0.8333333333333334,"honeypot":0,"survey":"nfc6","trial_type":"survey-template","trial_index":2,"time_elapsed":61515,"internal_node_id":"0.0-2.0","experiment":"validation","task_version":"1.1","jspsych_version":"6.3.1","infrequency":0},{"responses":{"Q05":"1","Q10":"3","Q11":"0","Q08":"2","Q04":"3","Q07":"3","Q01":"3","Q06":"3","Q02":"3","Q03":"3","Q09":"3"},"rt":34741.60000002384,"item_order":[4,9,10,7,3,6,0,5,1,2,8],"radio_events":[3891.100000023842,7074,10414.399999976158,14040.200000047684,17117.700000047684,18760.200000047684,22283.800000071526,25602.700000047684,28875.600000023842,31250.800000071526,33790.89999997616],"key_events":[],"mouse_events":[3891.100000023842,7074,10414.399999976158,14040.200000047684,17117.700000047684,18760.200000047684,22283.800000071526,25602.700000047684,28875.600000023842,31250.800000071526,33790.89999997616,34738.5],"straightlining":0.45454545454545453,"zigzagging":0.2,"honeypot":0,"survey":"openness","trial_type":"survey-template","trial_index":3,"time_elapsed":96264,"internal_node_id":"0.0-3.0","experiment":"validation","task_version":"1.1","jspsych_version":"6.3.1","infrequency":0},{"responses":{"Q08":"2","Q11":"4","Q05":"2","Q09":"1","Q02":"3","Q04":"3","Q10":"3","Q01":"3","Q06":"3","Q03":"3","Q07":"3"},"rt":26475.200000047684,"item_order":[7,10,4,8,1,3,9,0,5,2,6],"radio_events":[3456.7000000476837,6513.100000023842,7735.300000071526,10798,12446.800000071526,14619.800000071526,17366,19307.800000071526,21261.600000023842,23980.899999976158,25438],"key_events":[],"mouse_events":[3456.7000000476837,5492.200000047684,6513.100000023842,7735.300000071526,10798,12446.800000071526,14619.800000071526,17366,19307.800000071526,21261.600000023842,23980.899999976158,25438,26474.100000023842],"straightlining":0.45454545454545453,"zigzagging":0.1,"honeypot":0,"survey":"neuroticism","trial_type":"survey-template","trial_index":4,"time_elapsed":122748,"internal_node_id":"0.0-4.0","experiment":"validation","task_version":"1.1","jspsych_version":"6.3.1","infrequency":0},{"value":[0,1.3376623376623376,1.1333333333333335],"trial_type":"call-function","trial_index":5,"time_elapsed":122750,"internal_node_id":"0.0-5.0","experiment":"validation","task_version":"1.1","jspsych_version":"6.3.1","interactions":"[]"}]