[{"view_history":[{"page_index":0,"viewing_time":27447.899999976158}],"rt":27448.799999952316,"trial_type":"instructions","trial_index":0,"time_elapsed":27464,"internal_node_id":"0.0-0.0","experiment":"validation","task_version":"1.1","jspsych_version":"6.3.1"},{"rt":14165.399999976158,"responses":{"age":"24","gender-categorical":"Female","gender-free-response":"","ethnicity":"Not Hispanic or Latino","race":["White"],"education":"High school"},"survey":"demographics","trial_type":"survey-demo","trial_index":1,"time_elapsed":41633,"internal_node_id":"0.0-1.0","experiment":"validation","task_version":"1.1","jspsych_version":"6.3.1"},{"responses":{"Q04":"4","Q07":"2","Q03":"4","Q02":"4","Q06":"4","Q01":"4","Q05":"4"},"rt":58124,"item_order":[3,6,2,1,5,0,4],"radio_events":[22298.800000071526,27682.700000047684,32562.700000047684,38819.10000002384,43090.40000009537,50330.40000009537,56650.300000071526],"key_events":[],"mouse_events":[22298.800000071526,27682.700000047684,32562.700000047684,38819.10000002384,43090.40000009537,50330.40000009537,56650.300000071526,58122.60000002384],"straightlining":0.5714285714285714,"zigzagging":0.16666666666666666,"honeypot":0,"survey":"nfc6","trial_type":"survey-template","trial_index":2,"time_elapsed":99762,"internal_node_id":"0.0-2.0","experiment":"validation","task_version":"1.1","jspsych_version":"6.3.1","infrequency":0},{"responses":{"Q06":"1","Q08":"2","Q09":"1","Q04":"1","Q02":"2","Q07":"2","Q10":"2","Q01":"1","Q11":"4","Q05":"1","Q03":"1"},"rt":57811.799999952316,"item_order":[5,7,8,3,1,6,9,0,10,4,2],"radio_events":[15987,19050.899999976158,23218.699999928474,24194.899999976158,27674.799999952316,30898.699999928474,32970.5,34162.699999928474,38706.89999997616,44923.199999928474,50162.5,52978.59999990463,56538.59999990463],"key_events":[],"mouse_events":[15987,19050.899999976158,23218.699999928474,24194.899999976158,27674.799999952316,30898.699999928474,32970.5,34162.699999928474,38706.89999997616,44923.199999928474,50162.5,52978.59999990463,56538.59999990463,57810.5],"straightlining":0.36363636363636365,"zigzagging":0.4,"honeypot":0,"survey":"neuroticism","trial_type":"survey-template","trial_index":3,"time_elapsed":157577,"internal_node_id":"0.0-3.0","experiment":"validation","task_version":"1.1","jspsych_version":"6.3.1","infrequency":0},{"responses":{"Q08":"3","Q11":"0","Q10":"0","Q09":"4","Q01":"3","Q04":"1","Q07":"4","Q03":"0","Q06":"3","Q02":"4","Q05":"0"},"rt":52900.39999997616,"item_order":[7,10,9,8,0,3,6,2,5,1,4],"radio_events":[13955.5,18451.5,22819.699999928474,26867.399999976158,29723.600000023842,37403.199999928474,40219.39999997616,41955.199999928474,47651.299999952316,49731.39999997616,52235.299999952316],"key_events":[],"mouse_events":[13955.5,18451.5,22819.699999928474,26867.399999976158,29723.600000023842,37403.199999928474,40219.39999997616,41955.199999928474,47651.299999952316,49731.39999997616,52235.299999952316,52899.199999928474],"straightlining":0.36363636363636365,"zigzagging":0.4,"honeypot":0,"survey":"openness","trial_type":"survey-template","trial_index":4,"time_elapsed":210481,"internal_node_id":"0.0-4.0","experiment":"validation","task_version":"1.1","jspsych_version":"6.3.1","infrequency":0},{"value":[0,1.2987012987012987,0.9666666666666667],"trial_type":"call-function","trial_index":5,"time_elapsed":210483,"internal_node_id":"0.0-5.0","experiment":"validation","task_version":"1.1","jspsych_version":"6.3.1","interactions":"[]"}]