[{"view_history":[{"page_index":0,"viewing_time":5428.5}],"rt":5429.899999976158,"trial_type":"instructions","trial_index":0,"time_elapsed":5494,"internal_node_id":"0.0-0.0","experiment":"validation","task_version":"1.1","jspsych_version":"6.3.1"},{"rt":12113.199999988079,"responses":{"age":"18","gender-categorical":"Female","gender-free-response":"","ethnicity":"Not Hispanic or Latino","race":["Asian"],"education":"Less than high school"},"survey":"demographics","trial_type":"survey-demo","trial_index":1,"time_elapsed":17615,"internal_node_id":"0.0-1.0","experiment":"validation","task_version":"1.1","jspsych_version":"6.3.1"},{"responses":{"Q04":"2","Q01":"3","Q03":"3","Q06":"3","Q11":"0","Q07":"4","Q02":"3","Q09":"4","Q05":"0","Q10":"3","Q08":"1"},"rt":33210.69999998808,"item_order":[3,0,2,5,10,6,1,8,4,9,7],"radio_events":[6865.399999976158,9497.599999964237,10114.199999988079,12337.799999952316,16122.799999952316,18291.5,22483,23458.69999998808,25699.19999998808,28308,32043.299999952316],"key_events":[],"mouse_events":[6865.399999976158,9497.599999964237,10114.199999988079,12337.799999952316,16122.799999952316,18291.5,20458.399999976158,22483,23458.69999998808,25699.19999998808,27443.099999964237,28308,32043.299999952316,33203.59999996424],"straightlining":0.36363636363636365,"zigzagging":0.3,"honeypot":0,"survey":"openness","trial_type":"survey-template","trial_index":2,"time_elapsed":50843,"internal_node_id":"0.0-2.0","experiment":"validation","task_version":"1.1","jspsych_version":"6.3.1","infrequency":0},{"responses":{"Q05":"3","Q03":"4","Q01":"3","Q07":"2","Q04":"3","Q06":"2","Q02":"3"},"rt":44576,"item_order":[4,2,0,6,3,5,1],"radio_events":[15076.300000011921,16516.400000035763,19260.100000023842,21131.5,22540.200000047684,28221.100000023842,32964.200000047684,39772.5,43837.80000001192],"key_events":[],"mouse_events":[15076.300000011921,16516.400000035763,17844,19260.100000023842,21131.5,22540.200000047684,28221.100000023842,32964.200000047684,39772.5,43837.80000001192,44573.5],"straightlining":0.42857142857142855,"zigzagging":0.6666666666666666,"honeypot":0,"survey":"nfc6","trial_type":"survey-template","trial_index":3,"time_elapsed":95427,"internal_node_id":"0.0-3.0","experiment":"validation","task_version":"1.1","jspsych_version":"6.3.1","infrequency":0},{"responses":{"Q03":"0","Q04":"0","Q07":"0","Q02":"0","Q05":"2","Q10":"1","Q01":"0","Q06":"1","Q11":"4","Q08":"0","Q09":"0"},"rt":28290.5,"item_order":[2,3,6,1,4,9,0,5,10,7,8],"radio_events":[6668.800000011921,7516.5,11116.199999988079,12668.300000011921,14460,17629.19999998808,19620.80000001192,23381.100000023842,25029.5,26556.69999998808,27796.19999998808],"key_events":[],"mouse_events":[6668.800000011921,7516.5,10284.300000011921,11116.199999988079,12668.300000011921,14460,17629.19999998808,18956.30000001192,19620.80000001192,23381.100000023842,25029.5,26556.69999998808,27796.19999998808,28284.5],"straightlining":0.36363636363636365,"zigzagging":0.4,"honeypot":0,"survey":"neuroticism","trial_type":"survey-template","trial_index":4,"time_elapsed":123728,"internal_node_id":"0.0-4.0","experiment":"validation","task_version":"1.1","jspsych_version":"6.3.1","infrequency":0},{"value":[0,1.155844155844156,1.3666666666666667],"trial_type":"call-function","trial_index":5,"time_elapsed":123733,"internal_node_id":"0.0-5.0","experiment":"validation","task_version":"1.1","jspsych_version":"6.3.1","interactions":"[]"}]