[{"view_history":[{"page_index":0,"viewing_time":1626.9000000953674}],"rt":1627.4000000953674,"trial_type":"instructions","trial_index":0,"time_elapsed":1639,"internal_node_id":"0.0-0.0","experiment":"validation","task_version":"1.1","jspsych_version":"6.3.1"},{"rt":12170.700000047684,"responses":{"age":"18","gender-categorical":"Female","gender-free-response":"","ethnicity":"Not Hispanic or Latino","race":["White"],"education":"High school"},"survey":"demographics","trial_type":"survey-demo","trial_index":1,"time_elapsed":13815,"internal_node_id":"0.0-1.0","experiment":"validation","task_version":"1.1","jspsych_version":"6.3.1"},{"responses":{"Q10":"4","Q06":"3","Q01":"4","Q02":"4","Q04":"2","Q11":"4","Q03":"4","Q08":"4","Q09":"3","Q05":"3","Q07":"4"},"rt":49315,"item_order":[9,5,0,1,3,10,2,7,8,4,6],"radio_events":[8689.599999904633,12270.699999809265,16216,19536.699999809265,22811.39999985695,27728.099999904633,31358.699999809265,33740.09999990463,39894.39999985695,45552.39999985695,48589.59999990463],"key_events":[],"mouse_events":[8689.599999904633,12270.699999809265,15623.599999904633,16216,18953.89999985695,19536.699999809265,22811.39999985695,27728.099999904633,31358.699999809265,33740.09999990463,39894.39999985695,45552.39999985695,48589.59999990463,49311.799999952316],"straightlining":0.36363636363636365,"zigzagging":0.3,"honeypot":0,"survey":"neuroticism","trial_type":"survey-template","trial_index":2,"time_elapsed":63136,"internal_node_id":"0.0-2.0","experiment":"validation","task_version":"1.1","jspsych_version":"6.3.1","infrequency":0},{"responses":{"Q10":"4","Q04":"2","Q05":"1","Q07":"3","Q06":"2","Q02":"2","Q09":"1","Q08":"1","Q03":"4","Q01":"2","Q11":"0"},"rt":37608.39999985695,"item_order":[9,3,4,6,5,1,8,7,2,0,10],"radio_events":[6815.199999809265,9731.099999904633,11732.799999952316,14519.5,17820.599999904633,19511.39999985695,21828.599999904633,24731.199999809265,27387.89999985695,32095.39999985695,35912.89999985695],"key_events":[],"mouse_events":[6815.199999809265,9731.099999904633,11732.799999952316,14519.5,17820.599999904633,19511.39999985695,21828.599999904633,24731.199999809265,27387.89999985695,32095.39999985695,35912.89999985695,37605.39999985695],"straightlining":0.36363636363636365,"zigzagging":0.4,"honeypot":0,"survey":"openness","trial_type":"survey-template","trial_index":3,"time_elapsed":100747,"internal_node_id":"0.0-3.0","experiment":"validation","task_version":"1.1","jspsych_version":"6.3.1","infrequency":0},{"responses":{"Q02":"0","Q03":"0","Q06":"1","Q07":"2","Q05":"1","Q01":"1","Q04":"3"},"rt":40759.299999952316,"item_order":[1,2,5,6,4,0,3],"radio_events":[10107.599999904633,14426.099999904633,26849,28682.39999985695,32181.599999904633,35470.59999990463,37780.5,39725.299999952316],"key_events":[],"mouse_events":[10107.599999904633,14426.099999904633,26849,28682.39999985695,32181.599999904633,35470.59999990463,37780.5,39725.299999952316,40757.09999990463],"straightlining":0.5714285714285714,"zigzagging":0.5,"honeypot":0,"survey":"nfc6","trial_type":"survey-template","trial_index":4,"time_elapsed":141508,"internal_node_id":"0.0-4.0","experiment":"validation","task_version":"1.1","jspsych_version":"6.3.1","infrequency":0},{"value":[0,1.2987012987012987,1.2],"trial_type":"call-function","trial_index":5,"time_elapsed":141509,"internal_node_id":"0.0-5.0","experiment":"validation","task_version":"1.1","jspsych_version":"6.3.1","interactions":"[]"}]