[{"view_history":[{"page_index":0,"viewing_time":4715.5999999940395}],"rt":4716.0999999940395,"trial_type":"instructions","trial_index":0,"time_elapsed":4731,"internal_node_id":"0.0-0.0","experiment":"validation","task_version":"1.1","jspsych_version":"6.3.1"},{"rt":23151.09999999404,"responses":{"age":"39","gender-categorical":"Female","gender-free-response":"","ethnicity":"Not Hispanic or Latino","race":["White"],"education":"Associate degree"},"survey":"demographics","trial_type":"survey-demo","trial_index":1,"time_elapsed":27883,"internal_node_id":"0.0-1.0","experiment":"validation","task_version":"1.1","jspsych_version":"6.3.1"},{"responses":{"Q05":"0","Q06":"3","Q07":"2","Q11":"4","Q10":"1","Q03":"1","Q08":"1","Q02":"0","Q04":"1","Q01":"1","Q09":"2"},"rt":57045.70000001788,"item_order":[4,5,6,10,9,2,7,1,3,0,8],"radio_events":[8740.800000011921,16108.5,18868.59999999404,22485.59999999404,25557.5,30876.5,35060.70000001788,37916.40000000596,40764.5,42836.70000001788,49132.59999999404,53828.70000001788],"key_events":[],"mouse_events":[8740.800000011921,14388.5,16108.5,18868.59999999404,22485.59999999404,25557.5,30876.5,35060.70000001788,37916.40000000596,40764.5,42836.70000001788,49132.59999999404,53828.70000001788,57044.59999999404],"straightlining":0.36363636363636365,"zigzagging":0.5,"honeypot":0,"survey":"neuroticism","trial_type":"survey-template","trial_index":2,"time_elapsed":84932,"internal_node_id":"0.0-2.0","experiment":"validation","task_version":"1.1","jspsych_version":"6.3.1","infrequency":0},{"responses":{"Q04":"3","Q02":"3","Q06":"3","Q01":"2","Q05":"3","Q07":"2","Q03":"3"},"rt":47805.69999998808,"item_order":[3,1,5,0,4,6,2],"radio_events":[14820.90000000596,20613,28004.90000000596,34228.90000000596,38348.79999998212,43012.90000000596,46492.90000000596],"key_events":[],"mouse_events":[14820.90000000596,20613,28004.90000000596,33636.79999998212,34228.90000000596,38348.79999998212,43012.90000000596,46492.90000000596,47805],"straightlining":0.42857142857142855,"zigzagging":0.6666666666666666,"honeypot":0,"survey":"nfc6","trial_type":"survey-template","trial_index":3,"time_elapsed":132739,"internal_node_id":"0.0-3.0","experiment":"validation","task_version":"1.1","jspsych_version":"6.3.1","infrequency":0},{"responses":{"Q07":"4","Q09":"4","Q10":"4","Q01":"4","Q08":"3","Q03":"4","Q05":"0","Q11":"0","Q04":"2","Q02":"3","Q06":"3"},"rt":43838.29999998212,"item_order":[6,8,9,0,7,2,4,10,3,1,5],"radio_events":[8765.59999999404,11253.399999976158,12302.199999988079,14461.299999982119,19877.29999998212,21725.5,24197.399999976158,27509.5,31053.5,33757.5,37741.5,39837.29999998212,42293.59999999404],"key_events":[],"mouse_events":[8765.59999999404,11253.399999976158,12302.199999988079,14461.299999982119,19877.29999998212,21725.5,24197.399999976158,27509.5,31053.5,33757.5,37741.5,39837.29999998212,42293.59999999404,43837.5],"straightlining":0.36363636363636365,"zigzagging":0.3,"honeypot":0,"survey":"openness","trial_type":"survey-template","trial_index":4,"time_elapsed":176580,"internal_node_id":"0.0-4.0","experiment":"validation","task_version":"1.1","jspsych_version":"6.3.1","infrequency":0},{"value":[0,1.155844155844156,1.4666666666666666],"trial_type":"call-function","trial_index":5,"time_elapsed":176581,"internal_node_id":"0.0-5.0","experiment":"validation","task_version":"1.1","jspsych_version":"6.3.1","interactions":"[{\"event\":\"blur\",\"trial\":1,\"time\":10628},{\"event\":\"focus\",\"trial\":1,\"time\":12625}]"}]