[{"view_history":[{"page_index":0,"viewing_time":2877.7000000029802}],"rt":2877.9000000059605,"trial_type":"instructions","trial_index":0,"time_elapsed":2885,"internal_node_id":"0.0-0.0","experiment":"validation","task_version":"1.1","jspsych_version":"6.3.1"},{"rt":14691.20000000298,"responses":{"age":"37","gender-categorical":"Male","gender-free-response":"","ethnicity":"Not Hispanic or Latino","race":["White"],"education":"Some college"},"survey":"demographics","trial_type":"survey-demo","trial_index":1,"time_elapsed":17578,"internal_node_id":"0.0-1.0","experiment":"validation","task_version":"1.1","jspsych_version":"6.3.1"},{"responses":{"Q06":"3","Q07":"3","Q01":"0","Q02":"0","Q09":"3","Q04":"3","Q10":"2","Q05":"3","Q03":"1","Q11":"4","Q08":"3"},"rt":53368.60000000894,"item_order":[5,6,0,1,8,3,9,4,2,10,7],"radio_events":[18175,22733.60000000894,23821.70000000298,25786.60000000894,28636.60000000894,31190.40000000596,33609.10000000894,34599.60000000894,36340.70000000298,38514.60000000894,40637.60000000894,45696.70000000298,48448,51297.30000001192,52531.70000000298],"key_events":[],"mouse_events":[18175,22733.60000000894,23821.70000000298,25786.60000000894,28636.60000000894,31190.40000000596,33609.10000000894,34599.60000000894,36340.70000000298,38514.60000000894,40637.60000000894,45696.70000000298,48448,51297.30000001192,51917.5,52531.70000000298,53367.80000001192],"straightlining":0.45454545454545453,"zigzagging":0.4,"honeypot":0,"survey":"neuroticism","trial_type":"survey-template","trial_index":2,"time_elapsed":70949,"internal_node_id":"0.0-2.0","experiment":"validation","task_version":"1.1","jspsych_version":"6.3.1","infrequency":0},{"responses":{"Q06":"1","Q09":"3","Q07":"4","Q11":"0","Q02":"3","Q08":"3","Q01":"3","Q04":"1","Q03":"1","Q05":"1","Q10":"1"},"rt":73195.10000000894,"item_order":[5,8,6,10,1,7,0,3,2,4,9],"radio_events":[10145,16844.40000000596,20164.90000000596,22392.60000000894,24465.5,28146.60000000894,60663.5,63323.60000000894,66371.70000000298,67489.5,69919.5,72228.60000000894],"key_events":[],"mouse_events":[10145,16421.5,16844.40000000596,20164.90000000596,22392.60000000894,24465.5,28146.60000000894,59997.5,60663.5,63323.60000000894,65934.40000000596,66371.70000000298,67489.5,69919.5,71896.29999999702,72228.60000000894,73194.40000000596],"straightlining":0.5454545454545454,"zigzagging":0.1,"honeypot":0,"survey":"openness","trial_type":"survey-template","trial_index":3,"time_elapsed":144145,"internal_node_id":"0.0-3.0","experiment":"validation","task_version":"1.1","jspsych_version":"6.3.1","infrequency":0},{"responses":{"Q01":"3","Q03":"3","Q06":"3","Q05":"3","Q04":"3","Q02":"3","Q07":"2"},"rt":33965.5,"item_order":[0,2,5,4,3,1,6],"radio_events":[4914.9000000059605,18003,20764,23004,26934.10000000894,30014.10000000894,33007.5],"key_events":[],"mouse_events":[4914.9000000059605,6821,18003,20764,23004,26934.10000000894,30014.10000000894,33007.5,33965.10000000894],"straightlining":0.5714285714285714,"zigzagging":0.16666666666666666,"honeypot":0,"survey":"nfc6","trial_type":"survey-template","trial_index":4,"time_elapsed":178111,"internal_node_id":"0.0-4.0","experiment":"validation","task_version":"1.1","jspsych_version":"6.3.1","infrequency":0},{"value":[0,1.5714285714285714,0.6666666666666666],"trial_type":"call-function","trial_index":5,"time_elapsed":178112,"internal_node_id":"0.0-5.0","experiment":"validation","task_version":"1.1","jspsych_version":"6.3.1","interactions":"[{\"event\":\"blur\",\"trial\":2,\"time\":18956},{\"event\":\"focus\",\"trial\":2,\"time\":28783},{\"event\":\"blur\",\"trial\":3,\"time\":72129},{\"event\":\"focus\",\"trial\":3,\"time\":76563},{\"event\":\"blur\",\"trial\":3,\"time\":101414},{\"event\":\"focus\",\"trial\":3,\"time\":126666},{\"event\":\"blur\",\"trial\":4,\"time\":152525},{\"event\":\"focus\",\"trial\":4,\"time\":159134}]"}]