[{"view_history":[{"page_index":0,"viewing_time":2127.7999999523163}],"rt":2128.0999999046326,"trial_type":"instructions","trial_index":0,"time_elapsed":2147,"internal_node_id":"0.0-0.0","experiment":"validation","task_version":"1.1","jspsych_version":"6.3.1"},{"rt":7120.799999952316,"responses":{"age":"34","gender-categorical":"Male","gender-free-response":"","ethnicity":"Not Hispanic or Latino","race":["White"],"education":"Associate degree"},"survey":"demographics","trial_type":"survey-demo","trial_index":1,"time_elapsed":9270,"internal_node_id":"0.0-1.0","experiment":"validation","task_version":"1.1","jspsych_version":"6.3.1"},{"responses":{"Q05":"3","Q06":"3","Q04":"2","Q03":"3","Q01":"3","Q02":"3","Q07":"2"},"rt":28208.799999952316,"item_order":[4,5,3,2,0,1,6],"radio_events":[7762,11939.799999952316,14721.899999856949,17757.799999952316,19811.699999809265,26324.099999904633,26857.699999809265],"key_events":[],"mouse_events":[7762,9329.799999952316,11469.799999952316,11939.799999952316,14721.899999856949,17085.799999952316,17757.799999952316,19811.699999809265,24137.799999952316,25165.699999809265,25568,26138.39999985695,26324.099999904633,26857.699999809265,28207.699999809265],"straightlining":0.5714285714285714,"zigzagging":0.5,"honeypot":0,"survey":"nfc6","trial_type":"survey-template","trial_index":2,"time_elapsed":37489,"internal_node_id":"0.0-2.0","experiment":"validation","task_version":"1.1","jspsych_version":"6.3.1","infrequency":0},{"responses":{"Q06":"3","Q10":"0","Q04":"1","Q07":"3","Q11":"0","Q05":"1","Q08":"3","Q01":"2","Q09":"1","Q02":"3","Q03":"0"},"rt":37596.09999990463,"item_order":[5,9,3,6,10,4,7,0,8,1,2],"radio_events":[4543.200000047684,5924.899999856949,8965.5,10426.899999856949,13448.899999856949,21720.799999952316,23690.89999985695,26934.89999985695,32466.799999952316,32921,35208.89999985695],"key_events":[],"mouse_events":[3639.0999999046326,4543.200000047684,5924.899999856949,8965.5,10426.899999856949,13448.899999856949,21720.799999952316,23690.89999985695,26934.89999985695,32466.799999952316,32921,35208.89999985695,37595],"straightlining":0.36363636363636365,"zigzagging":0.4,"honeypot":0,"survey":"openness","trial_type":"survey-template","trial_index":3,"time_elapsed":75098,"internal_node_id":"0.0-3.0","experiment":"validation","task_version":"1.1","jspsych_version":"6.3.1","infrequency":0},{"responses":{"Q05":"2","Q11":"4","Q04":"1","Q08":"1","Q01":"0","Q09":"1","Q07":"0","Q10":"1","Q02":"0","Q06":"0","Q03":"0"},"rt":31677.200000047684,"item_order":[4,10,3,7,0,8,6,9,1,5,2],"radio_events":[3424.2999999523163,4666,8096,9850,12306,15310.099999904633,18752.200000047684,21658,23376.299999952316,24130.200000047684,26122,28547.900000095367,30394.099999904633],"key_events":[],"mouse_events":[3424.2999999523163,4666,8096,9548,9850,12306,15310.099999904633,18752.200000047684,21658,22548.599999904633,23376.299999952316,24130.200000047684,26122,28547.900000095367,30394.099999904633,31676.299999952316],"straightlining":0.2727272727272727,"zigzagging":0.4,"honeypot":0,"survey":"neuroticism","trial_type":"survey-template","trial_index":4,"time_elapsed":106780,"internal_node_id":"0.0-4.0","experiment":"validation","task_version":"1.1","jspsych_version":"6.3.1","infrequency":0},{"value":[0,1.2077922077922079,1.3],"trial_type":"call-function","trial_index":5,"time_elapsed":106786,"internal_node_id":"0.0-5.0","experiment":"validation","task_version":"1.1","jspsych_version":"6.3.1","interactions":"[]"}]