[{"view_history":[{"page_index":0,"viewing_time":1617.9000000003725}],"rt":1618.199999999255,"trial_type":"instructions","trial_index":0,"time_elapsed":1638,"internal_node_id":"0.0-0.0","experiment":"validation","task_version":"2.0","jspsych_version":"6.3.1"},{"rt":11795.700000001118,"responses":{"age":"27","gender-categorical":"Male","gender-free-response":"","ethnicity":"Not Hispanic or Latino","race":["Asian"],"education":"Associate degree"},"survey":"demographics","trial_type":"survey-demo","trial_index":1,"time_elapsed":13437,"internal_node_id":"0.0-1.0","experiment":"validation","task_version":"2.0","jspsych_version":"6.3.1"},{"rt":119295.40000000037,"response":{"Q5":4,"Q8":0,"Q1":1,"Q6":1,"Q4":5,"Q3":1,"Q7":5,"Q0":1,"Q2":0},"question_order":[5,8,1,6,4,3,7,0,2],"survey":"sns","trial_type":"survey-likert","trial_index":2,"time_elapsed":132740,"internal_node_id":"0.0-2.0","experiment":"validation","task_version":"2.0","jspsych_version":"6.3.1","infrequency":0},{"responses":{"Q07":"2","Q08":"4","Q05":"2","Q06":"2","Q03":"2","Q02":"3","Q09":"4","Q04":"2","Q01":"3"},"rt":30148.400000000373,"item_order":[6,7,4,5,2,1,8,3,0],"radio_events":[13575.900000000373,15516.599999999627,16914.299999998882,18517.099999999627,19779,20128.699999999255,22788.599999999627,25749.5,27147.400000000373,29001.400000000373],"key_events":[],"mouse_events":[13575.900000000373,15516.599999999627,16914.299999998882,18517.099999999627,19779,20128.699999999255,22788.599999999627,25749.5,27147.400000000373,29001.400000000373,30147],"straightlining":0.5555555555555556,"zigzagging":0.25,"honeypot":0,"survey":"pcf","trial_type":"survey-template","trial_index":3,"time_elapsed":162892,"internal_node_id":"0.0-3.0","experiment":"validation","task_version":"2.0","jspsych_version":"6.3.1","infrequency":0},{"responses":{"Q08":"1","Q10":"0","Q11":"0","Q07":"1","Q05":"0","Q02":"0","Q01":"0","Q06":"2","Q03":"0","Q09":"2","Q04":"0"},"rt":27627.10000000149,"item_order":[7,9,10,6,4,1,0,5,2,8,3],"radio_events":[5054,6733.700000001118,8150.9000000003725,10170.60000000149,12121.700000001118,14442.300000000745,16461.900000000373,20888.10000000149,22499.300000000745,24518.300000000745,26771.400000000373],"key_events":[],"mouse_events":[5054,6733.700000001118,8150.9000000003725,10170.60000000149,12121.700000001118,14442.300000000745,16461.900000000373,20888.10000000149,22499.300000000745,24518.300000000745,26771.400000000373,27625.60000000149],"straightlining":0.36363636363636365,"zigzagging":0.3,"honeypot":0,"survey":"nfc10","trial_type":"survey-template","trial_index":4,"time_elapsed":190522,"internal_node_id":"0.0-4.0","experiment":"validation","task_version":"2.0","jspsych_version":"6.3.1","infrequency":0},{"value":0,"trial_type":"call-function","trial_index":5,"time_elapsed":190523,"internal_node_id":"0.0-5.0","experiment":"validation","task_version":"2.0","jspsych_version":"6.3.1","interactions":"[{\"event\":\"blur\",\"trial\":2,\"time\":16003},{\"event\":\"focus\",\"trial\":2,\"time\":90367},{\"event\":\"blur\",\"trial\":2,\"time\":97913},{\"event\":\"focus\",\"trial\":2,\"time\":101364},{\"event\":\"blur\",\"trial\":2,\"time\":110980},{\"event\":\"focus\",\"trial\":2,\"time\":115379},{\"event\":\"blur\",\"trial\":3,\"time\":133252},{\"event\":\"focus\",\"trial\":3,\"time\":138115}]"}]