[{"view_history":[{"page_index":0,"viewing_time":3839.8999999990338}],"rt":3840.2399999977206,"trial_type":"instructions","trial_index":0,"time_elapsed":3857,"internal_node_id":"0.0-0.0","experiment":"validation","task_version":"1.1","jspsych_version":"6.3.1"},{"rt":13997.875000000931,"responses":{"age":"25","gender-categorical":"Female","gender-free-response":"","ethnicity":"Not Hispanic or Latino","race":["Black or African American"],"education":"Bachelor degree"},"survey":"demographics","trial_type":"survey-demo","trial_index":1,"time_elapsed":17862,"internal_node_id":"0.0-1.0","experiment":"validation","task_version":"1.1","jspsych_version":"6.3.1"},{"responses":{"Q07":"3","Q06":"3","Q01":"4","Q10":"4","Q11":"4","Q05":"3","Q08":"3","Q03":"4","Q04":"4","Q02":"3","Q09":"3"},"rt":34268.30499999778,"item_order":[6,5,0,9,10,4,7,2,3,1,8],"radio_events":[4201.839999994263,8241.139999998268,11655.799999993178,15105.489999994461,17340.039999995497,21238.47499999829,24483.854999998584,27528.56499999325,28924.424999997427,30773.92499999405,33349.44999999425],"key_events":[],"mouse_events":[4201.839999994263,8241.139999998268,11655.799999993178,15105.489999994461,17340.039999995497,21238.47499999829,24483.854999998584,27528.56499999325,28924.424999997427,30773.92499999405,33349.44999999425,34264.19499999611],"straightlining":0.36363636363636365,"zigzagging":0.4,"honeypot":0,"survey":"neuroticism","trial_type":"survey-template","trial_index":2,"time_elapsed":52137,"internal_node_id":"0.0-2.0","experiment":"validation","task_version":"1.1","jspsych_version":"6.3.1","infrequency":0},{"responses":{"Q09":"4","Q11":"0","Q08":"4","Q05":"0","Q10":"4","Q06":"4","Q04":"0","Q07":"1","Q02":"4","Q03":"4","Q01":"4"},"rt":32340.81999999762,"item_order":[8,10,7,4,9,5,3,6,1,2,0],"radio_events":[3819.3949999986216,6022.109999998065,8829.639999996289,11729.379999997036,15126.640000002226,17268.14999999624,20777.444999999716,22526.135000000068,24455.580000001646,26805.984999999055,29453.23500000086,31631.3949999967],"key_events":[],"mouse_events":[3819.3949999986216,6022.109999998065,8829.639999996289,11729.379999997036,15126.640000002226,17268.14999999624,20777.444999999716,22526.135000000068,24455.580000001646,26805.984999999055,29453.23500000086,30624.629999998433,31631.3949999967,32337.500000001455],"straightlining":0.45454545454545453,"zigzagging":0.5,"honeypot":0,"survey":"openness","trial_type":"survey-template","trial_index":3,"time_elapsed":84486,"internal_node_id":"0.0-3.0","experiment":"validation","task_version":"1.1","jspsych_version":"6.3.1","infrequency":0},{"responses":{"Q01":"3","Q04":"3","Q05":"3","Q02":"3","Q07":"2","Q03":"2","Q06":"1"},"rt":55438.99000000238,"item_order":[0,3,4,1,6,2,5],"radio_events":[8337.805000002845,14301.85000000347,17923.855000000913,18694.53500000236,19745.47999999777,33748.98000000394,41377.605000001495,46083.09500000178,48926.57000000327,54497.86000000313],"key_events":[],"mouse_events":[8337.805000002845,14301.85000000347,17923.855000000913,18694.53500000236,19745.47999999777,33748.98000000394,41377.605000001495,46083.09500000178,48926.57000000327,54497.86000000313,55436.84000000212],"straightlining":0.42857142857142855,"zigzagging":0.3333333333333333,"honeypot":0,"survey":"nfc6","trial_type":"survey-template","trial_index":4,"time_elapsed":139931,"internal_node_id":"0.0-4.0","experiment":"validation","task_version":"1.1","jspsych_version":"6.3.1","infrequency":0},{"value":[0,1.2467532467532467,1.2333333333333334],"trial_type":"call-function","trial_index":5,"time_elapsed":139934,"internal_node_id":"0.0-5.0","experiment":"validation","task_version":"1.1","jspsych_version":"6.3.1","interactions":"[]"}]