[{"view_history":[{"page_index":0,"viewing_time":19245}],"rt":19246.299999713898,"trial_type":"instructions","trial_index":0,"time_elapsed":19265,"internal_node_id":"0.0-0.0","experiment":"validation","task_version":"1.1","jspsych_version":"6.3.1"},{"rt":35858.5,"responses":{"age":"19","gender-categorical":"Female","gender-free-response":"","ethnicity":"Not Hispanic or Latino","race":["White"],"education":"High school"},"survey":"demographics","trial_type":"survey-demo","trial_index":1,"time_elapsed":55126,"internal_node_id":"0.0-1.0","experiment":"validation","task_version":"1.1","jspsych_version":"6.3.1"},{"responses":{"Q03":"2","Q07":"1","Q09":"3","Q01":"1","Q05":"3","Q06":"4","Q04":"1","Q08":"2","Q02":"2","Q10":"1","Q11":"4"},"rt":41327,"item_order":[2,6,8,0,4,5,3,7,1,9,10],"radio_events":[13104.89999961853,14648.39999961853,16619,18236.699999809265,19803.199999809265,23204.699999809265,24443.099999904633,31985.799999713898,34775.39999961853,35760.199999809265,37608.7999997139,39809.39999961853],"key_events":[],"mouse_events":[10931.39999961853,11657.799999713898,12425.799999713898,13104.89999961853,14648.39999961853,16619,18236.699999809265,19803.199999809265,21347.699999809265,22355.699999809265,23204.699999809265,24443.099999904633,31985.799999713898,33806.199999809265,34775.39999961853,35760.199999809265,37608.7999997139,39809.39999961853,41324.5],"straightlining":0.2727272727272727,"zigzagging":0.5,"honeypot":0,"survey":"neuroticism","trial_type":"survey-template","trial_index":2,"time_elapsed":96461,"internal_node_id":"0.0-2.0","experiment":"validation","task_version":"1.1","jspsych_version":"6.3.1","infrequency":0},{"responses":{"Q01":"1","Q02":"3","Q03":"3","Q05":"3","Q07":"2","Q04":"3","Q06":"3"},"rt":28571.099999904633,"item_order":[0,1,2,4,6,3,5],"radio_events":[5095.599999904633,8542.299999713898,16457.39999961853,21245.099999904633,22498.099999904633,26496.199999809265,27764],"key_events":[],"mouse_events":[5095.599999904633,7057.699999809265,8542.299999713898,15290.5,16457.39999961853,18011.099999904633,20215.599999904633,21245.099999904633,22498.099999904633,25508.699999809265,26496.199999809265,27764,28569.5],"straightlining":0.42857142857142855,"zigzagging":0.3333333333333333,"honeypot":0,"survey":"nfc6","trial_type":"survey-template","trial_index":3,"time_elapsed":125038,"internal_node_id":"0.0-3.0","experiment":"validation","task_version":"1.1","jspsych_version":"6.3.1","infrequency":0},{"responses":{"Q10":"4","Q02":"4","Q04":"0","Q05":"0","Q08":"3","Q06":"3","Q03":"4","Q07":"4","Q11":"0","Q01":"3","Q09":"4"},"rt":28521.599999904633,"item_order":[9,1,3,4,7,5,2,6,10,0,8],"radio_events":[3417.300000190735,7036.200000286102,8147.5,12741,13875,15463.099999904633,19304.900000095367,20646.900000095367,21796.400000095367,24698,27158.400000095367],"key_events":[],"mouse_events":[3417.300000190735,5394,6163.599999904633,7036.200000286102,8147.5,9384.599999904633,10258.300000190735,12741,13875,15463.099999904633,17603.599999904633,18485.400000095367,19304.900000095367,20646.900000095367,21796.400000095367,24698,27158.400000095367,28519.599999904633],"straightlining":0.36363636363636365,"zigzagging":0.2,"honeypot":0,"survey":"openness","trial_type":"survey-template","trial_index":4,"time_elapsed":153563,"internal_node_id":"0.0-4.0","experiment":"validation","task_version":"1.1","jspsych_version":"6.3.1","infrequency":0},{"value":[0,1.064935064935065,1.0333333333333332],"trial_type":"call-function","trial_index":5,"time_elapsed":153566,"internal_node_id":"0.0-5.0","experiment":"validation","task_version":"1.1","jspsych_version":"6.3.1","interactions":"[{\"event\":\"blur\",\"trial\":1,\"time\":24430},{\"event\":\"focus\",\"trial\":1,\"time\":25677}]"}]