[{"view_history":[{"page_index":0,"viewing_time":5036.5}],"rt":5037.099999964237,"trial_type":"instructions","trial_index":0,"time_elapsed":5041,"internal_node_id":"0.0-0.0","experiment":"validation","task_version":"1.1","jspsych_version":"6.3.1"},{"rt":30319.600000023842,"responses":{"age":"24","gender-categorical":"Female","gender-free-response":"","ethnicity":"Not Hispanic or Latino","race":["Asian","White"],"education":"Bachelor degree"},"survey":"demographics","trial_type":"survey-demo","trial_index":1,"time_elapsed":35361,"internal_node_id":"0.0-1.0","experiment":"validation","task_version":"1.1","jspsych_version":"6.3.1"},{"responses":{"Q02":"3","Q01":"3","Q06":"3","Q04":"3","Q07":"2","Q05":"3","Q03":"3"},"rt":164212.59999996424,"item_order":[1,0,5,3,6,4,2],"radio_events":[43345.19999998808,64311.39999997616,66967,111173.79999995232,115545.39999997616,119641.5,138943.09999996424,149154.89999997616],"key_events":[],"mouse_events":[43345.19999998808,64311.39999997616,66285.59999996424,66967,110611.69999998808,111173.79999995232,115545.39999997616,119641.5,138323.39999997616,138943.09999996424,148831.5,149154.89999997616,164211.59999996424],"straightlining":0.5714285714285714,"zigzagging":0.3333333333333333,"honeypot":0,"survey":"nfc6","trial_type":"survey-template","trial_index":2,"time_elapsed":199578,"internal_node_id":"0.0-2.0","experiment":"validation","task_version":"1.1","jspsych_version":"6.3.1","infrequency":0},{"responses":{"Q10":"4","Q08":"3","Q09":"4","Q11":"0","Q07":"4","Q02":"3","Q01":"4","Q06":"3","Q03":"4","Q04":"2","Q05":"0"},"rt":133506.90000003576,"item_order":[9,7,8,10,6,1,0,5,2,3,4],"radio_events":[74490.70000004768,77390.20000004768,81579.80000001192,85678.20000004768,88188.10000002384,91267.40000003576,111067.90000003576,115222,124123.80000001192,126320.60000002384,129609.5,131263.60000002384,132998.70000004768],"key_events":[],"mouse_events":[73773.70000004768,74490.70000004768,77390.20000004768,81579.80000001192,84820,85678.20000004768,88188.10000002384,91267.40000003576,111067.90000003576,114919.5,115222,124123.80000001192,126320.60000002384,129609.5,131263.60000002384,132402.70000004768,132998.70000004768,133505.80000001192],"straightlining":0.36363636363636365,"zigzagging":0.3,"honeypot":0,"survey":"openness","trial_type":"survey-template","trial_index":3,"time_elapsed":333088,"internal_node_id":"0.0-3.0","experiment":"validation","task_version":"1.1","jspsych_version":"6.3.1","infrequency":0},{"responses":{"Q04":"1","Q08":"1","Q02":"3","Q03":"1","Q01":"1","Q05":"1","Q09":"1","Q07":"1","Q10":"2","Q06":"3","Q11":"4"},"rt":35151.19999998808,"item_order":[3,7,1,2,0,4,8,6,9,5,10],"radio_events":[9350,10598.099999964237,11894.199999988079,14204,15229.699999988079,17912.399999976158,22033.799999952316,24018.19999998808,25696.299999952316,29262.19999998808,31910,34386.39999997616],"key_events":[],"mouse_events":[9350,10598.099999964237,11894.199999988079,14204,15229.699999988079,17369.799999952316,17912.399999976158,22033.799999952316,24018.19999998808,25696.299999952316,29262.19999998808,31323.799999952316,31910,34386.39999997616,35150.09999996424],"straightlining":0.45454545454545453,"zigzagging":0.2,"honeypot":0,"survey":"neuroticism","trial_type":"survey-template","trial_index":4,"time_elapsed":368242,"internal_node_id":"0.0-4.0","experiment":"validation","task_version":"1.1","jspsych_version":"6.3.1","infrequency":0},{"value":[0,1.3896103896103895,0.8333333333333333],"trial_type":"call-function","trial_index":5,"time_elapsed":368243,"internal_node_id":"0.0-5.0","experiment":"validation","task_version":"1.1","jspsych_version":"6.3.1","interactions":"[]"}]