[{"view_history":[{"page_index":0,"viewing_time":1767.5}],"rt":1767.8999999761581,"trial_type":"instructions","trial_index":0,"time_elapsed":1792,"internal_node_id":"0.0-0.0","experiment":"validation","task_version":"1.1","jspsych_version":"6.3.1"},{"rt":7487.700000047684,"responses":{"age":"33","gender-categorical":"Male","gender-free-response":"","ethnicity":"Not Hispanic or Latino","race":["White"],"education":"Bachelor degree"},"survey":"demographics","trial_type":"survey-demo","trial_index":1,"time_elapsed":9283,"internal_node_id":"0.0-1.0","experiment":"validation","task_version":"1.1","jspsych_version":"6.3.1"},{"responses":{"Q05":"1","Q08":"1","Q09":"2","Q10":"1","Q07":"0","Q01":"0","Q02":"1","Q11":"4","Q04":"0","Q06":"3","Q03":"0"},"rt":23429.300000071526,"item_order":[4,7,8,9,6,0,1,10,3,5,2],"radio_events":[4134.100000023842,5776,7316.300000071526,7979.800000071526,10692,14448.899999976158,15596.5,16969,18464.700000047684,19949.5,21255,22110.5,22808.100000023842],"key_events":[],"mouse_events":[4134.100000023842,5776,7316.300000071526,7979.800000071526,9004.700000047684,9420.100000023842,10692,12953,13694.399999976158,14448.899999976158,15596.5,16969,18464.700000047684,19949.5,21255,22110.5,22808.100000023842,23426.700000047684],"straightlining":0.2727272727272727,"zigzagging":0.8,"honeypot":0,"survey":"neuroticism","trial_type":"survey-template","trial_index":2,"time_elapsed":32720,"internal_node_id":"0.0-2.0","experiment":"validation","task_version":"1.1","jspsych_version":"6.3.1","infrequency":0},{"responses":{"Q08":"2","Q05":"1","Q06":"3","Q02":"3","Q04":"1","Q11":"0","Q01":"3","Q09":"1","Q07":"3","Q10":"4","Q03":"4"},"rt":19794.400000095367,"item_order":[7,4,5,1,3,10,0,8,6,9,2],"radio_events":[2681.100000023842,5246.200000047684,6236.5,7890.300000071526,9251.200000047684,11028.600000023842,13807.700000047684,14336.100000023842,16934.600000023842,17823.800000071526,18993.700000047684],"key_events":[],"mouse_events":[2681.100000023842,3705.4000000953674,5246.200000047684,6236.5,7890.300000071526,9251.200000047684,11028.600000023842,13807.700000047684,14336.100000023842,15933.900000095367,16934.600000023842,17823.800000071526,18993.700000047684,19792.300000071526],"straightlining":0.45454545454545453,"zigzagging":0.3,"honeypot":0,"survey":"openness","trial_type":"survey-template","trial_index":3,"time_elapsed":52520,"internal_node_id":"0.0-3.0","experiment":"validation","task_version":"1.1","jspsych_version":"6.3.1","infrequency":0},{"responses":{"Q06":"3","Q07":"2","Q01":"3","Q03":"3","Q04":"3","Q02":"3","Q05":"3"},"rt":25262.200000047684,"item_order":[5,6,0,2,3,1,4],"radio_events":[7328.700000047684,8172.600000023842,10906.399999976158,12897.5,18072.399999976158,21447,22774.600000023842,24675.700000047684],"key_events":[],"mouse_events":[7328.700000047684,8172.600000023842,10906.399999976158,12897.5,17442.299999952316,18072.399999976158,21064.700000047684,21447,22774.600000023842,24372.100000023842,24675.700000047684,25260.700000047684],"straightlining":0.5714285714285714,"zigzagging":0.3333333333333333,"honeypot":0,"survey":"nfc6","trial_type":"survey-template","trial_index":4,"time_elapsed":77786,"internal_node_id":"0.0-4.0","experiment":"validation","task_version":"1.1","jspsych_version":"6.3.1","infrequency":0},{"value":[0,1.2987012987012987,1.4333333333333333],"trial_type":"call-function","trial_index":5,"time_elapsed":77789,"internal_node_id":"0.0-5.0","experiment":"validation","task_version":"1.1","jspsych_version":"6.3.1","interactions":"[]"}]