[{"view_history":[{"page_index":0,"viewing_time":1801.5}],"rt":1801.6999999284744,"trial_type":"instructions","trial_index":0,"time_elapsed":1821,"internal_node_id":"0.0-0.0","experiment":"validation","task_version":"1.1","jspsych_version":"6.3.1"},{"rt":9783.5,"responses":{"age":"24","gender-categorical":"Female","gender-free-response":"","ethnicity":"Not Hispanic or Latino","race":["White"],"education":"Bachelor degree"},"survey":"demographics","trial_type":"survey-demo","trial_index":1,"time_elapsed":11610,"internal_node_id":"0.0-1.0","experiment":"validation","task_version":"1.1","jspsych_version":"6.3.1"},{"responses":{"Q05":"3","Q06":"2","Q02":"2","Q01":"1","Q03":"3","Q04":"1","Q07":"2"},"rt":24529.199999928474,"item_order":[4,5,1,0,2,3,6],"radio_events":[6216.099999904633,8953.899999976158,13514.699999928474,14641.599999904633,17064,19490.699999928474,23331.599999904633],"key_events":[],"mouse_events":[4279.199999928474,6216.099999904633,8953.899999976158,12632.299999952316,13514.699999928474,14641.599999904633,17064,19490.699999928474,23331.599999904633,24527.399999976158],"straightlining":0.42857142857142855,"zigzagging":0.5,"honeypot":0,"survey":"nfc6","trial_type":"survey-template","trial_index":2,"time_elapsed":36145,"internal_node_id":"0.0-2.0","experiment":"validation","task_version":"1.1","jspsych_version":"6.3.1","infrequency":0},{"responses":{"Q09":"3","Q05":"3","Q11":"4","Q10":"2","Q04":"3","Q03":"3","Q07":"3","Q06":"3","Q01":"3","Q02":"3","Q08":"3"},"rt":21023.599999904633,"item_order":[8,4,10,9,3,2,6,5,0,1,7],"radio_events":[4088.399999976158,5363.699999928474,6683,8303.299999952316,9731,11443.599999904633,14090.399999976158,15610.199999928474,16412.199999928474,17519.699999928474,18947.599999904633,20250.899999976158],"key_events":[],"mouse_events":[4088.399999976158,5363.699999928474,6683,8303.299999952316,9731,11443.599999904633,12919.799999952316,14090.399999976158,14640.099999904633,15610.199999928474,16412.199999928474,17519.699999928474,18947.599999904633,20250.899999976158,21021.099999904633],"straightlining":0.45454545454545453,"zigzagging":0.2,"honeypot":0,"survey":"neuroticism","trial_type":"survey-template","trial_index":3,"time_elapsed":57173,"internal_node_id":"0.0-3.0","experiment":"validation","task_version":"1.1","jspsych_version":"6.3.1","infrequency":0},{"responses":{"Q04":"1","Q06":"3","Q11":"0","Q10":"3","Q03":"3","Q09":"3","Q05":"1","Q01":"3","Q02":"3","Q07":"3","Q08":"2"},"rt":21963.5,"item_order":[3,5,10,9,2,8,4,0,1,6,7],"radio_events":[5516.899999976158,7734.600000023842,9715.5,10962.399999976158,12583.600000023842,14331.100000023842,16076.299999952316,17159.899999976158,18275.299999952316,19410.5,21271.200000047684],"key_events":[],"mouse_events":[5516.899999976158,7734.600000023842,9715.5,10962.399999976158,12583.600000023842,14331.100000023842,16076.299999952316,17159.899999976158,18275.299999952316,19410.5,21271.200000047684,21961.399999976158],"straightlining":0.45454545454545453,"zigzagging":0.3,"honeypot":0,"survey":"openness","trial_type":"survey-template","trial_index":4,"time_elapsed":79142,"internal_node_id":"0.0-4.0","experiment":"validation","task_version":"1.1","jspsych_version":"6.3.1","infrequency":0},{"value":[0,1.3376623376623376,1],"trial_type":"call-function","trial_index":5,"time_elapsed":79144,"internal_node_id":"0.0-5.0","experiment":"validation","task_version":"1.1","jspsych_version":"6.3.1","interactions":"[]"}]