[{"view_history":[{"page_index":0,"viewing_time":2910.400000002235}],"rt":2910.900000002235,"trial_type":"instructions","trial_index":0,"time_elapsed":2924,"internal_node_id":"0.0-0.0","experiment":"validation","task_version":"1.1","jspsych_version":"6.3.1"},{"rt":11932.70000000298,"responses":{"age":"44","gender-categorical":"Female","gender-free-response":"","ethnicity":"Not Hispanic or Latino","race":["White"],"education":"Some college"},"survey":"demographics","trial_type":"survey-demo","trial_index":1,"time_elapsed":14862,"internal_node_id":"0.0-1.0","experiment":"validation","task_version":"1.1","jspsych_version":"6.3.1"},{"responses":{"Q09":"0","Q10":"0","Q03":"0","Q06":"1","Q05":"0","Q04":"0","Q08":"0","Q07":"0","Q01":"0","Q02":"0","Q11":"4"},"rt":27749.800000000745,"item_order":[8,9,2,5,4,3,7,6,0,1,10],"radio_events":[7024.400000002235,8435.699999999255,10908.900000002235,13260.60000000149,15021.300000000745,16509.300000000745,18982.699999999255,21237.10000000149,23019.699999999255,24080.60000000149,26707.10000000149],"key_events":[],"mouse_events":[7024.400000002235,8435.699999999255,10908.900000002235,13260.60000000149,15021.300000000745,16509.300000000745,18982.699999999255,21237.10000000149,23019.699999999255,24080.60000000149,26707.10000000149,27747.10000000149],"straightlining":0.45454545454545453,"zigzagging":0.4,"honeypot":0,"survey":"neuroticism","trial_type":"survey-template","trial_index":2,"time_elapsed":42621,"internal_node_id":"0.0-2.0","experiment":"validation","task_version":"1.1","jspsych_version":"6.3.1","infrequency":0},{"responses":{"Q01":"3","Q06":"3","Q03":"4","Q04":"3","Q02":"4","Q05":"4","Q07":"2"},"rt":26775.10000000149,"item_order":[0,5,2,3,1,4,6],"radio_events":[6422.60000000149,9113.699999999255,13447.400000002235,17999,20755.400000002235,22858.400000002235,25471.400000002235],"key_events":[],"mouse_events":[6422.60000000149,9113.699999999255,13447.400000002235,17999,20755.400000002235,22858.400000002235,25471.400000002235,26773.400000002235],"straightlining":0.2857142857142857,"zigzagging":0.16666666666666666,"honeypot":0,"survey":"nfc6","trial_type":"survey-template","trial_index":3,"time_elapsed":69403,"internal_node_id":"0.0-3.0","experiment":"validation","task_version":"1.1","jspsych_version":"6.3.1","infrequency":0},{"responses":{"Q08":"4","Q01":"2","Q07":"2","Q05":"0","Q09":"4","Q03":"4","Q11":"0","Q06":"3","Q10":"4","Q02":"3","Q04":"1"},"rt":30862.699999999255,"item_order":[7,0,6,4,8,2,10,5,9,1,3],"radio_events":[5943.800000000745,7388.89999999851,9326.39999999851,11995.89999999851,14337.5,16538,19262.5,24120.39999999851,26199.800000000745,28169,29930.300000000745],"key_events":[],"mouse_events":[5943.800000000745,7388.89999999851,9326.39999999851,11995.89999999851,14337.5,16538,19262.5,24120.39999999851,26199.800000000745,28169,29930.300000000745,30860.5],"straightlining":0.36363636363636365,"zigzagging":0.5,"honeypot":0,"survey":"openness","trial_type":"survey-template","trial_index":4,"time_elapsed":100272,"internal_node_id":"0.0-4.0","experiment":"validation","task_version":"1.1","jspsych_version":"6.3.1","infrequency":0},{"value":[0,1.103896103896104,1.0666666666666667],"trial_type":"call-function","trial_index":5,"time_elapsed":100276,"internal_node_id":"0.0-5.0","experiment":"validation","task_version":"1.1","jspsych_version":"6.3.1","interactions":"[]"}]