[{"view_history":[{"page_index":0,"viewing_time":2305}],"rt":2305.4000000059605,"trial_type":"instructions","trial_index":0,"time_elapsed":2322,"internal_node_id":"0.0-0.0","experiment":"validation","task_version":"1.1","jspsych_version":"6.3.1"},{"rt":9690.29999999702,"responses":{"age":"28","gender-categorical":"Female","gender-free-response":"","ethnicity":"Not Hispanic or Latino","race":["White"],"education":"Master degree or higher"},"survey":"demographics","trial_type":"survey-demo","trial_index":1,"time_elapsed":12015,"internal_node_id":"0.0-1.0","experiment":"validation","task_version":"1.1","jspsych_version":"6.3.1"},{"responses":{"Q04":"1","Q08":"3","Q01":"4","Q07":"4","Q09":"3","Q06":"1","Q03":"4","Q02":"3","Q05":"1","Q10":"4","Q11":"0"},"rt":30425.90000000596,"item_order":[3,7,0,6,8,5,2,1,4,9,10],"radio_events":[6506.4000000059605,9819.20000000298,10790.29999999702,12618.5,16381,20719.79999999702,22156.90000000596,24099.20000000298,25437.29999999702,27821.5,29294.59999999404],"key_events":[],"mouse_events":[6506.4000000059605,8160.5999999940395,9076.90000000596,9819.20000000298,10790.29999999702,12618.5,15524.29999999702,16381,19657.90000000596,20719.79999999702,22156.90000000596,24099.20000000298,25437.29999999702,27821.5,29294.59999999404,30423.29999999702],"straightlining":0.36363636363636365,"zigzagging":0.4,"honeypot":0,"survey":"openness","trial_type":"survey-template","trial_index":2,"time_elapsed":42444,"internal_node_id":"0.0-2.0","experiment":"validation","task_version":"1.1","jspsych_version":"6.3.1","infrequency":0},{"responses":{"Q06":"3","Q01":"1","Q11":"4","Q08":"0","Q03":"1","Q09":"1","Q07":"1","Q04":"0","Q10":"0","Q05":"1","Q02":"0"},"rt":37137.5,"item_order":[5,0,10,7,2,8,6,3,9,4,1],"radio_events":[20347.59999999404,21602.79999999702,23052.09999999404,24773.5,25721.20000000298,28409.89999999106,29697.70000000298,32748.59999999404,33932.70000000298,34976,36283.09999999404],"key_events":[],"mouse_events":[20347.59999999404,21602.79999999702,23052.09999999404,24773.5,25721.20000000298,28409.89999999106,29697.70000000298,32748.59999999404,33932.70000000298,34976,36283.09999999404,37135.20000000298],"straightlining":0.36363636363636365,"zigzagging":0.2,"honeypot":0,"survey":"neuroticism","trial_type":"survey-template","trial_index":3,"time_elapsed":79584,"internal_node_id":"0.0-3.0","experiment":"validation","task_version":"1.1","jspsych_version":"6.3.1","infrequency":0},{"responses":{"Q04":"1","Q06":"2","Q05":"3","Q07":"2","Q03":"3","Q02":"3","Q01":"2"},"rt":30431.40000000596,"item_order":[3,5,4,6,2,1,0],"radio_events":[8087.20000000298,12797.20000000298,14329.20000000298,18383.79999999702,21641.20000000298,24444.29999999702,28775.59999999404],"key_events":[],"mouse_events":[4806.0999999940395,8087.20000000298,10795.59999999404,11451.09999999404,12173.59999999404,12797.20000000298,14329.20000000298,18383.79999999702,21641.20000000298,23591.5,24444.29999999702,25379.20000000298,28775.59999999404,30429.79999999702],"straightlining":0.42857142857142855,"zigzagging":0.8333333333333334,"honeypot":0,"survey":"nfc6","trial_type":"survey-template","trial_index":4,"time_elapsed":110017,"internal_node_id":"0.0-4.0","experiment":"validation","task_version":"1.1","jspsych_version":"6.3.1","infrequency":0},{"value":[0,1.155844155844156,1.4333333333333336],"trial_type":"call-function","trial_index":5,"time_elapsed":110019,"internal_node_id":"0.0-5.0","experiment":"validation","task_version":"1.1","jspsych_version":"6.3.1","interactions":"[]"}]