[{"view_history":[{"page_index":0,"viewing_time":1932.5999999046326}],"rt":1934.8999998569489,"trial_type":"instructions","trial_index":0,"time_elapsed":1973,"internal_node_id":"0.0-0.0","experiment":"validation","task_version":"1.1","jspsych_version":"6.3.1"},{"rt":19687.39999985695,"responses":{"age":"25","gender-categorical":"Female","gender-free-response":"","ethnicity":"Hispanic or Latino","race":["Rather not say"],"education":"Some college"},"survey":"demographics","trial_type":"survey-demo","trial_index":1,"time_elapsed":21671,"internal_node_id":"0.0-1.0","experiment":"validation","task_version":"1.1","jspsych_version":"6.3.1"},{"responses":{"Q08":"4","Q04":"0","Q03":"4","Q07":"4","Q02":"2","Q09":"4","Q06":"4","Q10":"4","Q05":"0","Q01":"4","Q11":"0"},"rt":33458.699999809265,"item_order":[7,3,2,6,1,8,5,9,4,0,10],"radio_events":[5896,7775.699999809265,11982.199999809265,14516.399999856949,16595.799999952316,19140.39999985695,20841.5,22453.299999952316,23932.599999904633,29087.299999952316,30789.099999904633],"key_events":[],"mouse_events":[4286.299999952316,5896,7775.699999809265,11982.199999809265,14516.399999856949,16595.799999952316,19140.39999985695,20841.5,22453.299999952316,23932.599999904633,25122.199999809265,28135,29087.299999952316,30789.099999904633,33453.699999809265],"straightlining":0.5454545454545454,"zigzagging":0.4,"honeypot":0,"survey":"openness","trial_type":"survey-template","trial_index":2,"time_elapsed":55143,"internal_node_id":"0.0-2.0","experiment":"validation","task_version":"1.1","jspsych_version":"6.3.1","infrequency":0},{"responses":{"Q09":"1","Q01":"3","Q04":"1","Q08":"1","Q10":"1","Q11":"4","Q03":"1","Q05":"3","Q07":"3","Q06":"4","Q02":"1"},"rt":49672,"item_order":[8,0,3,7,9,10,2,4,6,5,1],"radio_events":[5565.200000047684,8992.900000095367,10102.400000095367,15228.700000047684,18120.10000014305,20849.800000190735,22659.60000014305,23929.400000095367,25872.800000190735,30692,36498.60000014305,44749.60000014305,47363],"key_events":[],"mouse_events":[5565.200000047684,8992.900000095367,10102.400000095367,14249.600000143051,15228.700000047684,18120.10000014305,20849.800000190735,22659.60000014305,23929.400000095367,25872.800000190735,30692,36498.60000014305,44749.60000014305,47363,49668.10000014305],"straightlining":0.45454545454545453,"zigzagging":0.3,"honeypot":0,"survey":"neuroticism","trial_type":"survey-template","trial_index":3,"time_elapsed":104825,"internal_node_id":"0.0-3.0","experiment":"validation","task_version":"1.1","jspsych_version":"6.3.1","infrequency":0},{"responses":{"Q04":"1","Q05":"1","Q07":"2","Q02":"1","Q01":"1","Q03":"1","Q06":"3"},"rt":45608.40000009537,"item_order":[3,4,6,1,0,2,5],"radio_events":[7609.700000047684,12575.799999952316,15691.299999952316,22039.799999952316,27417.299999952316,33627.299999952316,42853.40000009537],"key_events":[],"mouse_events":[7609.700000047684,12575.799999952316,15691.299999952316,22039.799999952316,27417.299999952316,33627.299999952316,42853.40000009537,45605.90000009537],"straightlining":0.42857142857142855,"zigzagging":0.3333333333333333,"honeypot":0,"survey":"nfc6","trial_type":"survey-template","trial_index":4,"time_elapsed":150443,"internal_node_id":"0.0-4.0","experiment":"validation","task_version":"1.1","jspsych_version":"6.3.1","infrequency":0},{"value":[0,1.4285714285714286,1.0333333333333332],"trial_type":"call-function","trial_index":5,"time_elapsed":150448,"internal_node_id":"0.0-5.0","experiment":"validation","task_version":"1.1","jspsych_version":"6.3.1","interactions":"[{\"event\":\"blur\",\"trial\":3,\"time\":68814},{\"event\":\"focus\",\"trial\":3,\"time\":69273}]"}]