[{"success":true,"timeout":false,"failed_images":[],"failed_audio":[],"failed_video":[],"trial_type":"preload","trial_index":0,"time_elapsed":4769,"internal_node_id":"0.0-0.0","experiment":"validation","task_version":"2.0","jspsych_version":"6.3.1"},{"success":true,"trial_type":"fullscreen","trial_index":1,"time_elapsed":7104,"internal_node_id":"0.0-1.0","experiment":"validation","task_version":"2.0","jspsych_version":"6.3.1"},{"view_history":[{"page_index":0,"viewing_time":7381.70000000298},{"page_index":1,"viewing_time":2767.7000000029802}],"rt":10150.70000000298,"trial_type":"instructions","trial_index":2,"time_elapsed":17256,"internal_node_id":"0.0-2.0","experiment":"validation","task_version":"2.0","jspsych_version":"6.3.1"},{"min_width":700,"min_height":600,"inner_width":1366,"inner_height":768,"trial_type":"screen-check","trial_index":3,"time_elapsed":17257,"internal_node_id":"0.0-3.0-0.0-0.0","experiment":"validation","task_version":"2.0","jspsych_version":"6.3.1"},{"rt":null,"stimulus":"<div style=\"font-size:24px;\">Loading puzzle:<br>1 / 9</div>","response":null,"trial_type":"html-keyboard-response","trial_index":4,"time_elapsed":18466,"internal_node_id":"0.0-3.0-0.0-1.0","experiment":"validation","task_version":"2.0","jspsych_version":"6.3.1"},{"stimulus":"../static/img/rpm/a11.png","choice_order":[3,4,2,1,5,0],"correct":4,"choice":4,"accuracy":1,"rt":7248.4000000059605,"screen_resolution":[1366,768],"minimum_resolution":1,"all_loaded":true,"test_form":"a","trial_type":"rpm","trial_index":5,"time_elapsed":25719,"internal_node_id":"0.0-3.0-0.0-2.0","experiment":"validation","task_version":"2.0","jspsych_version":"6.3.1"},{"min_width":700,"min_height":600,"inner_width":1366,"inner_height":768,"trial_type":"screen-check","trial_index":6,"time_elapsed":25721,"internal_node_id":"0.0-3.0-0.0-0.1","experiment":"validation","task_version":"2.0","jspsych_version":"6.3.1"},{"rt":null,"stimulus":"<div style=\"font-size:24px;\">Loading puzzle:<br>2 / 9</div>","response":null,"trial_type":"html-keyboard-response","trial_index":7,"time_elapsed":26926,"internal_node_id":"0.0-3.0-0.0-1.1","experiment":"validation","task_version":"2.0","jspsych_version":"6.3.1"},{"stimulus":"../static/img/rpm/a24.png","choice_order":[1,5,0,3,2,4],"correct":4,"choice":5,"accuracy":0,"rt":10693.800000011921,"screen_resolution":[1366,768],"minimum_resolution":1,"all_loaded":true,"test_form":"a","trial_type":"rpm","trial_index":8,"time_elapsed":37623,"internal_node_id":"0.0-3.0-0.0-2.1","experiment":"validation","task_version":"2.0","jspsych_version":"6.3.1"},{"min_width":700,"min_height":600,"inner_width":1366,"inner_height":768,"trial_type":"screen-check","trial_index":9,"time_elapsed":37624,"internal_node_id":"0.0-3.0-0.0-0.2","experiment":"validation","task_version":"2.0","jspsych_version":"6.3.1"},{"rt":null,"stimulus":"<div style=\"font-size:24px;\">Loading puzzle:<br>3 / 9</div>","response":null,"trial_type":"html-keyboard-response","trial_index":10,"time_elapsed":38825,"internal_node_id":"0.0-3.0-0.0-1.2","experiment":"validation","task_version":"2.0","jspsych_version":"6.3.1"},{"stimulus":"../static/img/rpm/a28.png","choice_order":[3,0,4,5,2,6,1,7],"correct":7,"choice":7,"accuracy":1,"rt":5753.20000000298,"screen_resolution":[1366,768],"minimum_resolution":1,"all_loaded":true,"test_form":"a","trial_type":"rpm","trial_index":11,"time_elapsed":44583,"internal_node_id":"0.0-3.0-0.0-2.2","experiment":"validation","task_version":"2.0","jspsych_version":"6.3.1"},{"min_width":700,"min_height":600,"inner_width":1366,"inner_height":768,"trial_type":"screen-check","trial_index":12,"time_elapsed":44584,"internal_node_id":"0.0-3.0-0.0-0.3","experiment":"validation","task_version":"2.0","jspsych_version":"6.3.1"},{"rt":null,"stimulus":"<div style=\"font-size:24px;\">Loading puzzle:<br>4 / 9</div>","response":null,"trial_type":"html-keyboard-response","trial_index":13,"time_elapsed":45785,"internal_node_id":"0.0-3.0-0.0-1.3","experiment":"validation","task_version":"2.0","jspsych_version":"6.3.1"},{"stimulus":"../static/img/rpm/a36.png","choice_order":[4,1,6,3,7,5,2,0],"correct":1,"choice":1,"accuracy":1,"rt":4721.300000011921,"screen_resolution":[1366,768],"minimum_resolution":1,"all_loaded":true,"test_form":"a","trial_type":"rpm","trial_index":14,"time_elapsed":50511,"internal_node_id":"0.0-3.0-0.0-2.3","experiment":"validation","task_version":"2.0","jspsych_version":"6.3.1"},{"min_width":700,"min_height":600,"inner_width":1366,"inner_height":768,"trial_type":"screen-check","trial_index":15,"time_elapsed":50512,"internal_node_id":"0.0-3.0-0.0-0.4","experiment":"validation","task_version":"2.0","jspsych_version":"6.3.1"},{"rt":null,"stimulus":"<div style=\"font-size:24px;\">Loading puzzle:<br>5 / 9</div>","response":null,"trial_type":"html-keyboard-response","trial_index":16,"time_elapsed":51713,"internal_node_id":"0.0-3.0-0.0-1.4","experiment":"validation","task_version":"2.0","jspsych_version":"6.3.1"},{"stimulus":"../static/img/rpm/a43.png","choice_order":[1,0,7,6,2,3,4,5],"correct":4,"choice":4,"accuracy":1,"rt":5273.600000008941,"screen_resolution":[1366,768],"minimum_resolution":1,"all_loaded":true,"test_form":"a","trial_type":"rpm","trial_index":17,"time_elapsed":56991,"internal_node_id":"0.0-3.0-0.0-2.4","experiment":"validation","task_version":"2.0","jspsych_version":"6.3.1"},{"min_width":700,"min_height":600,"inner_width":1366,"inner_height":768,"trial_type":"screen-check","trial_index":18,"time_elapsed":56992,"internal_node_id":"0.0-3.0-0.0-0.5","experiment":"validation","task_version":"2.0","jspsych_version":"6.3.1"},{"rt":null,"stimulus":"<div style=\"font-size:24px;\">Loading puzzle:<br>6 / 9</div>","response":null,"trial_type":"html-keyboard-response","trial_index":19,"time_elapsed":58193,"internal_node_id":"0.0-3.0-0.0-1.5","experiment":"validation","task_version":"2.0","jspsych_version":"6.3.1"},{"stimulus":"../static/img/rpm/a48.png","choice_order":[2,1,0,5,7,4,6,3],"correct":5,"choice":7,"accuracy":0,"rt":8401.29999999702,"screen_resolution":[1366,768],"minimum_resolution":1,"all_loaded":true,"test_form":"a","trial_type":"rpm","trial_index":20,"time_elapsed":66599,"internal_node_id":"0.0-3.0-0.0-2.5","experiment":"validation","task_version":"2.0","jspsych_version":"6.3.1"},{"min_width":700,"min_height":600,"inner_width":1366,"inner_height":768,"trial_type":"screen-check","trial_index":21,"time_elapsed":66599,"internal_node_id":"0.0-3.0-0.0-0.6","experiment":"validation","task_version":"2.0","jspsych_version":"6.3.1"},{"rt":null,"stimulus":"<div style=\"font-size:24px;\">Loading puzzle:<br>7 / 9</div>","response":null,"trial_type":"html-keyboard-response","trial_index":22,"time_elapsed":67799,"internal_node_id":"0.0-3.0-0.0-1.6","experiment":"validation","task_version":"2.0","jspsych_version":"6.3.1"},{"stimulus":"../static/img/rpm/a49.png","choice_order":[4,1,3,2,7,0,5,6],"correct":6,"choice":0,"accuracy":0,"rt":8026.79999999702,"screen_resolution":[1366,768],"minimum_resolution":1,"all_loaded":true,"test_form":"a","trial_type":"rpm","trial_index":23,"time_elapsed":75831,"internal_node_id":"0.0-3.0-0.0-2.6","experiment":"validation","task_version":"2.0","jspsych_version":"6.3.1"},{"min_width":700,"min_height":600,"inner_width":1366,"inner_height":768,"trial_type":"screen-check","trial_index":24,"time_elapsed":75831,"internal_node_id":"0.0-3.0-0.0-0.7","experiment":"validation","task_version":"2.0","jspsych_version":"6.3.1"},{"rt":null,"stimulus":"<div style=\"font-size:24px;\">Loading puzzle:<br>8 / 9</div>","response":null,"trial_type":"html-keyboard-response","trial_index":25,"time_elapsed":77033,"internal_node_id":"0.0-3.0-0.0-1.7","experiment":"validation","task_version":"2.0","jspsych_version":"6.3.1"},{"stimulus":"../static/img/rpm/a53.png","choice_order":[4,7,5,3,6,0,2,1],"correct":0,"choice":6,"accuracy":0,"rt":4896.399999991059,"screen_resolution":[1366,768],"minimum_resolution":1,"all_loaded":true,"test_form":"a","trial_type":"rpm","trial_index":26,"time_elapsed":81935,"internal_node_id":"0.0-3.0-0.0-2.7","experiment":"validation","task_version":"2.0","jspsych_version":"6.3.1"},{"min_width":700,"min_height":600,"inner_width":1366,"inner_height":768,"trial_type":"screen-check","trial_index":27,"time_elapsed":81935,"internal_node_id":"0.0-3.0-0.0-0.8","experiment":"validation","task_version":"2.0","jspsych_version":"6.3.1"},{"rt":null,"stimulus":"<div style=\"font-size:24px;\">Loading puzzle:<br>9 / 9</div>","response":null,"trial_type":"html-keyboard-response","trial_index":28,"time_elapsed":83136,"internal_node_id":"0.0-3.0-0.0-1.8","experiment":"validation","task_version":"2.0","jspsych_version":"6.3.1"},{"stimulus":"../static/img/rpm/a55.png","choice_order":[3,0,2,7,6,1,4,5],"correct":1,"choice":0,"accuracy":0,"rt":6113.5999999940395,"screen_resolution":[1366,768],"minimum_resolution":1,"all_loaded":true,"test_form":"a","trial_type":"rpm","trial_index":29,"time_elapsed":89255,"internal_node_id":"0.0-3.0-0.0-2.8","experiment":"validation","task_version":"2.0","jspsych_version":"6.3.1"},{"value":{"rpm_raw":4,"rpm_err":5,"rpm_adj":39.073251362225086,"rpm_rt":61128.40000002086},"trial_type":"call-function","trial_index":30,"time_elapsed":89256,"internal_node_id":"0.0-3.0-1.0","experiment":"validation","task_version":"2.0","jspsych_version":"6.3.1"},{"view_history":[{"page_index":0,"viewing_time":1014}],"rt":1014.2999999970198,"trial_type":"instructions","trial_index":31,"time_elapsed":90271,"internal_node_id":"0.0-4.0","experiment":"validation","task_version":"2.0","jspsych_version":"6.3.1","interactions":"[{\"event\":\"fullscreenenter\",\"trial\":1,\"time\":6145}]"}]