[{"view_history":[{"page_index":0,"viewing_time":43128}],"rt":43133.20000000298,"trial_type":"instructions","trial_index":0,"time_elapsed":43184,"internal_node_id":"0.0-0.0","experiment":"validation","task_version":"1.1","jspsych_version":"6.3.1"},{"rt":14364.39999999851,"responses":{"age":"21","gender-categorical":"Male","gender-free-response":"","ethnicity":"Hispanic or Latino","race":["Black or African American"],"education":"Some college"},"survey":"demographics","trial_type":"survey-demo","trial_index":1,"time_elapsed":57561,"internal_node_id":"0.0-1.0","experiment":"validation","task_version":"1.1","jspsych_version":"6.3.1"},{"responses":{"Q01":"3","Q06":"3","Q05":"3","Q04":"1","Q07":"2","Q03":"4","Q02":"3"},"rt":35590.20000000298,"item_order":[0,5,4,3,6,2,1],"radio_events":[18115.70000000298,19880.70000000298,24666.39999999851,27731.89999999851,29154.70000000298,31484.5,32922.80000000447,34712.10000000149],"key_events":[],"mouse_events":[16941.70000000298,18115.70000000298,19880.70000000298,21223.60000000149,22644.30000000447,24666.39999999851,25667.20000000298,26575.30000000447,27731.89999999851,29154.70000000298,31484.5,32922.80000000447,34712.10000000149,35586.60000000149],"straightlining":0.7142857142857143,"zigzagging":0.16666666666666666,"honeypot":0,"survey":"nfc6","trial_type":"survey-template","trial_index":2,"time_elapsed":93162,"internal_node_id":"0.0-2.0","experiment":"validation","task_version":"1.1","jspsych_version":"6.3.1","infrequency":0},{"responses":{"Q09":"3","Q05":"1","Q02":"1","Q08":"1","Q03":"1","Q04":"2","Q01":"2","Q06":"1","Q10":"2","Q11":"4","Q07":"2"},"rt":47895.60000000149,"item_order":[8,4,1,7,2,3,0,5,9,10,6],"radio_events":[4150.5,5783.5,12406.20000000298,20681.89999999851,27395.30000000447,29240.5,31091.60000000149,34134.10000000149,37090.20000000298,39797.89999999851,46274.5],"key_events":[],"mouse_events":[4150.5,5783.5,10686.39999999851,12406.20000000298,18426.39999999851,20681.89999999851,23467,26230.70000000298,27395.30000000447,29240.5,31091.60000000149,34134.10000000149,37090.20000000298,39797.89999999851,45110.10000000149,46274.5,47891.89999999851],"straightlining":0.36363636363636365,"zigzagging":0.3,"honeypot":0,"survey":"neuroticism","trial_type":"survey-template","trial_index":3,"time_elapsed":141071,"internal_node_id":"0.0-3.0","experiment":"validation","task_version":"1.1","jspsych_version":"6.3.1","infrequency":0},{"responses":{"Q09":"4","Q07":"4","Q06":"4","Q03":"0","Q02":"0","Q11":"4","Q05":"0","Q04":"0","Q08":"3","Q10":"3","Q01":"4"},"rt":36120.69999999553,"item_order":[8,6,5,2,1,10,4,3,7,9,0],"radio_events":[4351.5,5656.19999999553,6587,7509.89999999851,9355.69999999553,19344.39999999851,22319.39999999851,27397.79999999702,32673.29999999702,33539.10000000149,35275.79999999702],"key_events":[],"mouse_events":[3318.60000000149,4351.5,5656.19999999553,6587,7509.89999999851,8508.29999999702,9355.69999999553,17153.19999999553,19344.39999999851,20420.79999999702,21398.89999999851,22319.39999999851,23529.60000000149,27397.79999999702,28800.89999999851,32673.29999999702,33539.10000000149,35275.79999999702,36116.39999999851],"straightlining":0.45454545454545453,"zigzagging":0.1,"honeypot":0,"survey":"openness","trial_type":"survey-template","trial_index":4,"time_elapsed":177193,"internal_node_id":"0.0-4.0","experiment":"validation","task_version":"1.1","jspsych_version":"6.3.1","infrequency":1},{"value":[1,1.5324675324675325,0.5666666666666667],"trial_type":"call-function","trial_index":5,"time_elapsed":177198,"internal_node_id":"0.0-5.0","experiment":"validation","task_version":"1.1","jspsych_version":"6.3.1","interactions":"[]"}]