[{"view_history":[{"page_index":0,"viewing_time":3345.199999988079}],"rt":3345.5,"trial_type":"instructions","trial_index":0,"time_elapsed":3350,"internal_node_id":"0.0-0.0","experiment":"validation","task_version":"2.0","jspsych_version":"6.3.1"},{"rt":11275.700000017881,"responses":{"age":"33","gender-categorical":"Male","gender-free-response":"","ethnicity":"Not Hispanic or Latino","race":["Black or African American"],"education":"Bachelor degree"},"survey":"demographics","trial_type":"survey-demo","trial_index":1,"time_elapsed":14628,"internal_node_id":"0.0-1.0","experiment":"validation","task_version":"2.0","jspsych_version":"6.3.1"},{"rt":33674.39999997616,"response":{"Q8":0,"Q1":4,"Q5":4,"Q3":5,"Q7":5,"Q2":4,"Q6":1,"Q0":4,"Q4":4},"question_order":[8,1,5,3,7,2,6,0,4],"survey":"sns","trial_type":"survey-likert","trial_index":2,"time_elapsed":48309,"internal_node_id":"0.0-2.0","experiment":"validation","task_version":"2.0","jspsych_version":"6.3.1","infrequency":0},{"responses":{"Q03":"3","Q06":"2","Q04":"3","Q05":"3","Q08":"3","Q11":"0","Q01":"1","Q09":"3","Q02":"3","Q10":"3","Q07":"3"},"rt":69702.69999998808,"item_order":[2,5,3,4,7,10,0,8,1,9,6],"radio_events":[9451.699999988079,14911.699999988079,18825.09999999404,20782.09999999404,24802.69999998808,32284.90000000596,39467.09999999404,42839,46634.19999998808,51188.40000000596,55440.19999998808,67807.69999998808],"key_events":[],"mouse_events":[9451.699999988079,14110.90000000596,14911.699999988079,18825.09999999404,20038.5,20782.09999999404,24026.29999998212,24802.69999998808,28611.19999998808,32284.90000000596,39467.09999999404,42839,46634.19999998808,49860.09999999404,51188.40000000596,55440.19999998808,57487.79999998212,65778.40000000596,67807.69999998808,69700.59999999404],"straightlining":0.45454545454545453,"zigzagging":0.3,"honeypot":0,"survey":"nfc10","trial_type":"survey-template","trial_index":3,"time_elapsed":118018,"internal_node_id":"0.0-3.0","experiment":"validation","task_version":"2.0","jspsych_version":"6.3.1","infrequency":0},{"responses":{"Q03":"3","Q08":"3","Q04":"2","Q05":"2","Q07":"2","Q06":"3","Q09":"4","Q02":"2","Q01":"2"},"rt":37317.90000000596,"item_order":[2,7,3,4,6,5,8,1,0],"radio_events":[12426.90000000596,17432.59999999404,18184.70000001788,19932.20000001788,26928.80000001192,28757.20000001788,31580.20000001788,35075.80000001192,35642.09999999404],"key_events":[],"mouse_events":[12426.90000000596,15055.200000017881,17432.59999999404,18184.70000001788,19333.40000000596,19932.20000001788,21420.30000001192,22358.40000000596,23531.40000000596,24267.80000001192,26160.40000000596,26928.80000001192,28757.20000001788,31580.20000001788,33367.59999999404,35075.80000001192,35642.09999999404,37316.30000001192],"straightlining":0.5555555555555556,"zigzagging":0.25,"honeypot":0,"survey":"pcf","trial_type":"survey-template","trial_index":4,"time_elapsed":155339,"internal_node_id":"0.0-4.0","experiment":"validation","task_version":"2.0","jspsych_version":"6.3.1","infrequency":0},{"value":0,"trial_type":"call-function","trial_index":5,"time_elapsed":155341,"internal_node_id":"0.0-5.0","experiment":"validation","task_version":"2.0","jspsych_version":"6.3.1","interactions":"[]"}]