[{"view_history":[{"page_index":0,"viewing_time":2319.300000011921}],"rt":2319.699999988079,"trial_type":"instructions","trial_index":0,"time_elapsed":2330,"internal_node_id":"0.0-0.0","experiment":"validation","task_version":"1.1","jspsych_version":"6.3.1"},{"rt":12918.900000035763,"responses":{"age":"23","gender-categorical":"Female","gender-free-response":"","ethnicity":"Not Hispanic or Latino","race":["White"],"education":"Bachelor degree"},"survey":"demographics","trial_type":"survey-demo","trial_index":1,"time_elapsed":15252,"internal_node_id":"0.0-1.0","experiment":"validation","task_version":"1.1","jspsych_version":"6.3.1"},{"responses":{"Q05":"3","Q10":"0","Q09":"1","Q07":"1","Q02":"1","Q11":"4","Q03":"0","Q06":"3","Q01":"1","Q04":"0","Q08":"1"},"rt":46456.700000047684,"item_order":[4,9,8,6,1,10,2,5,0,3,7],"radio_events":[9125.700000047684,13701.300000011921,16439.900000035763,19728.100000023842,21064.100000023842,27580.200000047684,29971.900000035763,35693.200000047684,38818.60000002384,41214.60000002384,45447.700000047684],"key_events":[],"mouse_events":[9125.700000047684,13701.300000011921,16439.900000035763,19728.100000023842,21064.100000023842,23823.100000023842,27580.200000047684,29002.200000047684,29971.900000035763,35693.200000047684,38818.60000002384,41214.60000002384,42619.80000001192,45447.700000047684,46454.80000001192],"straightlining":0.36363636363636365,"zigzagging":0.5,"honeypot":0,"survey":"neuroticism","trial_type":"survey-template","trial_index":2,"time_elapsed":61719,"internal_node_id":"0.0-2.0","experiment":"validation","task_version":"1.1","jspsych_version":"6.3.1","infrequency":0},{"responses":{"Q06":"4","Q08":"4","Q03":"4","Q09":"4","Q04":"0","Q07":"2","Q10":"4","Q02":"2","Q01":"4","Q11":"0","Q05":"0"},"rt":42211,"item_order":[5,7,2,8,3,6,9,1,0,10,4],"radio_events":[11645.099999964237,14883.800000011921,16399.80000001192,21570.399999976158,23351.599999964237,26382.899999976158,27368.69999998808,30095,33815.19999998808,37437.69999998808,38977.69999998808,40859.89999997616],"key_events":[],"mouse_events":[11645.099999964237,13291.300000011921,14883.800000011921,16399.80000001192,20715.399999976158,21570.399999976158,23351.599999964237,25054.69999998808,26382.899999976158,27368.69999998808,30095,33815.19999998808,36292.30000001192,37437.69999998808,38977.69999998808,40859.89999997616,42209.39999997616],"straightlining":0.45454545454545453,"zigzagging":0.5,"honeypot":0,"survey":"openness","trial_type":"survey-template","trial_index":3,"time_elapsed":103938,"internal_node_id":"0.0-3.0","experiment":"validation","task_version":"1.1","jspsych_version":"6.3.1","infrequency":0},{"responses":{"Q06":"3","Q01":"1","Q04":"3","Q05":"4","Q03":"4","Q07":"2","Q02":"4"},"rt":66426.5,"item_order":[5,0,3,4,2,6,1],"radio_events":[16246.800000011921,21294.900000035763,28115.900000035763,45433.19999998808,46896.19999998808,52217.10000002384,65488.19999998808],"key_events":[],"mouse_events":[16246.800000011921,21294.900000035763,28115.900000035763,44202.90000003576,45433.19999998808,46896.19999998808,52217.10000002384,64665.19999998808,65488.19999998808,66425.10000002384],"straightlining":0.2857142857142857,"zigzagging":0.16666666666666666,"honeypot":0,"survey":"nfc6","trial_type":"survey-template","trial_index":4,"time_elapsed":170372,"internal_node_id":"0.0-4.0","experiment":"validation","task_version":"1.1","jspsych_version":"6.3.1","infrequency":0},{"value":[0,1.103896103896104,1.1666666666666667],"trial_type":"call-function","trial_index":5,"time_elapsed":170377,"internal_node_id":"0.0-5.0","experiment":"validation","task_version":"1.1","jspsych_version":"6.3.1","interactions":"[]"}]