[{"view_history":[{"page_index":0,"viewing_time":2293.6999999284744}],"rt":2294,"trial_type":"instructions","trial_index":0,"time_elapsed":2315,"internal_node_id":"0.0-0.0","experiment":"validation","task_version":"1.1","jspsych_version":"6.3.1"},{"rt":23928.100000023842,"responses":{"age":"57","gender-categorical":"Male","gender-free-response":"","ethnicity":"Not Hispanic or Latino","race":["White"],"education":"Master degree or higher"},"survey":"demographics","trial_type":"survey-demo","trial_index":1,"time_elapsed":26246,"internal_node_id":"0.0-1.0","experiment":"validation","task_version":"1.1","jspsych_version":"6.3.1"},{"responses":{"Q08":"4","Q11":"0","Q10":"4","Q01":"4","Q09":"4","Q03":"4","Q06":"4","Q02":"1","Q07":"4","Q05":"0","Q04":"0"},"rt":72107.29999995232,"item_order":[7,10,9,0,8,2,5,1,6,4,3],"radio_events":[12431.399999976158,16258.299999952316,20456.299999952316,24631.699999928474,28219.599999904633,32250.199999928474,40696.299999952316,44223.299999952316,48002.299999952316,52693.299999952316,69142.19999992847],"key_events":[],"mouse_events":[12431.399999976158,16258.299999952316,20456.299999952316,24631.699999928474,28219.599999904633,32250.199999928474,40696.299999952316,44223.299999952316,48002.299999952316,52693.299999952316,69142.19999992847,72105.39999997616],"straightlining":0.5454545454545454,"zigzagging":0.7,"honeypot":0,"survey":"openness","trial_type":"survey-template","trial_index":2,"time_elapsed":98362,"internal_node_id":"0.0-2.0","experiment":"validation","task_version":"1.1","jspsych_version":"6.3.1","infrequency":0},{"responses":{"Q04":"3","Q03":"0","Q01":"0","Q06":"2","Q08":"1","Q05":"2","Q09":"1","Q02":"0","Q07":"4","Q11":"4","Q10":"1"},"rt":52672.60000002384,"item_order":[3,2,0,5,7,4,8,1,6,10,9],"radio_events":[12900,15742.899999976158,17639.199999928474,21347.100000023842,26050.299999952316,30116.799999952316,37255.5,41369.60000002384,43279.799999952316,46720.89999997616,51064.199999928474],"key_events":[],"mouse_events":[12900,15742.899999976158,17639.199999928474,21347.100000023842,26050.299999952316,30116.799999952316,37255.5,41369.60000002384,43279.799999952316,46720.89999997616,51064.199999928474,52670.89999997616],"straightlining":0.36363636363636365,"zigzagging":0.5,"honeypot":0,"survey":"neuroticism","trial_type":"survey-template","trial_index":3,"time_elapsed":151042,"internal_node_id":"0.0-3.0","experiment":"validation","task_version":"1.1","jspsych_version":"6.3.1","infrequency":0},{"responses":{"Q01":"3","Q05":"3","Q07":"2","Q06":"1","Q03":"4","Q04":"4","Q02":"4"},"rt":64733.10000002384,"item_order":[0,4,6,5,2,3,1],"radio_events":[8714.700000047684,13045.200000047684,16500.299999952316,25750.100000023842,38718.799999952316,50561.60000002384,63435.5],"key_events":[],"mouse_events":[8714.700000047684,13045.200000047684,16500.299999952316,25750.100000023842,38718.799999952316,50561.60000002384,63435.5,64731.89999997616],"straightlining":0.2857142857142857,"zigzagging":0.6666666666666666,"honeypot":0,"survey":"nfc6","trial_type":"survey-template","trial_index":4,"time_elapsed":215782,"internal_node_id":"0.0-4.0","experiment":"validation","task_version":"1.1","jspsych_version":"6.3.1","infrequency":0},{"value":[0,1.1948051948051948,1.8666666666666667],"trial_type":"call-function","trial_index":5,"time_elapsed":215787,"internal_node_id":"0.0-5.0","experiment":"validation","task_version":"1.1","jspsych_version":"6.3.1","interactions":"[]"}]