[{"view_history":[{"page_index":0,"viewing_time":2954.800000011921}],"rt":2955.4000000059605,"trial_type":"instructions","trial_index":0,"time_elapsed":2963,"internal_node_id":"0.0-0.0","experiment":"validation","task_version":"1.1","jspsych_version":"6.3.1"},{"rt":17483.899999976158,"responses":{"age":"25","gender-categorical":"Female","gender-free-response":"","ethnicity":"Not Hispanic or Latino","race":["White"],"education":"Bachelor degree"},"survey":"demographics","trial_type":"survey-demo","trial_index":1,"time_elapsed":20456,"internal_node_id":"0.0-1.0","experiment":"validation","task_version":"1.1","jspsych_version":"6.3.1"},{"responses":{"Q06":"3","Q07":"2","Q01":"3","Q03":"3","Q04":"3","Q05":"4","Q02":"2"},"rt":50651.80000001192,"item_order":[5,6,0,2,3,4,1],"radio_events":[15742.09999999404,17328,22707.40000000596,28531.90000000596,33871.5,42674.09999999404,49460],"key_events":[],"mouse_events":[15742.09999999404,17328,22707.40000000596,28531.90000000596,33871.5,42674.09999999404,43561.09999999404,49460,50647.90000000596],"straightlining":0.2857142857142857,"zigzagging":0.3333333333333333,"honeypot":0,"survey":"nfc6","trial_type":"survey-template","trial_index":2,"time_elapsed":71116,"internal_node_id":"0.0-2.0","experiment":"validation","task_version":"1.1","jspsych_version":"6.3.1","infrequency":0},{"responses":{"Q08":"0","Q04":"2","Q02":"4","Q09":"3","Q11":"0","Q06":"4","Q05":"0","Q01":"4","Q07":"4","Q10":"4","Q03":"3"},"rt":58865.70000001788,"item_order":[7,3,1,8,10,5,4,0,6,9,2],"radio_events":[6280.300000011921,13711.90000000596,17430.20000001788,22172.20000001788,32695.70000001788,42782.40000000596,48689.80000001192,49610.80000001192,52017.40000000596,54031,55903.20000001788],"key_events":[],"mouse_events":[6280.300000011921,13711.90000000596,17430.20000001788,22172.20000001788,32695.70000001788,42782.40000000596,44090.80000001192,48689.80000001192,49610.80000001192,52017.40000000596,54031,55903.20000001788,58860.80000001192],"straightlining":0.36363636363636365,"zigzagging":0.3,"honeypot":0,"survey":"openness","trial_type":"survey-template","trial_index":3,"time_elapsed":129989,"internal_node_id":"0.0-3.0","experiment":"validation","task_version":"1.1","jspsych_version":"6.3.1","infrequency":0},{"responses":{"Q10":"1","Q06":"0","Q11":"4","Q01":"1","Q02":"0","Q03":"0","Q04":"0","Q09":"0","Q07":"0","Q05":"0","Q08":"0"},"rt":34547.80000001192,"item_order":[9,5,10,0,1,2,3,8,6,4,7],"radio_events":[10515.200000017881,12704.700000017881,15544.59999999404,18727.09999999404,20069.5,21347.80000001192,24409.20000001788,27462.80000001192,29692.59999999404,32697.5,34006.20000001788],"key_events":[],"mouse_events":[10515.200000017881,12704.700000017881,15544.59999999404,18727.09999999404,20069.5,21347.80000001192,24409.20000001788,27462.80000001192,29692.59999999404,32697.5,34006.20000001788,34540.70000001788],"straightlining":0.45454545454545453,"zigzagging":0.5,"honeypot":0,"survey":"neuroticism","trial_type":"survey-template","trial_index":4,"time_elapsed":164543,"internal_node_id":"0.0-4.0","experiment":"validation","task_version":"1.1","jspsych_version":"6.3.1","infrequency":0},{"value":[0,1.103896103896104,1.1333333333333333],"trial_type":"call-function","trial_index":5,"time_elapsed":164546,"internal_node_id":"0.0-5.0","experiment":"validation","task_version":"1.1","jspsych_version":"6.3.1","interactions":"[]"}]