[{"view_history":[{"page_index":0,"viewing_time":9439.199999999255}],"rt":9440,"trial_type":"instructions","trial_index":0,"time_elapsed":9450,"internal_node_id":"0.0-0.0","experiment":"validation","task_version":"1.1","jspsych_version":"6.3.1"},{"rt":51452.5,"responses":{"age":"26","gender-categorical":"Female","gender-free-response":"","ethnicity":"Rather not say","race":["Rather not say"],"education":"Bachelor degree"},"survey":"demographics","trial_type":"survey-demo","trial_index":1,"time_elapsed":60905,"internal_node_id":"0.0-1.0","experiment":"validation","task_version":"1.1","jspsych_version":"6.3.1"},{"responses":{"Q09":"2","Q05":"1","Q07":"3","Q10":"2","Q04":"1","Q03":"1","Q11":"4","Q06":"3","Q08":"1","Q02":"1","Q01":"1"},"rt":172528.90000000224,"item_order":[8,4,6,9,3,2,10,5,7,1,0],"radio_events":[33576.699999999255,53638,59826,66877.60000000149,72178.69999999925,109986.40000000224,111880.69999999925,116041.5,117744.40000000224,121403.40000000224,145315.1000000015,161355],"key_events":[],"mouse_events":[33576.699999999255,53638,59826,66877.60000000149,72178.69999999925,108632.69999999925,109986.40000000224,111880.69999999925,116041.5,117744.40000000224,119870.10000000149,121403.40000000224,145315.1000000015,161355,172527.1000000015],"straightlining":0.6363636363636364,"zigzagging":0.3,"honeypot":0,"survey":"neuroticism","trial_type":"survey-template","trial_index":2,"time_elapsed":233439,"internal_node_id":"0.0-2.0","experiment":"validation","task_version":"1.1","jspsych_version":"6.3.1","infrequency":0},{"responses":{"Q09":"3","Q02":"4","Q01":"4","Q11":"0","Q07":"4","Q03":"4","Q10":"4","Q04":"2","Q06":"2","Q05":"1","Q08":"2"},"rt":81444.69999999925,"item_order":[8,1,0,10,6,2,9,3,5,4,7],"radio_events":[5046.89999999851,8285.800000000745,9078.89999999851,14680.699999999255,16255.199999999255,18940.800000000745,22909.300000000745,27950.199999999255,35075.39999999851,44955.800000000745,48594.199999999255],"key_events":[],"mouse_events":[5046.89999999851,7252.89999999851,8285.800000000745,9078.89999999851,14680.699999999255,16255.199999999255,18940.800000000745,20062.39999999851,22909.300000000745,27950.199999999255,35075.39999999851,44955.800000000745,48594.199999999255,81443.10000000149],"straightlining":0.2727272727272727,"zigzagging":0.5,"honeypot":0,"survey":"openness","trial_type":"survey-template","trial_index":3,"time_elapsed":314888,"internal_node_id":"0.0-3.0","experiment":"validation","task_version":"1.1","jspsych_version":"6.3.1","infrequency":0},{"responses":{"Q02":"1","Q05":"1","Q07":"2","Q06":"2","Q03":"3","Q01":"2","Q04":"1"},"rt":123245.90000000224,"item_order":[1,4,6,5,2,0,3],"radio_events":[10361.900000002235,16795.20000000298,22306.70000000298,31944.20000000298,38874.900000002235,49571.900000002235,77256.70000000298,121660.90000000224],"key_events":[],"mouse_events":[10361.900000002235,16795.20000000298,22306.70000000298,31944.20000000298,38874.900000002235,49571.900000002235,77256.70000000298,119103.90000000224,120828.5,121660.90000000224,123244.90000000224],"straightlining":0.42857142857142855,"zigzagging":0.6666666666666666,"honeypot":0,"survey":"nfc6","trial_type":"survey-template","trial_index":4,"time_elapsed":438137,"internal_node_id":"0.0-4.0","experiment":"validation","task_version":"1.1","jspsych_version":"6.3.1","infrequency":0},{"value":[0,1.3376623376623376,1.4666666666666668],"trial_type":"call-function","trial_index":5,"time_elapsed":438139,"internal_node_id":"0.0-5.0","experiment":"validation","task_version":"1.1","jspsych_version":"6.3.1","interactions":"[{\"event\":\"blur\",\"trial\":2,\"time\":225779},{\"event\":\"focus\",\"trial\":2,\"time\":230481},{\"event\":\"blur\",\"trial\":3,\"time\":285502},{\"event\":\"focus\",\"trial\":3,\"time\":291604},{\"event\":\"blur\",\"trial\":4,\"time\":411843},{\"event\":\"focus\",\"trial\":4,\"time\":417678}]"}]