[{"view_history":[{"page_index":0,"viewing_time":3340}],"rt":3340.600000023842,"trial_type":"instructions","trial_index":0,"time_elapsed":3348,"internal_node_id":"0.0-0.0","experiment":"validation","task_version":"1.1","jspsych_version":"6.3.1"},{"rt":17372.19999998808,"responses":{"age":"20","gender-categorical":"Female","gender-free-response":"","ethnicity":"Unknown","race":["White"],"education":"Associate degree"},"survey":"demographics","trial_type":"survey-demo","trial_index":1,"time_elapsed":20725,"internal_node_id":"0.0-1.0","experiment":"validation","task_version":"1.1","jspsych_version":"6.3.1"},{"responses":{"Q01":"3","Q06":"3","Q07":"2","Q05":"3","Q02":"3","Q04":"3","Q03":"4"},"rt":73963.69999998808,"item_order":[0,5,6,4,1,3,2],"radio_events":[7978.400000035763,12131.900000035763,18309.30000001192,23915.19999998808,39601.80000001192,67028,72633.40000003576],"key_events":[],"mouse_events":[7978.400000035763,12131.900000035763,18309.30000001192,23915.19999998808,39601.80000001192,67028,72633.40000003576,73961.10000002384],"straightlining":0.5714285714285714,"zigzagging":0.5,"honeypot":0,"survey":"nfc6","trial_type":"survey-template","trial_index":2,"time_elapsed":94692,"internal_node_id":"0.0-2.0","experiment":"validation","task_version":"1.1","jspsych_version":"6.3.1","infrequency":0},{"responses":{"Q09":"3","Q04":"1","Q03":"0","Q02":"3","Q08":"2","Q01":"3","Q10":"0","Q06":"4","Q07":"4","Q05":"1","Q11":"0"},"rt":55831.59999996424,"item_order":[8,3,2,1,7,0,9,5,6,4,10],"radio_events":[9409.5,16848.30000001192,21703.099999964237,24628.099999964237,26908.599999964237,30281.30000001192,37954.5,39396.89999997616,43225.80000001192,47844.30000001192,54467.69999998808],"key_events":[],"mouse_events":[9409.5,16848.30000001192,21703.099999964237,24628.099999964237,26908.599999964237,30281.30000001192,37954.5,39396.89999997616,43225.80000001192,47844.30000001192,49025.69999998808,54467.69999998808,55827.69999998808],"straightlining":0.36363636363636365,"zigzagging":0.4,"honeypot":0,"survey":"openness","trial_type":"survey-template","trial_index":3,"time_elapsed":150529,"internal_node_id":"0.0-3.0","experiment":"validation","task_version":"1.1","jspsych_version":"6.3.1","infrequency":0},{"responses":{"Q08":"0","Q04":"3","Q05":"3","Q03":"3","Q09":"3","Q07":"4","Q02":"2","Q10":"2","Q11":"4","Q01":"3","Q06":"3"},"rt":55351.19999998808,"item_order":[7,3,4,2,8,6,1,9,10,0,5],"radio_events":[4512.199999988079,5782.899999976158,8593.300000011921,12218.5,14540.5,17726.100000023842,36784.10000002384,47199.5,49171.60000002384,50964,54239.10000002384],"key_events":[],"mouse_events":[4512.199999988079,5782.899999976158,8593.300000011921,12218.5,14540.5,17726.100000023842,36784.10000002384,47199.5,49171.60000002384,50964,54239.10000002384,55347.19999998808],"straightlining":0.36363636363636365,"zigzagging":0.3,"honeypot":0,"survey":"neuroticism","trial_type":"survey-template","trial_index":4,"time_elapsed":205885,"internal_node_id":"0.0-4.0","experiment":"validation","task_version":"1.1","jspsych_version":"6.3.1","infrequency":0},{"value":[0,1.2987012987012987,1.2],"trial_type":"call-function","trial_index":5,"time_elapsed":205887,"internal_node_id":"0.0-5.0","experiment":"validation","task_version":"1.1","jspsych_version":"6.3.1","interactions":"[]"}]