[{"view_history":[{"page_index":0,"viewing_time":2189.155000000028}],"rt":2189.4200000097044,"trial_type":"instructions","trial_index":0,"time_elapsed":2195,"internal_node_id":"0.0-0.0","experiment":"validation","task_version":"1.1","jspsych_version":"6.3.1"},{"rt":8488.795000012033,"responses":{"age":"27","gender-categorical":"Female","gender-free-response":"","ethnicity":"Not Hispanic or Latino","race":["White"],"education":"Bachelor degree"},"survey":"demographics","trial_type":"survey-demo","trial_index":1,"time_elapsed":10686,"internal_node_id":"0.0-1.0","experiment":"validation","task_version":"1.1","jspsych_version":"6.3.1"},{"responses":{"Q01":"2","Q03":"3","Q02":"1","Q05":"2","Q07":"2","Q04":"3","Q06":"2"},"rt":51327.55499999621,"item_order":[0,2,1,4,6,3,5],"radio_events":[8052.960000000894,13266.839999996591,26747.98999997438,31260.089999996126,33837.57999999216,40951.83999999426,50316.33000000147],"key_events":[],"mouse_events":[8052.960000000894,13266.839999996591,26747.98999997438,31260.089999996126,33837.57999999216,40137.17499998165,40951.83999999426,49681.964999996126,50316.33000000147,51324.89999997779],"straightlining":0.5714285714285714,"zigzagging":0.6666666666666666,"honeypot":0,"survey":"nfc6","trial_type":"survey-template","trial_index":2,"time_elapsed":62019,"internal_node_id":"0.0-2.0","experiment":"validation","task_version":"1.1","jspsych_version":"6.3.1","infrequency":0},{"responses":{"Q09":"4","Q08":"4","Q01":"4","Q03":"4","Q06":"4","Q10":"4","Q07":"4","Q02":"3","Q04":"1","Q11":"0","Q05":"0"},"rt":25652.874999999767,"item_order":[8,7,0,2,5,9,6,1,3,10,4],"radio_events":[3447.684999991907,4634.62499997695,6310.109999991255,9312.999999994645,10506.414999981644,11677.599999995437,14653.474999999162,16247.239999996964,18737.08500000066,21428.264999995008,23681.859999982407],"key_events":[],"mouse_events":[3447.684999991907,4634.62499997695,6310.109999991255,8179.5599999895785,9312.999999994645,10506.414999981644,11677.599999995437,14653.474999999162,16247.239999996964,18737.08500000066,20461.014999978943,21428.264999995008,23137.094999983674,23681.859999982407,25650.07999999216],"straightlining":0.5454545454545454,"zigzagging":0.3,"honeypot":0,"survey":"openness","trial_type":"survey-template","trial_index":3,"time_elapsed":87677,"internal_node_id":"0.0-3.0","experiment":"validation","task_version":"1.1","jspsych_version":"6.3.1","infrequency":0},{"responses":{"Q09":"1","Q11":"4","Q05":"3","Q07":"2","Q04":"0","Q02":"2","Q03":"2","Q06":"0","Q08":"1","Q01":"2","Q10":"2"},"rt":51106.79999997956,"item_order":[8,10,4,6,3,1,2,5,7,0,9],"radio_events":[3887.56000000285,5863.33999998169,9026.805000001332,12409.714999987045,14972.729999979492,18086.039999994682,18939.689999999246,22437.294999981532,27383.044999995036,29643.819999997504,31823.034999979427,35409.11999999662,41461.224999977276,45118.97999999928],"key_events":[],"mouse_events":[3887.56000000285,5863.33999998169,9026.805000001332,12409.714999987045,14972.729999979492,17402.999999991152,18086.039999994682,18939.689999999246,22437.294999981532,27383.044999995036,28732.75999998441,29643.819999997504,31823.034999979427,35409.11999999662,41461.224999977276,44476.18999998667,45118.97999999928,51103.174999996554],"straightlining":0.45454545454545453,"zigzagging":0.5,"honeypot":0,"survey":"neuroticism","trial_type":"survey-template","trial_index":4,"time_elapsed":138789,"internal_node_id":"0.0-4.0","experiment":"validation","task_version":"1.1","jspsych_version":"6.3.1","infrequency":0},{"value":[0,1.5714285714285714,1.4666666666666666],"trial_type":"call-function","trial_index":5,"time_elapsed":138792,"internal_node_id":"0.0-5.0","experiment":"validation","task_version":"1.1","jspsych_version":"6.3.1","interactions":"[]"}]