[{"view_history":[{"page_index":0,"viewing_time":3272.7999999970198}],"rt":3273,"trial_type":"instructions","trial_index":0,"time_elapsed":3299,"internal_node_id":"0.0-0.0","experiment":"validation","task_version":"1.1","jspsych_version":"6.3.1"},{"rt":14246.09999999404,"responses":{"age":"64","gender-categorical":"Female","gender-free-response":"","ethnicity":"Not Hispanic or Latino","race":["White"],"education":"Bachelor degree"},"survey":"demographics","trial_type":"survey-demo","trial_index":1,"time_elapsed":17547,"internal_node_id":"0.0-1.0","experiment":"validation","task_version":"1.1","jspsych_version":"6.3.1"},{"responses":{"Q01":"1","Q02":"1","Q07":"2","Q05":"3","Q06":"2","Q03":"2","Q04":"3"},"rt":28428.39999999851,"item_order":[0,1,6,4,5,2,3],"radio_events":[8099.20000000298,8923.60000000149,11195.10000000149,14627.20000000298,19523.29999999702,22835.29999999702,27395.20000000298],"key_events":[],"mouse_events":[3299.7000000029802,8099.20000000298,8923.60000000149,11195.10000000149,14627.20000000298,19523.29999999702,22835.29999999702,27395.20000000298,28427.20000000298],"straightlining":0.42857142857142855,"zigzagging":0.6666666666666666,"honeypot":0,"survey":"nfc6","trial_type":"survey-template","trial_index":2,"time_elapsed":45980,"internal_node_id":"0.0-2.0","experiment":"validation","task_version":"1.1","jspsych_version":"6.3.1","infrequency":0},{"responses":{"Q06":"0","Q04":"0","Q08":"1","Q07":"2","Q01":"1","Q03":"0","Q02":"4","Q10":"0","Q11":"0","Q05":"3","Q09":"2"},"rt":28652.19999999553,"item_order":[5,3,7,6,0,2,1,9,10,4,8],"radio_events":[3643.10000000149,5235.10000000149,7539,11859.10000000149,12883,14931,19578.89999999851,20347,22586.89999999851,25010.79999999702,27434.69999999553],"key_events":[],"mouse_events":[3643.10000000149,5235.10000000149,7539,9579.19999999553,11859.10000000149,12883,14931,17747,19578.89999999851,20347,22586.89999999851,25010.79999999702,27434.69999999553,28650.79999999702],"straightlining":0.36363636363636365,"zigzagging":0.8,"honeypot":0,"survey":"openness","trial_type":"survey-template","trial_index":3,"time_elapsed":74636,"internal_node_id":"0.0-3.0","experiment":"validation","task_version":"1.1","jspsych_version":"6.3.1","infrequency":0},{"responses":{"Q09":"3","Q10":"0","Q01":"1","Q11":"4","Q02":"0","Q05":"3","Q04":"2","Q08":"1","Q07":"1","Q03":"0","Q06":"3"},"rt":33196.89999999851,"item_order":[8,9,0,10,1,4,3,7,6,2,5],"radio_events":[3443.7999999970198,9107.69999999553,10563.60000000149,12347.60000000149,13987.60000000149,18307.5,19315.5,21867.5,24067.39999999851,26355.39999999851,31179.39999999851],"key_events":[],"mouse_events":[3443.7999999970198,5155.69999999553,7195.60000000149,9107.69999999553,10563.60000000149,12347.60000000149,13987.60000000149,16491.69999999553,18307.5,19315.5,21867.5,24067.39999999851,26355.39999999851,27723.39999999851,31179.39999999851,33195.39999999851],"straightlining":0.2727272727272727,"zigzagging":0.4,"honeypot":0,"survey":"neuroticism","trial_type":"survey-template","trial_index":4,"time_elapsed":107836,"internal_node_id":"0.0-4.0","experiment":"validation","task_version":"1.1","jspsych_version":"6.3.1","infrequency":0},{"value":[0,1.0649350649350648,1.8666666666666667],"trial_type":"call-function","trial_index":5,"time_elapsed":107838,"internal_node_id":"0.0-5.0","experiment":"validation","task_version":"1.1","jspsych_version":"6.3.1","interactions":"[]"}]