[{"view_history":[{"page_index":0,"viewing_time":12173.460001125932}],"rt":12174.785001203418,"trial_type":"instructions","trial_index":0,"time_elapsed":12192,"internal_node_id":"0.0-0.0","experiment":"validation","task_version":"1.1","jspsych_version":"6.3.1"},{"rt":14152.105001732707,"responses":{"age":"27","gender-categorical":"Female","gender-free-response":"","ethnicity":"Not Hispanic or Latino","race":["White"],"education":"Some college"},"survey":"demographics","trial_type":"survey-demo","trial_index":1,"time_elapsed":26351,"internal_node_id":"0.0-1.0","experiment":"validation","task_version":"1.1","jspsych_version":"6.3.1"},{"responses":{"Q07":"4","Q01":"4","Q06":"4","Q03":"4","Q09":"4","Q05":"0","Q08":"4","Q11":"0","Q04":"1","Q02":"2","Q10":"4"},"rt":47605.214999988675,"item_order":[6,0,5,2,8,4,7,10,3,1,9],"radio_events":[8441.70500151813,10482.76000097394,22961.18000149727,24495.355000719428,27248.335000127554,30145.55500075221,32707.59000070393,35945.025000721216,39056.76000006497,43160.56500002742,46317.755000665784],"key_events":[],"mouse_events":[8441.70500151813,10482.76000097394,21721.810000017285,22961.18000149727,24495.355000719428,27248.335000127554,30145.55500075221,32707.59000070393,35945.025000721216,39056.76000006497,43160.56500002742,46317.755000665784,47601.610001176596],"straightlining":0.5454545454545454,"zigzagging":0.7,"honeypot":0,"survey":"openness","trial_type":"survey-template","trial_index":2,"time_elapsed":73964,"internal_node_id":"0.0-2.0","experiment":"validation","task_version":"1.1","jspsych_version":"6.3.1","infrequency":0},{"responses":{"Q02":"1","Q04":"2","Q06":"4","Q03":"3","Q05":"2","Q01":"3","Q07":"2"},"rt":40619.730001315475,"item_order":[1,3,5,2,4,0,6],"radio_events":[8867.77999997139,17017.37500168383,24773.17500114441,29301.835000514984,32602.06000134349,33733.35000127554,36579.09500040114,39088.060000911355],"key_events":[],"mouse_events":[8867.77999997139,17017.37500168383,24773.17500114441,29301.835000514984,32602.06000134349,33733.35000127554,36579.09500040114,39088.060000911355,40618.0600002408],"straightlining":0.42857142857142855,"zigzagging":0.6666666666666666,"honeypot":0,"survey":"nfc6","trial_type":"survey-template","trial_index":3,"time_elapsed":114590,"internal_node_id":"0.0-3.0","experiment":"validation","task_version":"1.1","jspsych_version":"6.3.1","infrequency":0},{"responses":{"Q10":"2","Q07":"4","Q01":"4","Q08":"3","Q02":"1","Q03":"4","Q05":"4","Q11":"4","Q09":"3","Q06":"4","Q04":"3"},"rt":33761.715000495315,"item_order":[9,6,0,7,1,2,4,10,8,5,3],"radio_events":[3598.4349995851517,6828.2650001347065,8488.919999450445,11107.684999704361,13715.369999408722,16888.030000030994,19684.109998866916,21015.20999893546,23796.564999967813,27260.43500006199,30319.734999909997,32856.13999888301],"key_events":[],"mouse_events":[3598.4349995851517,6828.2650001347065,8488.919999450445,11107.684999704361,13715.369999408722,16888.030000030994,19684.109998866916,21015.20999893546,23796.564999967813,27260.43500006199,30319.734999909997,32856.13999888301,33759.01999883354],"straightlining":0.36363636363636365,"zigzagging":0.2,"honeypot":0,"survey":"neuroticism","trial_type":"survey-template","trial_index":4,"time_elapsed":148357,"internal_node_id":"0.0-4.0","experiment":"validation","task_version":"1.1","jspsych_version":"6.3.1","infrequency":0},{"value":[0,1.3376623376623376,1.5666666666666667],"trial_type":"call-function","trial_index":5,"time_elapsed":148367,"internal_node_id":"0.0-5.0","experiment":"validation","task_version":"1.1","jspsych_version":"6.3.1","interactions":"[{\"event\":\"blur\",\"trial\":2,\"time\":38108},{\"event\":\"focus\",\"trial\":2,\"time\":44016}]"}]