[{"view_history":[{"page_index":0,"viewing_time":2627.8000000715256}],"rt":2628.100000023842,"trial_type":"instructions","trial_index":0,"time_elapsed":2651,"internal_node_id":"0.0-0.0","experiment":"validation","task_version":"1.1","jspsych_version":"6.3.1"},{"rt":9303.299999952316,"responses":{"age":"22","gender-categorical":"Female","gender-free-response":"","ethnicity":"Not Hispanic or Latino","race":["White"],"education":"Bachelor degree"},"survey":"demographics","trial_type":"survey-demo","trial_index":1,"time_elapsed":11956,"internal_node_id":"0.0-1.0","experiment":"validation","task_version":"1.1","jspsych_version":"6.3.1"},{"responses":{"Q04":"1","Q03":"2","Q02":"3","Q07":"2","Q01":"2","Q06":"2","Q05":"3"},"rt":41330.89999997616,"item_order":[3,2,1,6,0,5,4],"radio_events":[10440.300000071526,30014.899999976158,32496.600000023842,33466.300000071526,37191.700000047684,38759.800000071526,39971.300000071526],"key_events":[],"mouse_events":[10440.300000071526,30014.899999976158,32496.600000023842,33466.300000071526,34638.10000002384,37191.700000047684,38759.800000071526,39971.300000071526,41328.89999997616],"straightlining":0.5714285714285714,"zigzagging":0.6666666666666666,"honeypot":0,"survey":"nfc6","trial_type":"survey-template","trial_index":2,"time_elapsed":53292,"internal_node_id":"0.0-2.0","experiment":"validation","task_version":"1.1","jspsych_version":"6.3.1","infrequency":0},{"responses":{"Q06":"3","Q01":"4","Q10":"4","Q11":"0","Q03":"4","Q05":"0","Q08":"1","Q04":"3","Q02":"4","Q09":"4","Q07":"4"},"rt":31599,"item_order":[5,0,9,10,2,4,7,3,1,8,6],"radio_events":[10070.299999952316,13303,14466.5,16793.299999952316,18886.5,19928.399999976158,22279.600000023842,24380.199999928474,28065.100000023842,30238.299999952316,30723.600000023842],"key_events":[],"mouse_events":[9295.199999928474,10070.299999952316,12308.799999952316,13303,14466.5,16793.299999952316,18886.5,19928.399999976158,22279.600000023842,24380.199999928474,28065.100000023842,30238.299999952316,30723.600000023842,31596.399999976158],"straightlining":0.36363636363636365,"zigzagging":0.4,"honeypot":0,"survey":"openness","trial_type":"survey-template","trial_index":3,"time_elapsed":84896,"internal_node_id":"0.0-3.0","experiment":"validation","task_version":"1.1","jspsych_version":"6.3.1","infrequency":0},{"responses":{"Q04":"4","Q03":"4","Q07":"3","Q05":"4","Q10":"3","Q02":"2","Q06":"3","Q08":"1","Q01":"3","Q11":"0","Q09":"1"},"rt":20954.100000023842,"item_order":[3,2,6,4,9,1,5,7,0,10,8],"radio_events":[3225.2000000476837,4841.300000071526,6618.900000095367,8557.800000071526,9900.100000023842,11433.800000071526,12468.400000095367,14351.300000071526,15409.600000023842,16483.900000095367,17971.5,20208.800000071526],"key_events":[],"mouse_events":[3225.2000000476837,4841.300000071526,6618.900000095367,8557.800000071526,9900.100000023842,11433.800000071526,12468.400000095367,14351.300000071526,15409.600000023842,16483.900000095367,17971.5,20208.800000071526,20951.900000095367],"straightlining":0.2727272727272727,"zigzagging":0.2,"honeypot":0,"survey":"neuroticism","trial_type":"survey-template","trial_index":4,"time_elapsed":105855,"internal_node_id":"0.0-4.0","experiment":"validation","task_version":"1.1","jspsych_version":"6.3.1","infrequency":1},{"value":[1,1.2077922077922079,1.2666666666666666],"trial_type":"call-function","trial_index":5,"time_elapsed":105858,"internal_node_id":"0.0-5.0","experiment":"validation","task_version":"1.1","jspsych_version":"6.3.1","interactions":"[]"}]