[{"view_history":[{"page_index":0,"viewing_time":2137.2999999523163}],"rt":2137.7000000476837,"trial_type":"instructions","trial_index":0,"time_elapsed":2154,"internal_node_id":"0.0-0.0","experiment":"validation","task_version":"1.1","jspsych_version":"6.3.1"},{"rt":43231.5,"responses":{"age":"20","gender-categorical":"Male","gender-free-response":"","ethnicity":"Not Hispanic or Latino","race":["White"],"education":"Some college"},"survey":"demographics","trial_type":"survey-demo","trial_index":1,"time_elapsed":45392,"internal_node_id":"0.0-1.0","experiment":"validation","task_version":"1.1","jspsych_version":"6.3.1"},{"responses":{"Q03":"3","Q02":"1","Q04":"4","Q06":"3","Q01":"3","Q07":"2","Q05":"3"},"rt":35620.10000002384,"item_order":[2,1,3,5,0,6,4],"radio_events":[5297.600000023842,10140.899999976158,13502.800000071526,18423.399999976158,21914.800000071526,30221.800000071526,34588.5],"key_events":[],"mouse_events":[5297.600000023842,10140.899999976158,13502.800000071526,18423.399999976158,21914.800000071526,30221.800000071526,34588.5,35617],"straightlining":0.42857142857142855,"zigzagging":0.5,"honeypot":0,"survey":"nfc6","trial_type":"survey-template","trial_index":2,"time_elapsed":81020,"internal_node_id":"0.0-2.0","experiment":"validation","task_version":"1.1","jspsych_version":"6.3.1","infrequency":0},{"responses":{"Q10":"0","Q02":"1","Q11":"4","Q03":"0","Q01":"0","Q05":"0","Q09":"1","Q08":"0","Q07":"0","Q06":"1","Q04":"0"},"rt":35865.299999952316,"item_order":[9,1,10,2,0,4,8,7,6,5,3],"radio_events":[4550.799999952316,5563.5,7953.799999952316,12288.699999928474,17871.299999952316,20462.199999928474,23897.299999952316,27416.399999976158,29332.899999976158,30907.100000023842,32635,34696],"key_events":[],"mouse_events":[4550.799999952316,5563.5,7953.799999952316,12288.699999928474,17871.299999952316,18706.799999952316,20462.199999928474,23897.299999952316,27416.399999976158,29332.899999976158,30907.100000023842,32635,34696,35861.299999952316],"straightlining":0.36363636363636365,"zigzagging":0.3,"honeypot":0,"survey":"neuroticism","trial_type":"survey-template","trial_index":3,"time_elapsed":116892,"internal_node_id":"0.0-3.0","experiment":"validation","task_version":"1.1","jspsych_version":"6.3.1","infrequency":0},{"responses":{"Q03":"2","Q11":"0","Q05":"0","Q10":"4","Q04":"1","Q01":"4","Q02":"4","Q09":"4","Q07":"4","Q06":"4","Q08":"4"},"rt":26960.100000023842,"item_order":[2,10,4,9,3,0,1,8,6,5,7],"radio_events":[3321.7000000476837,5804.600000023842,11300.600000023842,13518,16173.700000047684,18270.700000047684,20540.600000023842,22685.300000071526,23661.700000047684,25187.900000095367,26007.700000047684],"key_events":[],"mouse_events":[3321.7000000476837,5804.600000023842,11300.600000023842,13518,16173.700000047684,18270.700000047684,20540.600000023842,22685.300000071526,23661.700000047684,25187.900000095367,26007.700000047684,26956],"straightlining":0.5454545454545454,"zigzagging":0.4,"honeypot":0,"survey":"openness","trial_type":"survey-template","trial_index":4,"time_elapsed":143857,"internal_node_id":"0.0-4.0","experiment":"validation","task_version":"1.1","jspsych_version":"6.3.1","infrequency":0},{"value":[0,1.3376623376623376,1.2000000000000002],"trial_type":"call-function","trial_index":5,"time_elapsed":143860,"internal_node_id":"0.0-5.0","experiment":"validation","task_version":"1.1","jspsych_version":"6.3.1","interactions":"[]"}]