[{"view_history":[{"page_index":0,"viewing_time":3499.899999976158}],"rt":3500.100000023842,"trial_type":"instructions","trial_index":0,"time_elapsed":3509,"internal_node_id":"0.0-0.0","experiment":"validation","task_version":"1.1","jspsych_version":"6.3.1"},{"rt":26698.399999976158,"responses":{"age":"45","gender-categorical":"Female","gender-free-response":"","ethnicity":"Not Hispanic or Latino","race":["White"],"education":"Bachelor degree"},"survey":"demographics","trial_type":"survey-demo","trial_index":1,"time_elapsed":30210,"internal_node_id":"0.0-1.0","experiment":"validation","task_version":"1.1","jspsych_version":"6.3.1"},{"responses":{"Q05":"3","Q06":"1","Q03":"3","Q01":"2","Q02":"2","Q04":"3","Q07":"2"},"rt":36183.699999928474,"item_order":[4,5,2,0,1,3,6],"radio_events":[9720.600000023842,15038.600000023842,17690.899999976158,21724.799999952316,26866.600000023842,30068.5,34632.39999997616],"key_events":[],"mouse_events":[9720.600000023842,15038.600000023842,17690.899999976158,21724.799999952316,26866.600000023842,30068.5,34632.39999997616,36182],"straightlining":0.42857142857142855,"zigzagging":0.5,"honeypot":0,"survey":"nfc6","trial_type":"survey-template","trial_index":2,"time_elapsed":66397,"internal_node_id":"0.0-2.0","experiment":"validation","task_version":"1.1","jspsych_version":"6.3.1","infrequency":0},{"responses":{"Q05":"1","Q07":"4","Q02":"3","Q11":"0","Q01":"3","Q03":"4","Q04":"2","Q10":"4","Q09":"3","Q06":"2","Q08":"2"},"rt":70584.20000004768,"item_order":[4,6,1,10,0,2,3,9,8,5,7],"radio_events":[30263.100000023842,36474.800000071526,38100,41884.60000002384,44488.700000047684,46974.300000071526,50903.90000009537,54583.60000002384,57997.300000071526,62585.10000002384,65277.300000071526,69219.40000009537],"key_events":[],"mouse_events":[30263.100000023842,36474.800000071526,38100,41884.60000002384,44488.700000047684,46974.300000071526,50903.90000009537,53245.5,54583.60000002384,57997.300000071526,62585.10000002384,65277.300000071526,69219.40000009537,70582.10000002384],"straightlining":0.2727272727272727,"zigzagging":0.3,"honeypot":0,"survey":"openness","trial_type":"survey-template","trial_index":3,"time_elapsed":136984,"internal_node_id":"0.0-3.0","experiment":"validation","task_version":"1.1","jspsych_version":"6.3.1","infrequency":0},{"responses":{"Q06":"3","Q05":"2","Q08":"0","Q01":"0","Q07":"0","Q09":"3","Q10":"1","Q04":"1","Q03":"0","Q02":"0","Q11":"0"},"rt":43617.10000002384,"item_order":[5,4,7,0,6,8,9,3,2,1,10],"radio_events":[7476.5,12478.600000023842,20161.5,22650.400000095367,24760.700000047684,29922.700000047684,34137.10000002384,36451.10000002384,38458.200000047684,39110.800000071526,42182.200000047684],"key_events":[],"mouse_events":[7476.5,12478.600000023842,20161.5,22650.400000095367,24760.700000047684,29922.700000047684,34137.10000002384,36451.10000002384,38458.200000047684,39110.800000071526,40143,40811.10000002384,41496.5,42182.200000047684,43615],"straightlining":0.36363636363636365,"zigzagging":0.4,"honeypot":0,"survey":"neuroticism","trial_type":"survey-template","trial_index":4,"time_elapsed":180604,"internal_node_id":"0.0-4.0","experiment":"validation","task_version":"1.1","jspsych_version":"6.3.1","infrequency":1},{"value":[1,1.064935064935065,1.2000000000000002],"trial_type":"call-function","trial_index":5,"time_elapsed":180605,"internal_node_id":"0.0-5.0","experiment":"validation","task_version":"1.1","jspsych_version":"6.3.1","interactions":"[]"}]