[{"view_history":[{"page_index":0,"viewing_time":53845.79999999702}],"rt":53851.20000000298,"trial_type":"instructions","trial_index":0,"time_elapsed":53939,"internal_node_id":"0.0-0.0","experiment":"validation","task_version":"1.1","jspsych_version":"6.3.1"},{"rt":62216.19999999553,"responses":{"age":"44","gender-categorical":"Female","gender-free-response":"","ethnicity":"Hispanic or Latino","race":["White"],"education":"Some college"},"survey":"demographics","trial_type":"survey-demo","trial_index":1,"time_elapsed":116166,"internal_node_id":"0.0-1.0","experiment":"validation","task_version":"1.1","jspsych_version":"6.3.1"},{"responses":{"Q03":"1","Q06":"2","Q01":"3","Q02":"3","Q07":"2","Q04":"3","Q05":"3"},"rt":327029.59999999404,"item_order":[2,5,0,1,6,3,4],"radio_events":[78740.09999999404,231483.59999999404,288987.09999999404,309874.5,313875,320618.3999999985,324308.299999997],"key_events":[],"mouse_events":[78740.09999999404,231483.59999999404,288987.09999999404,303745.3999999985,309874.5,311552.299999997,313875,320618.3999999985,323190.59999999404,324308.299999997,327024.3999999985],"straightlining":0.5714285714285714,"zigzagging":0.6666666666666666,"honeypot":0,"survey":"nfc6","trial_type":"survey-template","trial_index":2,"time_elapsed":443212,"internal_node_id":"0.0-2.0","experiment":"validation","task_version":"1.1","jspsych_version":"6.3.1","infrequency":0},{"responses":{"Q07":"3","Q04":"1","Q11":"2","Q06":"1","Q09":"3","Q02":"2","Q01":"3","Q10":"3","Q03":"3","Q05":"4","Q08":"3"},"rt":53428,"item_order":[6,3,10,5,8,1,0,9,2,4,7],"radio_events":[19790.10000000149,24812,26340.70000000298,32835.5,36420.20000000298,38071.30000000447,42194.70000000298,45055.20000000298,49051.89999999851,50275.10000000149,52414.89999999851],"key_events":[],"mouse_events":[19790.10000000149,22881.60000000149,24812,26340.70000000298,32835.5,35070,36420.20000000298,38071.30000000447,42194.70000000298,45055.20000000298,47264.30000000447,49051.89999999851,50275.10000000149,52414.89999999851,53426],"straightlining":0.45454545454545453,"zigzagging":0.5,"honeypot":0,"survey":"neuroticism","trial_type":"survey-template","trial_index":3,"time_elapsed":496654,"internal_node_id":"0.0-3.0","experiment":"validation","task_version":"1.1","jspsych_version":"6.3.1","infrequency":1},{"responses":{"Q03":"4","Q06":"2","Q04":"1","Q08":"4","Q05":"1","Q10":"4","Q02":"4","Q09":"4","Q11":"0","Q01":"4","Q07":"4"},"rt":36006.10000000149,"item_order":[2,5,3,7,4,9,1,8,10,0,6],"radio_events":[4483,8164.5,10533.20000000298,12667.5,15319.5,18007.80000000447,22794,25059.30000000447,28760.70000000298,33140.39999999851,34730.39999999851],"key_events":[],"mouse_events":[4483,6685.80000000447,8164.5,10533.20000000298,12667.5,15319.5,18007.80000000447,20031.80000000447,22794,25059.30000000447,28760.70000000298,33140.39999999851,34730.39999999851,36003.80000000447],"straightlining":0.45454545454545453,"zigzagging":0.5,"honeypot":0,"survey":"openness","trial_type":"survey-template","trial_index":4,"time_elapsed":532668,"internal_node_id":"0.0-4.0","experiment":"validation","task_version":"1.1","jspsych_version":"6.3.1","infrequency":0},{"value":[1,1.4805194805194806,1.6666666666666665],"trial_type":"call-function","trial_index":5,"time_elapsed":532673,"internal_node_id":"0.0-5.0","experiment":"validation","task_version":"1.1","jspsych_version":"6.3.1","interactions":"[]"}]