[{"view_history":[{"page_index":0,"viewing_time":3700.5999999940395}],"rt":3703.0999999940395,"trial_type":"instructions","trial_index":0,"time_elapsed":3953,"internal_node_id":"0.0-0.0","experiment":"validation","task_version":"2.0","jspsych_version":"6.3.1"},{"rt":23150.20000000298,"responses":{"age":"59","gender-categorical":"Male","gender-free-response":"","ethnicity":"Not Hispanic or Latino","race":["White"],"education":"Master degree or higher"},"survey":"demographics","trial_type":"survey-demo","trial_index":1,"time_elapsed":27117,"internal_node_id":"0.0-1.0","experiment":"validation","task_version":"2.0","jspsych_version":"6.3.1"},{"responses":{"Q07":"4","Q02":"4","Q06":"3","Q09":"3","Q03":"4","Q08":"3","Q04":"4","Q01":"3","Q05":"4","Q10":"3","Q11":"0"},"rt":99288.39999999106,"item_order":[6,1,5,8,2,7,3,0,4,9,10],"radio_events":[42059.5,45710.39999999106,49693,54163.39999999106,56265.70000000298,61090.09999999404,75461.29999999702,78362.09999999404,83186.70000000298,89973.59999999404,96932.09999999404],"key_events":[],"mouse_events":[41059,42059.5,45710.39999999106,49693,54163.39999999106,56265.70000000298,61090.09999999404,73271.39999999106,74250.5,75461.29999999702,77624.20000000298,78362.09999999404,83186.70000000298,89973.59999999404,96932.09999999404,99279.09999999404],"straightlining":0.45454545454545453,"zigzagging":0.1,"honeypot":0,"survey":"nfc10","trial_type":"survey-template","trial_index":2,"time_elapsed":126434,"internal_node_id":"0.0-2.0","experiment":"validation","task_version":"2.0","jspsych_version":"6.3.1","infrequency":0},{"rt":48064.09999999404,"response":{"Q6":0,"Q1":4,"Q5":5,"Q3":5,"Q7":5,"Q4":4,"Q2":5,"Q0":4,"Q8":0},"question_order":[6,1,5,3,7,4,2,0,8],"survey":"sns","trial_type":"survey-likert","trial_index":3,"time_elapsed":174520,"internal_node_id":"0.0-3.0","experiment":"validation","task_version":"2.0","jspsych_version":"6.3.1","infrequency":0},{"responses":{"Q05":"3","Q06":"3","Q04":"3","Q03":"4","Q09":"4","Q08":"3","Q02":"3","Q07":"4","Q01":"4"},"rt":50684,"item_order":[4,5,3,2,8,7,1,6,0],"radio_events":[11345.29999999702,12327.29999999702,16084.10000000894,19397.20000000298,24659.5,41695.90000000596,45205.90000000596,46613.70000000298,49529.40000000596],"key_events":[],"mouse_events":[7045.70000000298,11345.29999999702,12327.29999999702,16084.10000000894,19397.20000000298,23783.90000000596,24207.29999999702,24659.5,30813.60000000894,36411.60000000894,41695.90000000596,45205.90000000596,46613.70000000298,47965.90000000596,48614.10000000894,49529.40000000596,50673.29999999702],"straightlining":0.5555555555555556,"zigzagging":0.375,"honeypot":0,"survey":"pcf","trial_type":"survey-template","trial_index":4,"time_elapsed":225224,"internal_node_id":"0.0-4.0","experiment":"validation","task_version":"2.0","jspsych_version":"6.3.1","infrequency":0},{"value":0,"trial_type":"call-function","trial_index":5,"time_elapsed":225245,"internal_node_id":"0.0-5.0","experiment":"validation","task_version":"2.0","jspsych_version":"6.3.1","interactions":"[]"}]