[{"view_history":[{"page_index":0,"viewing_time":2037.0999999046326}],"rt":2037.2999997138977,"trial_type":"instructions","trial_index":0,"time_elapsed":2041,"internal_node_id":"0.0-0.0","experiment":"validation","task_version":"1.1","jspsych_version":"6.3.1"},{"rt":17433,"responses":{"age":"32","gender-categorical":"Male","gender-free-response":"","ethnicity":"Not Hispanic or Latino","race":["White"],"education":"Bachelor degree"},"survey":"demographics","trial_type":"survey-demo","trial_index":1,"time_elapsed":19475,"internal_node_id":"0.0-1.0","experiment":"validation","task_version":"1.1","jspsych_version":"6.3.1"},{"responses":{"Q04":"2","Q09":"1","Q07":"3","Q11":"4","Q06":"3","Q08":"1","Q03":"2","Q02":"1","Q05":"1","Q01":"1","Q10":"2"},"rt":32431,"item_order":[3,8,6,10,5,7,2,1,4,0,9],"radio_events":[3660.9000000953674,7499.800000190735,8457.699999809265,11296.900000095367,13781.699999809265,15453.800000190735,18278.599999904633,19680.599999904633,21041.699999809265,22561.699999809265,31816.900000095367],"key_events":[],"mouse_events":[3660.9000000953674,6350.900000095367,7499.800000190735,8457.699999809265,10629.699999809265,11296.900000095367,13781.699999809265,15453.800000190735,18278.599999904633,19680.599999904633,21041.699999809265,22561.699999809265,29781.699999809265,31816.900000095367,32429.699999809265],"straightlining":0.45454545454545453,"zigzagging":0.4,"honeypot":0,"survey":"neuroticism","trial_type":"survey-template","trial_index":2,"time_elapsed":51913,"internal_node_id":"0.0-2.0","experiment":"validation","task_version":"1.1","jspsych_version":"6.3.1","infrequency":0},{"responses":{"Q06":"3","Q01":"4","Q05":"4","Q02":"4","Q07":"2","Q03":"3","Q04":"4"},"rt":36769.199999809265,"item_order":[5,0,4,1,6,2,3],"radio_events":[16996.39999961853,19222.39999961853,22488.39999961853,26302.39999961853,28704.39999961853,32189.5,36162.39999961853],"key_events":[],"mouse_events":[5477.39999961853,16996.39999961853,19222.39999961853,22488.39999961853,26302.39999961853,28704.39999961853,32189.5,36162.39999961853,36768.39999961853],"straightlining":0.42857142857142855,"zigzagging":0.5,"honeypot":0,"survey":"nfc6","trial_type":"survey-template","trial_index":3,"time_elapsed":88687,"internal_node_id":"0.0-3.0","experiment":"validation","task_version":"1.1","jspsych_version":"6.3.1","infrequency":0},{"responses":{"Q06":"4","Q05":"0","Q11":"0","Q08":"3","Q10":"4","Q01":"3","Q03":"4","Q04":"1","Q02":"4","Q09":"2","Q07":"3"},"rt":160441.59999990463,"item_order":[5,4,10,7,9,0,2,3,1,8,6],"radio_events":[24457.300000190735,26223.599999904633,28038.300000190735,30178.300000190735,32452.300000190735,35284.300000190735,152133.30000019073,153816.19999980927,155515.30000019073,157319.30000019073,158608.19999980927,159821.19999980927],"key_events":[],"mouse_events":[24457.300000190735,26223.599999904633,28038.300000190735,30178.300000190735,32452.300000190735,34159.300000190735,35284.300000190735,152133.30000019073,153816.19999980927,155515.30000019073,157319.30000019073,158608.19999980927,159821.19999980927,160440.40000009537],"straightlining":0.2727272727272727,"zigzagging":0.8,"honeypot":0,"survey":"openness","trial_type":"survey-template","trial_index":4,"time_elapsed":249139,"internal_node_id":"0.0-4.0","experiment":"validation","task_version":"1.1","jspsych_version":"6.3.1","infrequency":0},{"value":[0,1.155844155844156,1.7000000000000002],"trial_type":"call-function","trial_index":5,"time_elapsed":249142,"internal_node_id":"0.0-5.0","experiment":"validation","task_version":"1.1","jspsych_version":"6.3.1","interactions":"[{\"event\":\"blur\",\"trial\":1,\"time\":15496},{\"event\":\"focus\",\"trial\":1,\"time\":16850},{\"event\":\"blur\",\"trial\":2,\"time\":48293},{\"event\":\"focus\",\"trial\":2,\"time\":49177},{\"event\":\"blur\",\"trial\":3,\"time\":55575},{\"event\":\"focus\",\"trial\":3,\"time\":57325},{\"event\":\"blur\",\"trial\":3,\"time\":59195},{\"event\":\"focus\",\"trial\":3,\"time\":62700},{\"event\":\"blur\",\"trial\":4,\"time\":91311},{\"event\":\"focus\",\"trial\":4,\"time\":110672},{\"event\":\"blur\",\"trial\":4,\"time\":110673},{\"event\":\"focus\",\"trial\":4,\"time\":113052},{\"event\":\"blur\",\"trial\":4,\"time\":126612},{\"event\":\"focus\",\"trial\":4,\"time\":238200},{\"event\":\"blur\",\"trial\":4,\"time\":238207},{\"event\":\"focus\",\"trial\":4,\"time\":240732}]"}]