[{"view_history":[{"page_index":0,"viewing_time":3742.699999988079}],"rt":3745.2999999821186,"trial_type":"instructions","trial_index":0,"time_elapsed":3845,"internal_node_id":"0.0-0.0","experiment":"validation","task_version":"1.1","jspsych_version":"6.3.1"},{"rt":15845.40000000596,"responses":{"age":"29","gender-categorical":"Female","gender-free-response":"","ethnicity":"Not Hispanic or Latino","race":["White"],"education":"Bachelor degree"},"survey":"demographics","trial_type":"survey-demo","trial_index":1,"time_elapsed":19704,"internal_node_id":"0.0-1.0","experiment":"validation","task_version":"1.1","jspsych_version":"6.3.1"},{"responses":{"Q04":"2","Q06":"3","Q07":"3","Q11":"0","Q02":"2","Q01":"4","Q09":"2","Q03":"4","Q10":"4","Q08":"2","Q05":"1"},"rt":32182.30000001192,"item_order":[3,5,6,10,1,0,8,2,9,7,4],"radio_events":[9271.199999988079,11912,14838.300000011921,16957.69999998808,19402,21608.90000000596,23678.80000001192,25621.30000001192,26947.90000000596,29399.59999999404,31041],"key_events":[],"mouse_events":[9271.199999988079,11912,14838.300000011921,16957.69999998808,19402,21608.90000000596,23678.80000001192,25621.30000001192,26947.90000000596,29399.59999999404,31041,32173.40000000596],"straightlining":0.36363636363636365,"zigzagging":0.4,"honeypot":0,"survey":"openness","trial_type":"survey-template","trial_index":2,"time_elapsed":51902,"internal_node_id":"0.0-2.0","experiment":"validation","task_version":"1.1","jspsych_version":"6.3.1","infrequency":0},{"responses":{"Q01":"2","Q07":"2","Q06":"3","Q05":"3","Q04":"3","Q02":"1","Q03":"2"},"rt":37399.89999997616,"item_order":[0,6,5,4,3,1,2],"radio_events":[3582.399999976158,4949,17006.5,21440.69999998808,27759.79999998212,33009.79999998212,35225.5],"key_events":[],"mouse_events":[3582.399999976158,4949,17006.5,21440.69999998808,27759.79999998212,33009.79999998212,35225.5,37393.79999998212],"straightlining":0.42857142857142855,"zigzagging":0.3333333333333333,"honeypot":0,"survey":"nfc6","trial_type":"survey-template","trial_index":3,"time_elapsed":89310,"internal_node_id":"0.0-3.0","experiment":"validation","task_version":"1.1","jspsych_version":"6.3.1","infrequency":0},{"responses":{"Q09":"1","Q05":"1","Q06":"3","Q11":"4","Q02":"1","Q03":"0","Q10":"1","Q07":"1","Q04":"0","Q08":"1","Q01":"0"},"rt":25972.100000023842,"item_order":[8,4,5,10,1,2,9,6,3,7,0],"radio_events":[4099.600000023842,5346.800000011921,6543.100000023842,8782.600000023842,10095.700000017881,12974.700000017881,15449.700000017881,16882,19770.30000001192,23693.100000023842,25112.5],"key_events":[],"mouse_events":[4099.600000023842,5346.800000011921,6543.100000023842,8782.600000023842,10095.700000017881,12247.600000023842,12974.700000017881,15449.700000017881,16882,19770.30000001192,20796.70000001788,22045.90000000596,23693.100000023842,25112.5,25965.100000023842],"straightlining":0.36363636363636365,"zigzagging":0.1,"honeypot":0,"survey":"neuroticism","trial_type":"survey-template","trial_index":4,"time_elapsed":115298,"internal_node_id":"0.0-4.0","experiment":"validation","task_version":"1.1","jspsych_version":"6.3.1","infrequency":0},{"value":[0,1.155844155844156,0.8333333333333334],"trial_type":"call-function","trial_index":5,"time_elapsed":115307,"internal_node_id":"0.0-5.0","experiment":"validation","task_version":"1.1","jspsych_version":"6.3.1","interactions":"[]"}]