[{"view_history":[{"page_index":0,"viewing_time":3647.900000035763}],"rt":3648.2000000476837,"trial_type":"instructions","trial_index":0,"time_elapsed":3662,"internal_node_id":"0.0-0.0","experiment":"validation","task_version":"1.1","jspsych_version":"6.3.1"},{"rt":7798.899999976158,"responses":{"age":"45","gender-categorical":"Male","gender-free-response":"","ethnicity":"Not Hispanic or Latino","race":["White"],"education":"Associate degree"},"survey":"demographics","trial_type":"survey-demo","trial_index":1,"time_elapsed":11463,"internal_node_id":"0.0-1.0","experiment":"validation","task_version":"1.1","jspsych_version":"6.3.1"},{"responses":{"Q03":"1","Q02":"0","Q11":"0","Q07":"1","Q05":"1","Q01":"1","Q04":"1","Q09":"1","Q08":"1","Q10":"1","Q06":"1"},"rt":16649.100000023842,"item_order":[2,1,10,6,4,0,3,8,7,9,5],"radio_events":[2746.300000011921,3433.900000035763,4109.600000023842,4926.200000047684,6353.400000035763,7487.5,8683.700000047684,10186.5,12374.800000011921,13112.600000023842,14704.400000035763,16119.5],"key_events":[],"mouse_events":[2746.300000011921,3433.900000035763,4109.600000023842,4926.200000047684,6353.400000035763,7487.5,8683.700000047684,10186.5,12374.800000011921,13112.600000023842,14704.400000035763,16119.5,16648.100000023842],"straightlining":0.45454545454545453,"zigzagging":0.1,"honeypot":0,"survey":"neuroticism","trial_type":"survey-template","trial_index":2,"time_elapsed":28118,"internal_node_id":"0.0-2.0","experiment":"validation","task_version":"1.1","jspsych_version":"6.3.1","infrequency":1},{"responses":{"Q03":"3","Q07":"4","Q10":"3","Q06":"4","Q09":"4","Q01":"4","Q08":"3","Q04":"1","Q02":"4","Q11":"0","Q05":"0"},"rt":18459.5,"item_order":[2,6,9,5,8,0,7,3,1,10,4],"radio_events":[2791.800000011921,4667.600000023842,6204.400000035763,7752.800000011921,8734,10091.5,11788.700000047684,13224.200000047684,14227.200000047684,16290.600000023842,17172,18114.80000001192],"key_events":[],"mouse_events":[2791.800000011921,4667.600000023842,6204.400000035763,7752.800000011921,8734,10091.5,11788.700000047684,13224.200000047684,14227.200000047684,16290.600000023842,17172,18114.80000001192,18457],"straightlining":0.36363636363636365,"zigzagging":0.6,"honeypot":0,"survey":"openness","trial_type":"survey-template","trial_index":3,"time_elapsed":46581,"internal_node_id":"0.0-3.0","experiment":"validation","task_version":"1.1","jspsych_version":"6.3.1","infrequency":0},{"responses":{"Q01":"3","Q06":"3","Q05":"4","Q03":"3","Q07":"2","Q02":"3","Q04":"3"},"rt":14473.400000035763,"item_order":[0,5,4,2,6,1,3],"radio_events":[2782.199999988079,3171.699999988079,4087.699999988079,6863.900000035763,7547,9481.699999988079,12162.5,13680.199999988079],"key_events":[],"mouse_events":[2461.199999988079,2782.199999988079,3171.699999988079,4087.699999988079,6863.900000035763,7547,9481.699999988079,12162.5,13680.199999988079,14471.800000011921],"straightlining":0.42857142857142855,"zigzagging":0.5,"honeypot":0,"survey":"nfc6","trial_type":"survey-template","trial_index":4,"time_elapsed":61059,"internal_node_id":"0.0-4.0","experiment":"validation","task_version":"1.1","jspsych_version":"6.3.1","infrequency":0},{"value":[1,1.2467532467532467,1.2],"trial_type":"call-function","trial_index":5,"time_elapsed":61060,"internal_node_id":"0.0-5.0","experiment":"validation","task_version":"1.1","jspsych_version":"6.3.1","interactions":"[{\"event\":\"blur\",\"trial\":0,\"time\":2349},{\"event\":\"focus\",\"trial\":0,\"time\":2400}]"}]