[{"view_history":[{"page_index":0,"viewing_time":3066.5}],"rt":3066.9000000953674,"trial_type":"instructions","trial_index":0,"time_elapsed":3096,"internal_node_id":"0.0-0.0","experiment":"validation","task_version":"1.1","jspsych_version":"6.3.1"},{"rt":18180.699999809265,"responses":{"age":"23","gender-categorical":"Female","gender-free-response":"","ethnicity":"Not Hispanic or Latino","race":["White"],"education":"Associate degree"},"survey":"demographics","trial_type":"survey-demo","trial_index":1,"time_elapsed":21283,"internal_node_id":"0.0-1.0","experiment":"validation","task_version":"1.1","jspsych_version":"6.3.1"},{"responses":{"Q04":"3","Q10":"2","Q03":"2","Q11":"0","Q09":"2","Q05":"0","Q01":"4","Q02":"4","Q06":"4","Q08":"2","Q07":"4"},"rt":47662.299999952316,"item_order":[3,9,2,10,8,4,0,1,5,7,6],"radio_events":[9943.299999952316,14427.899999856949,17144.799999952316,22532.200000047684,26641.299999952316,30588.799999952316,34010.5,35527,39255.700000047684,40500,43044.59999990463,46614.700000047684],"key_events":[],"mouse_events":[9943.299999952316,14427.899999856949,17144.799999952316,22532.200000047684,26641.299999952316,30588.799999952316,34010.5,35527,39255.700000047684,40500,43044.59999990463,46614.700000047684,47658.89999985695],"straightlining":0.36363636363636365,"zigzagging":0.2,"honeypot":0,"survey":"openness","trial_type":"survey-template","trial_index":2,"time_elapsed":68957,"internal_node_id":"0.0-2.0","experiment":"validation","task_version":"1.1","jspsych_version":"6.3.1","infrequency":0},{"responses":{"Q03":"1","Q06":"1","Q01":"1","Q05":"3","Q04":"1","Q07":"2","Q02":"0"},"rt":52498.10000014305,"item_order":[2,5,0,4,3,6,1],"radio_events":[6235.700000047684,22430.300000190735,28117.700000047684,33716.800000190735,35660.90000009537,40999.90000009537,43703.90000009537,50147.200000047684,51603.800000190735],"key_events":[],"mouse_events":[6235.700000047684,22430.300000190735,28117.700000047684,32140.300000190735,33716.800000190735,35660.90000009537,40999.90000009537,43703.90000009537,50147.200000047684,51603.800000190735,52496],"straightlining":0.42857142857142855,"zigzagging":0.16666666666666666,"honeypot":0,"survey":"nfc6","trial_type":"survey-template","trial_index":3,"time_elapsed":121463,"internal_node_id":"0.0-3.0","experiment":"validation","task_version":"1.1","jspsych_version":"6.3.1","infrequency":0},{"responses":{"Q09":"3","Q03":"2","Q11":"4","Q04":"2","Q07":"3","Q05":"3","Q02":"3","Q01":"2","Q08":"3","Q10":"3","Q06":"3"},"rt":41318.299999952316,"item_order":[8,2,10,3,6,4,1,0,7,9,5],"radio_events":[4515.899999856949,7512.599999904633,8700.899999856949,10269.199999809265,13354.399999856949,16755,20712.199999809265,24261.39999985695,26737.5,29250.099999904633,31359.099999904633,33375.199999809265,34727.699999809265,37132],"key_events":[],"mouse_events":[4515.899999856949,7512.599999904633,8700.899999856949,10269.199999809265,13354.399999856949,16755,20712.199999809265,24261.39999985695,26737.5,29250.099999904633,31359.099999904633,33375.199999809265,34727.699999809265,37132,41313],"straightlining":0.45454545454545453,"zigzagging":0.4,"honeypot":0,"survey":"neuroticism","trial_type":"survey-template","trial_index":4,"time_elapsed":162788,"internal_node_id":"0.0-4.0","experiment":"validation","task_version":"1.1","jspsych_version":"6.3.1","infrequency":0},{"value":[0,1.2467532467532467,0.7666666666666667],"trial_type":"call-function","trial_index":5,"time_elapsed":162791,"internal_node_id":"0.0-5.0","experiment":"validation","task_version":"1.1","jspsych_version":"6.3.1","interactions":"[]"}]