[{"view_history":[{"page_index":0,"viewing_time":1750.5}],"rt":1750.800000011921,"trial_type":"instructions","trial_index":0,"time_elapsed":1757,"internal_node_id":"0.0-0.0","experiment":"validation","task_version":"1.1","jspsych_version":"6.3.1"},{"rt":14518,"responses":{"age":"65","gender-categorical":"Female","gender-free-response":"","ethnicity":"Not Hispanic or Latino","race":["American Indian/Alaska Native","White"],"education":"Rather not say"},"survey":"demographics","trial_type":"survey-demo","trial_index":1,"time_elapsed":16278,"internal_node_id":"0.0-1.0","experiment":"validation","task_version":"1.1","jspsych_version":"6.3.1"},{"responses":{"Q07":"4","Q02":"3","Q10":"4","Q01":"4","Q09":"3","Q08":"4","Q05":"0","Q04":"2","Q03":"4","Q06":"4","Q11":"0"},"rt":27132.69999998808,"item_order":[6,1,9,0,8,7,4,3,2,5,10],"radio_events":[3147.5999999940395,5547,7347.0999999940395,10387.299999982119,11867.199999988079,15883.40000000596,17651,19299.5,22187.09999999404,24378.5,25658.90000000596],"key_events":[],"mouse_events":[3147.5999999940395,5547,7347.0999999940395,10387.299999982119,11867.199999988079,14595.699999988079,15883.40000000596,17651,19299.5,22187.09999999404,24378.5,25658.90000000596,27131.09999999404],"straightlining":0.45454545454545453,"zigzagging":0.4,"honeypot":0,"survey":"openness","trial_type":"survey-template","trial_index":2,"time_elapsed":43416,"internal_node_id":"0.0-2.0","experiment":"validation","task_version":"1.1","jspsych_version":"6.3.1","infrequency":0},{"responses":{"Q10":"2","Q08":"0","Q06":"2","Q05":"0","Q01":"1","Q04":"0","Q09":"1","Q03":"1","Q07":"3","Q11":"4","Q02":"0"},"rt":32123.09999999404,"item_order":[9,7,5,4,0,3,8,2,6,10,1],"radio_events":[3410.0999999940395,4994.0999999940395,7634,11873.90000000596,14025.90000000596,15809.90000000596,19073.59999999404,21761.90000000596,22649.40000000596,28865.90000000596,30993.69999998808],"key_events":[],"mouse_events":[3410.0999999940395,4994.0999999940395,7634,9825.699999988079,11873.90000000596,14025.90000000596,15809.90000000596,19073.59999999404,21761.90000000596,22649.40000000596,28865.90000000596,30993.69999998808,32121.80000001192],"straightlining":0.2727272727272727,"zigzagging":0.3,"honeypot":0,"survey":"neuroticism","trial_type":"survey-template","trial_index":3,"time_elapsed":75543,"internal_node_id":"0.0-3.0","experiment":"validation","task_version":"1.1","jspsych_version":"6.3.1","infrequency":0},{"responses":{"Q05":"3","Q07":"2","Q02":"3","Q06":"3","Q03":"3","Q01":"3","Q04":"3"},"rt":22923.59999999404,"item_order":[4,6,1,5,2,0,3],"radio_events":[5058.5,7098.9000000059605,9466.59999999404,12354.699999988079,15978.59999999404,18042.40000000596,21650.30000001192],"key_events":[],"mouse_events":[5058.5,7098.9000000059605,9466.59999999404,11074.5,12354.699999988079,15978.59999999404,18042.40000000596,21650.30000001192,22922.5],"straightlining":0.5714285714285714,"zigzagging":0.3333333333333333,"honeypot":0,"survey":"nfc6","trial_type":"survey-template","trial_index":4,"time_elapsed":98470,"internal_node_id":"0.0-4.0","experiment":"validation","task_version":"1.1","jspsych_version":"6.3.1","infrequency":0},{"value":[0,1.2987012987012987,1.0333333333333332],"trial_type":"call-function","trial_index":5,"time_elapsed":98472,"internal_node_id":"0.0-5.0","experiment":"validation","task_version":"1.1","jspsych_version":"6.3.1","interactions":"[]"}]