[{"view_history":[{"page_index":0,"viewing_time":2967.5}],"rt":2967.9000000059605,"trial_type":"instructions","trial_index":0,"time_elapsed":2984,"internal_node_id":"0.0-0.0","experiment":"validation","task_version":"1.1","jspsych_version":"6.3.1"},{"rt":30814.69999998808,"responses":{"age":"57","gender-categorical":"Male","gender-free-response":"","ethnicity":"Not Hispanic or Latino","race":["White"],"education":"Bachelor degree"},"survey":"demographics","trial_type":"survey-demo","trial_index":1,"time_elapsed":33799,"internal_node_id":"0.0-1.0","experiment":"validation","task_version":"1.1","jspsych_version":"6.3.1"},{"responses":{"Q07":"4","Q11":"0","Q04":"0","Q10":"2","Q08":"3","Q06":"4","Q02":"4","Q05":"0","Q03":"2","Q01":"4","Q09":"4"},"rt":30933.40000000596,"item_order":[6,10,3,9,7,5,1,4,2,0,8],"radio_events":[6002.799999982119,6602.9000000059605,13458.299999982119,15786.5,18034.69999998808,20146.29999998212,21842.40000000596,23202.29999998212,25978.19999998808,28002.40000000596,30218.69999998808],"key_events":[],"mouse_events":[4042.2999999821186,5314.5,6002.799999982119,6602.9000000059605,13458.299999982119,15786.5,18034.69999998808,20146.29999998212,21842.40000000596,23202.29999998212,25418.29999998212,25978.19999998808,28002.40000000596,30218.69999998808,30930.69999998808],"straightlining":0.36363636363636365,"zigzagging":0.5,"honeypot":0,"survey":"openness","trial_type":"survey-template","trial_index":2,"time_elapsed":64736,"internal_node_id":"0.0-2.0","experiment":"validation","task_version":"1.1","jspsych_version":"6.3.1","infrequency":0},{"responses":{"Q04":"4","Q02":"4","Q01":"4","Q03":"4","Q06":"4","Q05":"4","Q07":"2"},"rt":46699.39999997616,"item_order":[3,1,0,2,5,4,6],"radio_events":[16225.5,19657.59999999404,23481.5,28977.29999998212,38523,39249.79999998212,43745.39999997616,45945.5],"key_events":[],"mouse_events":[16225.5,19657.59999999404,20529.29999998212,23481.5,28977.29999998212,35049.5,38523,39249.79999998212,39849.5,43745.39999997616,45945.5,46697.39999997616],"straightlining":0.5714285714285714,"zigzagging":0.5,"honeypot":0,"survey":"nfc6","trial_type":"survey-template","trial_index":3,"time_elapsed":111481,"internal_node_id":"0.0-3.0","experiment":"validation","task_version":"1.1","jspsych_version":"6.3.1","infrequency":0},{"responses":{"Q05":"0","Q04":"0","Q10":"0","Q02":"0","Q07":"0","Q01":"0","Q11":"4","Q06":"0","Q09":"0","Q03":"0","Q08":"0"},"rt":20862,"item_order":[4,3,9,1,6,0,10,5,8,2,7],"radio_events":[2179.300000011921,3235,4563,5819.5,7451.300000011921,8722.40000000596,10442.40000000596,12139,15203.200000017881,17411,18867],"key_events":[],"mouse_events":[2179.300000011921,3235,4563,5819.5,7451.300000011921,8722.40000000596,10442.40000000596,12139,15203.200000017881,17411,18867,20859.40000000596],"straightlining":0.5454545454545454,"zigzagging":0.7,"honeypot":0,"survey":"neuroticism","trial_type":"survey-template","trial_index":4,"time_elapsed":132349,"internal_node_id":"0.0-4.0","experiment":"validation","task_version":"1.1","jspsych_version":"6.3.1","infrequency":0},{"value":[0,1.4805194805194803,1.7],"trial_type":"call-function","trial_index":5,"time_elapsed":132351,"internal_node_id":"0.0-5.0","experiment":"validation","task_version":"1.1","jspsych_version":"6.3.1","interactions":"[]"}]