[{"view_history":[{"page_index":0,"viewing_time":2520}],"rt":2520.2000000011176,"trial_type":"instructions","trial_index":0,"time_elapsed":2534,"internal_node_id":"0.0-0.0","experiment":"validation","task_version":"2.0","jspsych_version":"6.3.1"},{"rt":15642.400000000373,"responses":{"age":"43","gender-categorical":"Male","gender-free-response":"","ethnicity":"Not Hispanic or Latino","race":["White"],"education":"Master degree or higher"},"survey":"demographics","trial_type":"survey-demo","trial_index":1,"time_elapsed":18179,"internal_node_id":"0.0-1.0","experiment":"validation","task_version":"2.0","jspsych_version":"6.3.1"},{"responses":{"Q08":"3","Q02":"2","Q04":"3","Q01":"2","Q05":"2","Q06":"3","Q03":"2","Q07":"3","Q09":"4"},"rt":40720.300000000745,"item_order":[7,1,3,0,4,5,2,6,8],"radio_events":[3796.300000000745,12804.599999999627,13664,15814.400000000373,17880.400000000373,23344.300000000745,26846.5,29998.300000000745,33672.300000000745],"key_events":[],"mouse_events":[3796.300000000745,8864.199999999255,12804.599999999627,13664,15814.400000000373,17880.400000000373,21828.400000000373,23344.300000000745,26846.5,29998.300000000745,33672.300000000745,40719.40000000037],"straightlining":0.4444444444444444,"zigzagging":0.75,"honeypot":0,"survey":"pcf","trial_type":"survey-template","trial_index":2,"time_elapsed":58902,"internal_node_id":"0.0-2.0","experiment":"validation","task_version":"2.0","jspsych_version":"6.3.1","infrequency":0},{"rt":44435.09999999963,"response":{"Q7":5,"Q4":5,"Q0":3,"Q3":4,"Q8":0,"Q6":5,"Q5":4,"Q2":3,"Q1":4},"question_order":[7,4,0,3,8,6,5,2,1],"survey":"sns","trial_type":"survey-likert","trial_index":3,"time_elapsed":103340,"internal_node_id":"0.0-3.0","experiment":"validation","task_version":"2.0","jspsych_version":"6.3.1","infrequency":0},{"responses":{"Q09":"3","Q03":"3","Q06":"2","Q02":"2","Q05":"3","Q07":"3","Q04":"3","Q08":"3","Q11":"0","Q01":"3","Q10":"3"},"rt":75329.79999999888,"item_order":[8,2,5,1,4,6,3,7,10,0,9],"radio_events":[7995.5999999996275,8911.199999999255,13484.400000000373,24742.099999999627,35721.199999999255,45158.199999999255,49818.699999999255,58066.90000000037,62710.199999999255,63406.29999999888,69192.40000000037,69942.5,74078.40000000037],"key_events":[],"mouse_events":[4281.799999998882,7995.5999999996275,8911.199999999255,13484.400000000373,23390.199999999255,24742.099999999627,35721.199999999255,44322.29999999888,45158.199999999255,49818.699999999255,52514.29999999888,58066.90000000037,61920.5,62710.199999999255,63406.29999999888,68308,68894.29999999888,69192.40000000037,69942.5,70794.40000000037,74078.40000000037,75328.59999999963],"straightlining":0.45454545454545453,"zigzagging":0.2,"honeypot":0,"survey":"nfc10","trial_type":"survey-template","trial_index":4,"time_elapsed":178672,"internal_node_id":"0.0-4.0","experiment":"validation","task_version":"2.0","jspsych_version":"6.3.1","infrequency":0},{"value":0,"trial_type":"call-function","trial_index":5,"time_elapsed":178674,"internal_node_id":"0.0-5.0","experiment":"validation","task_version":"2.0","jspsych_version":"6.3.1","interactions":"[]"}]