[{"view_history":[{"page_index":0,"viewing_time":3211}],"rt":3211,"trial_type":"instructions","trial_index":0,"time_elapsed":3222,"internal_node_id":"0.0-0.0","experiment":"validation","task_version":"2.0","jspsych_version":"6.3.1"},{"rt":13684,"responses":{"age":"26","gender-categorical":"Female","gender-free-response":"","ethnicity":"Not Hispanic or Latino","race":["White"],"education":"High school"},"survey":"demographics","trial_type":"survey-demo","trial_index":1,"time_elapsed":16910,"internal_node_id":"0.0-1.0","experiment":"validation","task_version":"2.0","jspsych_version":"6.3.1"},{"rt":61899,"response":{"Q8":0,"Q5":1,"Q2":1,"Q6":1,"Q0":2,"Q7":2,"Q1":2,"Q3":1,"Q4":2},"question_order":[8,5,2,6,0,7,1,3,4],"survey":"sns","trial_type":"survey-likert","trial_index":2,"time_elapsed":78817,"internal_node_id":"0.0-2.0","experiment":"validation","task_version":"2.0","jspsych_version":"6.3.1","infrequency":0},{"responses":{"Q05":"3","Q03":"3","Q02":"3","Q09":"4","Q04":"3","Q06":"2","Q08":"2","Q01":"2","Q07":"3"},"rt":40532,"item_order":[4,2,1,8,3,5,7,0,6],"radio_events":[10877,14102,20636,22090,23978,29426,32284.000000000015,36178,37648,39436.000000000015],"key_events":[],"mouse_events":[7702,8654,9690,10877,14102,19700,20636,22090,23978,29426,32284.000000000015,35459,36178,37648,38985,39436.000000000015,40523],"straightlining":0.5555555555555556,"zigzagging":0.25,"honeypot":0,"survey":"pcf","trial_type":"survey-template","trial_index":3,"time_elapsed":119357,"internal_node_id":"0.0-3.0","experiment":"validation","task_version":"2.0","jspsych_version":"6.3.1","infrequency":0},{"responses":{"Q04":"2","Q06":"1","Q07":"2","Q03":"1","Q09":"1","Q02":"1","Q05":"2","Q11":"0","Q08":"2","Q01":"1","Q10":"2"},"rt":70217.99999999999,"item_order":[3,5,6,2,8,1,4,10,7,0,9],"radio_events":[7772.999999999985,10262.999999999985,14824.999999999985,17498.999999999985,24199.999999999985,27491.999999999985,30633.999999999985,41228.999999999985,47946.999999999985,53110.999999999985,56870.999999999985,60814.999999999985,66095.99999999999],"key_events":[],"mouse_events":[6853.999999999985,7772.999999999985,10262.999999999985,14824.999999999985,17498.999999999985,23564.999999999985,24199.999999999985,26890.999999999985,27491.999999999985,29781.999999999985,30633.999999999985,34059.999999999985,34711.999999999985,41228.999999999985,47946.999999999985,52525.999999999985,53110.999999999985,56870.999999999985,59711.999999999985,60814.999999999985,61683.999999999985,64407.999999999985,65543.99999999999,66095.99999999999,70205.99999999999],"straightlining":0.45454545454545453,"zigzagging":0.6,"honeypot":0,"survey":"nfc10","trial_type":"survey-template","trial_index":4,"time_elapsed":189583,"internal_node_id":"0.0-4.0","experiment":"validation","task_version":"2.0","jspsych_version":"6.3.1","infrequency":0},{"value":0,"trial_type":"call-function","trial_index":5,"time_elapsed":189586,"internal_node_id":"0.0-5.0","experiment":"validation","task_version":"2.0","jspsych_version":"6.3.1","interactions":"[]"}]