[{"view_history":[{"page_index":0,"viewing_time":2233.8350000063656}],"rt":2234.1549999982817,"trial_type":"instructions","trial_index":0,"time_elapsed":2314,"internal_node_id":"0.0-0.0","experiment":"validation","task_version":"2.0","jspsych_version":"6.3.1"},{"rt":12262.625000003027,"responses":{"age":"22","gender-categorical":"Female","gender-free-response":"","ethnicity":"Not Hispanic or Latino","race":["White"],"education":"Bachelor degree"},"survey":"demographics","trial_type":"survey-demo","trial_index":1,"time_elapsed":14705,"internal_node_id":"0.0-1.0","experiment":"validation","task_version":"2.0","jspsych_version":"6.3.1"},{"responses":{"Q03":"1","Q02":"3","Q04":"2","Q06":"3","Q07":"4","Q01":"3","Q08":"3","Q05":"3","Q09":"4"},"rt":68776.31999998994,"item_order":[2,1,3,5,6,0,7,4,8],"radio_events":[23145.314999987022,45336.57999998832,48328.194999994594,51036.684999999125,56042.94499999378,59476.109999988694,63007.85499998892,64869.70999999903,67716.50999999838],"key_events":[],"mouse_events":[23145.314999987022,37934.94499998633,41240.119999987655,44683.68499999633,45336.57999998832,48328.194999994594,51036.684999999125,56042.94499999378,59476.109999988694,63007.85499998892,64869.70999999903,67716.50999999838,68772.82499999274],"straightlining":0.5555555555555556,"zigzagging":0.5,"honeypot":0,"survey":"pcf","trial_type":"survey-template","trial_index":2,"time_elapsed":83486,"internal_node_id":"0.0-2.0","experiment":"validation","task_version":"2.0","jspsych_version":"6.3.1","infrequency":0},{"responses":{"Q10":"3","Q01":"4","Q11":"0","Q09":"3","Q08":"3","Q05":"0","Q02":"3","Q03":"3","Q06":"3","Q04":"1","Q07":"2"},"rt":58139.08999999694,"item_order":[9,0,10,8,7,4,1,2,5,3,6],"radio_events":[10348.159999994095,14725.409999999101,22836.054999992484,26238.884999998845,29641.894999993383,32714.259999993374,36359.15499999828,40343.11999999045,45204.18000000063,50613.96999999124,57225.01999999804],"key_events":[],"mouse_events":[10348.159999994095,14063.179999997374,14725.409999999101,21457.125000000815,22836.054999992484,26238.884999998845,29641.894999993383,32714.259999993374,36359.15499999828,40343.11999999045,45204.18000000063,50613.96999999124,56330.09000000311,57225.01999999804,58136.719999994966],"straightlining":0.5454545454545454,"zigzagging":0.5,"honeypot":0,"survey":"nfc10","trial_type":"survey-template","trial_index":3,"time_elapsed":141629,"internal_node_id":"0.0-3.0","experiment":"validation","task_version":"2.0","jspsych_version":"6.3.1","infrequency":0},{"rt":53135.24499999767,"response":{"Q7":5,"Q6":1,"Q1":3,"Q8":0,"Q0":0,"Q4":5,"Q2":4,"Q5":4,"Q3":4},"question_order":[7,6,1,8,0,4,2,5,3],"survey":"sns","trial_type":"survey-likert","trial_index":4,"time_elapsed":194770,"internal_node_id":"0.0-4.0","experiment":"validation","task_version":"2.0","jspsych_version":"6.3.1","infrequency":0},{"value":0,"trial_type":"call-function","trial_index":5,"time_elapsed":194772,"internal_node_id":"0.0-5.0","experiment":"validation","task_version":"2.0","jspsych_version":"6.3.1","interactions":"[]"}]