[{"view_history":[{"page_index":0,"viewing_time":2211.600000143051}],"rt":2211.7000000476837,"trial_type":"instructions","trial_index":0,"time_elapsed":2225,"internal_node_id":"0.0-0.0","experiment":"validation","task_version":"2.0","jspsych_version":"6.3.1"},{"rt":16575,"responses":{"age":"36","gender-categorical":"Other","gender-free-response":"non binary","ethnicity":"Not Hispanic or Latino","race":["Black or African American"],"education":"Bachelor degree"},"survey":"demographics","trial_type":"survey-demo","trial_index":1,"time_elapsed":18802,"internal_node_id":"0.0-1.0","experiment":"validation","task_version":"2.0","jspsych_version":"6.3.1"},{"rt":63698.39999985695,"response":{"Q8":0,"Q2":4,"Q7":4,"Q0":4,"Q6":3,"Q1":4,"Q3":4,"Q4":4,"Q5":4},"question_order":[8,2,7,0,6,1,3,4,5],"survey":"sns","trial_type":"survey-likert","trial_index":2,"time_elapsed":82503,"internal_node_id":"0.0-2.0","experiment":"validation","task_version":"2.0","jspsych_version":"6.3.1","infrequency":0},{"responses":{"Q10":"3","Q07":"3","Q01":"2","Q08":"3","Q06":"1","Q05":"2","Q03":"3","Q11":"0","Q09":"1","Q04":"1","Q02":"2"},"rt":64400.60000014305,"item_order":[9,6,0,7,5,4,2,10,8,3,1],"radio_events":[7449,15932.900000095367,18510.800000190735,25220.800000190735,29688.700000047684,35446.700000047684,40540.90000009537,46665.10000014305,52218.90000009537,60165.200000047684,63399.200000047684],"key_events":[],"mouse_events":[7449,14330.900000095367,15010.600000143051,15932.900000095367,18510.800000190735,24104.200000047684,24626.400000095367,25220.800000190735,29298.900000095367,29688.700000047684,34775.10000014305,35446.700000047684,39369,40540.90000009537,46665.10000014305,51735.300000190735,52218.90000009537,60165.200000047684,63399.200000047684,64399.40000009537],"straightlining":0.36363636363636365,"zigzagging":0.7,"honeypot":0,"survey":"nfc10","trial_type":"survey-template","trial_index":3,"time_elapsed":146907,"internal_node_id":"0.0-3.0","experiment":"validation","task_version":"2.0","jspsych_version":"6.3.1","infrequency":0},{"responses":{"Q01":"2","Q08":"4","Q09":"4","Q05":"2","Q06":"2","Q04":"2","Q02":"2","Q07":"2","Q03":"1"},"rt":44352.299999952316,"item_order":[0,7,8,4,5,3,1,6,2],"radio_events":[4737.600000143051,8635.299999952316,11245.5,15189.600000143051,19869.700000047684,30797.60000014305,35517.700000047684,37821.700000047684,42696.200000047684],"key_events":[],"mouse_events":[4737.600000143051,7627.700000047684,8635.299999952316,11245.5,14665.799999952316,15189.600000143051,19869.700000047684,29642.400000095367,30400,30797.60000014305,35157.90000009537,35517.700000047684,37821.700000047684,41664.299999952316,42016,42351.40000009537,42696.200000047684,44351.5],"straightlining":0.6666666666666666,"zigzagging":0.25,"honeypot":0,"survey":"pcf","trial_type":"survey-template","trial_index":4,"time_elapsed":191261,"internal_node_id":"0.0-4.0","experiment":"validation","task_version":"2.0","jspsych_version":"6.3.1","infrequency":0},{"value":0,"trial_type":"call-function","trial_index":5,"time_elapsed":191262,"internal_node_id":"0.0-5.0","experiment":"validation","task_version":"2.0","jspsych_version":"6.3.1","interactions":"[]"}]