[{"view_history":[{"page_index":0,"viewing_time":2085}],"rt":2086.0999999940395,"trial_type":"instructions","trial_index":0,"time_elapsed":2115,"internal_node_id":"0.0-0.0","experiment":"validation","task_version":"2.0","jspsych_version":"6.3.1"},{"rt":11572.09999999404,"responses":{"age":"18","gender-categorical":"Female","gender-free-response":"","ethnicity":"Not Hispanic or Latino","race":["Asian"],"education":"High school"},"survey":"demographics","trial_type":"survey-demo","trial_index":1,"time_elapsed":13699,"internal_node_id":"0.0-1.0","experiment":"validation","task_version":"2.0","jspsych_version":"6.3.1"},{"responses":{"Q07":"2","Q03":"1","Q05":"3","Q08":"3","Q11":"0","Q01":"2","Q10":"3","Q06":"3","Q09":"2","Q02":"2","Q04":"2"},"rt":65039.59999999404,"item_order":[6,2,4,7,10,0,9,5,8,1,3],"radio_events":[17381.20000000298,21335.59999999404,30190,31214.20000000298,39158.5,46599.5,52706.40000000596,54660.5,57714.40000000596,61279.40000000596,63834.09999999404],"key_events":[],"mouse_events":[17381.20000000298,21335.59999999404,26392.59999999404,27368.29999999702,29351.20000000298,30190,31214.20000000298,39158.5,46599.5,52706.40000000596,54660.5,56681.79999999702,57714.40000000596,61279.40000000596,62572.29999999702,63834.09999999404,65023.90000000596],"straightlining":0.45454545454545453,"zigzagging":0.3,"honeypot":0,"survey":"nfc10","trial_type":"survey-template","trial_index":2,"time_elapsed":78765,"internal_node_id":"0.0-2.0","experiment":"validation","task_version":"2.0","jspsych_version":"6.3.1","infrequency":0},{"rt":43831.90000000596,"response":{"Q4":3,"Q2":1,"Q8":0,"Q5":0,"Q6":3,"Q3":3,"Q1":3,"Q7":2,"Q0":3},"question_order":[4,2,8,5,6,3,1,7,0],"survey":"sns","trial_type":"survey-likert","trial_index":3,"time_elapsed":122622,"internal_node_id":"0.0-3.0","experiment":"validation","task_version":"2.0","jspsych_version":"6.3.1","infrequency":0},{"responses":{"Q06":"3","Q01":"2","Q09":"4","Q03":"4","Q08":"2","Q02":"2","Q04":"3","Q07":"3","Q05":"3"},"rt":36242.20000000298,"item_order":[5,0,8,2,7,1,3,6,4],"radio_events":[13560.70000000298,14961.60000000894,17156,21265,24452.20000000298,26573.20000000298,29678.29999999702,31033.90000000596,35084.60000000894],"key_events":[],"mouse_events":[12567.20000000298,13560.70000000298,14961.60000000894,17156,21265,23414.70000000298,24452.20000000298,26573.20000000298,29678.29999999702,31033.90000000596,33148.10000000894,34282.5,35084.60000000894,36231.5],"straightlining":0.4444444444444444,"zigzagging":0.375,"honeypot":0,"survey":"pcf","trial_type":"survey-template","trial_index":4,"time_elapsed":158883,"internal_node_id":"0.0-4.0","experiment":"validation","task_version":"2.0","jspsych_version":"6.3.1","infrequency":0},{"value":0,"trial_type":"call-function","trial_index":5,"time_elapsed":158892,"internal_node_id":"0.0-5.0","experiment":"validation","task_version":"2.0","jspsych_version":"6.3.1","interactions":"[{\"event\":\"blur\",\"trial\":2,\"time\":18027},{\"event\":\"focus\",\"trial\":2,\"time\":24838},{\"event\":\"blur\",\"trial\":4,\"time\":124724},{\"event\":\"focus\",\"trial\":4,\"time\":125415}]"}]