[{"view_history":[{"page_index":0,"viewing_time":2572.0999999046326}],"rt":2576.899999856949,"trial_type":"instructions","trial_index":0,"time_elapsed":2605,"internal_node_id":"0.0-0.0","experiment":"validation","task_version":"1.1","jspsych_version":"6.3.1"},{"rt":16042.699999809265,"responses":{"age":"25","gender-categorical":"Male","gender-free-response":"","ethnicity":"Not Hispanic or Latino","race":["White"],"education":"High school"},"survey":"demographics","trial_type":"survey-demo","trial_index":1,"time_elapsed":18660,"internal_node_id":"0.0-1.0","experiment":"validation","task_version":"1.1","jspsych_version":"6.3.1"},{"responses":{"Q01":"3","Q03":"3","Q04":"4","Q05":"3","Q02":"3","Q07":"2","Q06":"3"},"rt":39392.300000190735,"item_order":[0,2,3,4,1,6,5],"radio_events":[7598.800000190735,9801.5,16039.800000190735,21855.300000190735,25904,29508.800000190735,33255.40000009537,38581.10000014305],"key_events":[],"mouse_events":[7598.800000190735,8837.100000143051,9801.5,16039.800000190735,21855.300000190735,25292.10000014305,25904,29508.800000190735,33255.40000009537,37759.200000047684,38581.10000014305,39387.200000047684],"straightlining":0.5714285714285714,"zigzagging":0.5,"honeypot":0,"survey":"nfc6","trial_type":"survey-template","trial_index":2,"time_elapsed":58074,"internal_node_id":"0.0-2.0","experiment":"validation","task_version":"1.1","jspsych_version":"6.3.1","infrequency":0},{"responses":{"Q08":"1","Q09":"0","Q04":"3","Q06":"3","Q10":"3","Q11":"4","Q02":"3","Q07":"3","Q05":"0","Q01":"1","Q03":"1"},"rt":41035.300000190735,"item_order":[7,8,3,5,9,10,1,6,4,0,2],"radio_events":[3652,6384.5,10105.5,10921.800000190735,16590.10000014305,21466.300000190735,23809.200000047684,27076.800000190735,30623.60000014305,32709.300000190735,35602.200000047684,39739.200000047684],"key_events":[],"mouse_events":[3652,6384.5,8531.700000047684,10105.5,10921.800000190735,16590.10000014305,20790.10000014305,21466.300000190735,23809.200000047684,27076.800000190735,29720.900000095367,30623.60000014305,32709.300000190735,35602.200000047684,39739.200000047684,41027.90000009537],"straightlining":0.45454545454545453,"zigzagging":0.5,"honeypot":0,"survey":"neuroticism","trial_type":"survey-template","trial_index":3,"time_elapsed":99126,"internal_node_id":"0.0-3.0","experiment":"validation","task_version":"1.1","jspsych_version":"6.3.1","infrequency":0},{"responses":{"Q10":"4","Q05":"0","Q09":"1","Q07":"1","Q03":"0","Q06":"4","Q01":"1","Q04":"1","Q08":"3","Q11":"0","Q02":"4"},"rt":35365.299999952316,"item_order":[9,4,8,6,2,5,0,3,7,10,1],"radio_events":[5368.700000047684,7248.900000095367,10460.400000095367,11585.600000143051,14520.100000143051,19781.60000014305,23222.299999952316,25489.10000014305,27878.60000014305,32007.799999952316,34339.10000014305],"key_events":[],"mouse_events":[4311.799999952316,5368.700000047684,7248.900000095367,10460.400000095367,11585.600000143051,14520.100000143051,19781.60000014305,23222.299999952316,25489.10000014305,27878.60000014305,32007.799999952316,34339.10000014305,35359.5],"straightlining":0.36363636363636365,"zigzagging":0.5,"honeypot":0,"survey":"openness","trial_type":"survey-template","trial_index":4,"time_elapsed":134510,"internal_node_id":"0.0-4.0","experiment":"validation","task_version":"1.1","jspsych_version":"6.3.1","infrequency":0},{"value":[0,1.3896103896103895,1.5],"trial_type":"call-function","trial_index":5,"time_elapsed":134518,"internal_node_id":"0.0-5.0","experiment":"validation","task_version":"1.1","jspsych_version":"6.3.1","interactions":"[]"}]