[{"success":true,"timeout":false,"failed_images":[],"failed_audio":[],"failed_video":[],"trial_type":"preload","trial_index":0,"time_elapsed":2394,"internal_node_id":"0.0-0.0","experiment":"validation","task_version":"1.1","jspsych_version":"6.3.1"},{"success":true,"trial_type":"fullscreen","trial_index":1,"time_elapsed":4372,"internal_node_id":"0.0-1.0","experiment":"validation","task_version":"1.1","jspsych_version":"6.3.1"},{"view_history":[{"page_index":0,"viewing_time":7289.70000000298},{"page_index":1,"viewing_time":83647.70000000298}],"rt":90938.29999999702,"trial_type":"instructions","trial_index":2,"time_elapsed":95314,"internal_node_id":"0.0-2.0","experiment":"validation","task_version":"1.1","jspsych_version":"6.3.1"},{"min_width":700,"min_height":600,"inner_width":1280,"inner_height":1024,"trial_type":"screen-check","trial_index":3,"time_elapsed":95315,"internal_node_id":"0.0-3.0-0.0-0.0","experiment":"validation","task_version":"1.1","jspsych_version":"6.3.1"},{"rt":null,"stimulus":"<div style=\"font-size:24px;\">Loading puzzle:<br>1 / 9</div>","response":null,"trial_type":"html-keyboard-response","trial_index":4,"time_elapsed":96520,"internal_node_id":"0.0-3.0-0.0-1.0","experiment":"validation","task_version":"1.1","jspsych_version":"6.3.1"},{"stimulus":"../static/img/rpm/a11.png","choice_order":[3,4,1,0,5,2],"correct":4,"choice":5,"accuracy":0,"rt":13805.10000000894,"screen_resolution":[1280,1024],"minimum_resolution":1,"all_loaded":true,"test_form":"a","trial_type":"rpm","trial_index":5,"time_elapsed":110330,"internal_node_id":"0.0-3.0-0.0-2.0","experiment":"validation","task_version":"1.1","jspsych_version":"6.3.1"},{"min_width":700,"min_height":600,"inner_width":1280,"inner_height":1024,"trial_type":"screen-check","trial_index":6,"time_elapsed":110331,"internal_node_id":"0.0-3.0-0.0-0.1","experiment":"validation","task_version":"1.1","jspsych_version":"6.3.1"},{"rt":null,"stimulus":"<div style=\"font-size:24px;\">Loading puzzle:<br>2 / 9</div>","response":null,"trial_type":"html-keyboard-response","trial_index":7,"time_elapsed":111533,"internal_node_id":"0.0-3.0-0.0-1.1","experiment":"validation","task_version":"1.1","jspsych_version":"6.3.1"},{"stimulus":"../static/img/rpm/a24.png","choice_order":[0,2,1,3,5,4],"correct":4,"choice":3,"accuracy":0,"rt":8700.5,"screen_resolution":[1280,1024],"minimum_resolution":1,"all_loaded":true,"test_form":"a","trial_type":"rpm","trial_index":8,"time_elapsed":120244,"internal_node_id":"0.0-3.0-0.0-2.1","experiment":"validation","task_version":"1.1","jspsych_version":"6.3.1"},{"min_width":700,"min_height":600,"inner_width":1280,"inner_height":1024,"trial_type":"screen-check","trial_index":9,"time_elapsed":120246,"internal_node_id":"0.0-3.0-0.0-0.2","experiment":"validation","task_version":"1.1","jspsych_version":"6.3.1"},{"rt":null,"stimulus":"<div style=\"font-size:24px;\">Loading puzzle:<br>3 / 9</div>","response":null,"trial_type":"html-keyboard-response","trial_index":10,"time_elapsed":121448,"internal_node_id":"0.0-3.0-0.0-1.2","experiment":"validation","task_version":"1.1","jspsych_version":"6.3.1"},{"stimulus":"../static/img/rpm/a28.png","choice_order":[6,2,1,3,0,4,7,5],"correct":7,"choice":7,"accuracy":1,"rt":15352.09999999404,"screen_resolution":[1280,1024],"minimum_resolution":1,"all_loaded":true,"test_form":"a","trial_type":"rpm","trial_index":11,"time_elapsed":136801,"internal_node_id":"0.0-3.0-0.0-2.2","experiment":"validation","task_version":"1.1","jspsych_version":"6.3.1"},{"min_width":700,"min_height":600,"inner_width":1280,"inner_height":1024,"trial_type":"screen-check","trial_index":12,"time_elapsed":136802,"internal_node_id":"0.0-3.0-0.0-0.3","experiment":"validation","task_version":"1.1","jspsych_version":"6.3.1"},{"rt":null,"stimulus":"<div style=\"font-size:24px;\">Loading puzzle:<br>4 / 9</div>","response":null,"trial_type":"html-keyboard-response","trial_index":13,"time_elapsed":138003,"internal_node_id":"0.0-3.0-0.0-1.3","experiment":"validation","task_version":"1.1","jspsych_version":"6.3.1"},{"stimulus":"../static/img/rpm/a36.png","choice_order":[2,1,7,5,0,4,6,3],"correct":1,"choice":3,"accuracy":0,"rt":23996.29999999702,"screen_resolution":[1280,1024],"minimum_resolution":1,"all_loaded":true,"test_form":"a","trial_type":"rpm","trial_index":14,"time_elapsed":162001,"internal_node_id":"0.0-3.0-0.0-2.3","experiment":"validation","task_version":"1.1","jspsych_version":"6.3.1"},{"min_width":700,"min_height":600,"inner_width":1280,"inner_height":1024,"trial_type":"screen-check","trial_index":15,"time_elapsed":162002,"internal_node_id":"0.0-3.0-0.0-0.4","experiment":"validation","task_version":"1.1","jspsych_version":"6.3.1"},{"rt":null,"stimulus":"<div style=\"font-size:24px;\">Loading puzzle:<br>5 / 9</div>","response":null,"trial_type":"html-keyboard-response","trial_index":16,"time_elapsed":163203,"internal_node_id":"0.0-3.0-0.0-1.4","experiment":"validation","task_version":"1.1","jspsych_version":"6.3.1"},{"stimulus":"../static/img/rpm/a43.png","choice_order":[0,6,1,4,3,5,7,2],"correct":4,"choice":0,"accuracy":0,"rt":20924.5,"screen_resolution":[1280,1024],"minimum_resolution":1,"all_loaded":true,"test_form":"a","trial_type":"rpm","trial_index":17,"time_elapsed":184130,"internal_node_id":"0.0-3.0-0.0-2.4","experiment":"validation","task_version":"1.1","jspsych_version":"6.3.1"},{"min_width":700,"min_height":600,"inner_width":1280,"inner_height":1024,"trial_type":"screen-check","trial_index":18,"time_elapsed":184130,"internal_node_id":"0.0-3.0-0.0-0.5","experiment":"validation","task_version":"1.1","jspsych_version":"6.3.1"},{"rt":null,"stimulus":"<div style=\"font-size:24px;\">Loading puzzle:<br>6 / 9</div>","response":null,"trial_type":"html-keyboard-response","trial_index":19,"time_elapsed":185331,"internal_node_id":"0.0-3.0-0.0-1.5","experiment":"validation","task_version":"1.1","jspsych_version":"6.3.1"},{"stimulus":"../static/img/rpm/a48.png","choice_order":[4,0,1,7,3,2,5,6],"correct":5,"choice":5,"accuracy":1,"rt":21827.60000000894,"screen_resolution":[1280,1024],"minimum_resolution":1,"all_loaded":true,"test_form":"a","trial_type":"rpm","trial_index":20,"time_elapsed":207162,"internal_node_id":"0.0-3.0-0.0-2.5","experiment":"validation","task_version":"1.1","jspsych_version":"6.3.1"},{"min_width":700,"min_height":600,"inner_width":1280,"inner_height":1024,"trial_type":"screen-check","trial_index":21,"time_elapsed":207163,"internal_node_id":"0.0-3.0-0.0-0.6","experiment":"validation","task_version":"1.1","jspsych_version":"6.3.1"},{"rt":null,"stimulus":"<div style=\"font-size:24px;\">Loading puzzle:<br>7 / 9</div>","response":null,"trial_type":"html-keyboard-response","trial_index":22,"time_elapsed":208364,"internal_node_id":"0.0-3.0-0.0-1.6","experiment":"validation","task_version":"1.1","jspsych_version":"6.3.1"},{"stimulus":"../static/img/rpm/a49.png","choice_order":[4,7,6,1,3,0,2,5],"correct":6,"choice":0,"accuracy":0,"rt":23706.60000000894,"screen_resolution":[1280,1024],"minimum_resolution":1,"all_loaded":true,"test_form":"a","trial_type":"rpm","trial_index":23,"time_elapsed":232073,"internal_node_id":"0.0-3.0-0.0-2.6","experiment":"validation","task_version":"1.1","jspsych_version":"6.3.1"},{"min_width":700,"min_height":600,"inner_width":1280,"inner_height":1024,"trial_type":"screen-check","trial_index":24,"time_elapsed":232074,"internal_node_id":"0.0-3.0-0.0-0.7","experiment":"validation","task_version":"1.1","jspsych_version":"6.3.1"},{"rt":null,"stimulus":"<div style=\"font-size:24px;\">Loading puzzle:<br>8 / 9</div>","response":null,"trial_type":"html-keyboard-response","trial_index":25,"time_elapsed":233276,"internal_node_id":"0.0-3.0-0.0-1.7","experiment":"validation","task_version":"1.1","jspsych_version":"6.3.1"},{"stimulus":"../static/img/rpm/a53.png","choice_order":[4,1,2,5,0,3,7,6],"correct":0,"choice":6,"accuracy":0,"rt":6604,"screen_resolution":[1280,1024],"minimum_resolution":1,"all_loaded":true,"test_form":"a","trial_type":"rpm","trial_index":26,"time_elapsed":239881,"internal_node_id":"0.0-3.0-0.0-2.7","experiment":"validation","task_version":"1.1","jspsych_version":"6.3.1"},{"min_width":700,"min_height":600,"inner_width":1280,"inner_height":1024,"trial_type":"screen-check","trial_index":27,"time_elapsed":239882,"internal_node_id":"0.0-3.0-0.0-0.8","experiment":"validation","task_version":"1.1","jspsych_version":"6.3.1"},{"rt":null,"stimulus":"<div style=\"font-size:24px;\">Loading puzzle:<br>9 / 9</div>","response":null,"trial_type":"html-keyboard-response","trial_index":28,"time_elapsed":241083,"internal_node_id":"0.0-3.0-0.0-1.8","experiment":"validation","task_version":"1.1","jspsych_version":"6.3.1"},{"stimulus":"../static/img/rpm/a55.png","choice_order":[3,5,6,0,2,1,7,4],"correct":1,"choice":3,"accuracy":0,"rt":12547,"screen_resolution":[1280,1024],"minimum_resolution":1,"all_loaded":true,"test_form":"a","trial_type":"rpm","trial_index":29,"time_elapsed":253633,"internal_node_id":"0.0-3.0-0.0-2.8","experiment":"validation","task_version":"1.1","jspsych_version":"6.3.1"},{"value":{"rpm_raw":2,"rpm_err":7,"rpm_adj":29.001291893578845,"rpm_rt":147463.70000001788},"trial_type":"call-function","trial_index":30,"time_elapsed":253634,"internal_node_id":"0.0-3.0-1.0","experiment":"validation","task_version":"1.1","jspsych_version":"6.3.1"},{"view_history":[{"page_index":0,"viewing_time":4006.300000011921}],"rt":4006.6000000089407,"trial_type":"instructions","trial_index":31,"time_elapsed":257641,"internal_node_id":"0.0-4.0","experiment":"validation","task_version":"1.1","jspsych_version":"6.3.1","interactions":"[{\"event\":\"fullscreenenter\",\"trial\":1,\"time\":3389}]"}]