[{"view_history":[{"page_index":0,"viewing_time":1561.3999999910593}],"rt":1561.5999999940395,"trial_type":"instructions","trial_index":0,"time_elapsed":1580,"internal_node_id":"0.0-0.0","experiment":"validation","task_version":"2.0","jspsych_version":"6.3.1"},{"rt":6627.899999991059,"responses":{"age":"30","gender-categorical":"Female","gender-free-response":"","ethnicity":"Not Hispanic or Latino","race":["White"],"education":"High school"},"survey":"demographics","trial_type":"survey-demo","trial_index":1,"time_elapsed":8210,"internal_node_id":"0.0-1.0","experiment":"validation","task_version":"2.0","jspsych_version":"6.3.1"},{"responses":{"Q07":"2","Q04":"2","Q01":"2","Q03":"2","Q09":"4","Q02":"2","Q08":"2","Q05":"1","Q06":"1"},"rt":58210,"item_order":[6,3,0,2,8,1,7,4,5],"radio_events":[4221.9000000059605,39866.40000000596,40386.40000000596,42520.5,44777,49181.5,52491.90000000596,54164.20000000298,57516.80000001192],"key_events":[],"mouse_events":[3181.4000000059605,4221.9000000059605,39318.30000001192,39866.40000000596,40386.40000000596,42520.5,44777,48209.5,49181.5,51299.80000001192,52491.90000000596,54164.20000000298,57060.70000000298,57516.80000001192,58208.90000000596],"straightlining":0.6666666666666666,"zigzagging":0.125,"honeypot":0,"survey":"pcf","trial_type":"survey-template","trial_index":2,"time_elapsed":66423,"internal_node_id":"0.0-2.0","experiment":"validation","task_version":"2.0","jspsych_version":"6.3.1","infrequency":0},{"rt":36224.40000000596,"response":{"Q6":1,"Q5":4,"Q3":4,"Q2":1,"Q7":4,"Q8":0,"Q0":1,"Q1":1,"Q4":4},"question_order":[6,5,3,2,7,8,0,1,4],"survey":"sns","trial_type":"survey-likert","trial_index":3,"time_elapsed":102650,"internal_node_id":"0.0-3.0","experiment":"validation","task_version":"2.0","jspsych_version":"6.3.1","infrequency":0},{"responses":{"Q04":"3","Q03":"3","Q02":"3","Q07":"3","Q10":"2","Q06":"3","Q11":"0","Q08":"3","Q05":"3","Q09":"3","Q01":"2"},"rt":89634.40000000596,"item_order":[3,2,1,6,9,5,10,7,4,8,0],"radio_events":[7169.9000000059605,7654.100000008941,50577.90000000596,54944.5,63587.29999999702,65827.60000000894,72804.70000000298,77397.40000000596,82227.79999999702,86400.70000000298,88190.90000000596],"key_events":[],"mouse_events":[6057.70000000298,6711.79999999702,7169.9000000059605,7654.100000008941,50577.90000000596,52808.10000000894,54944.5,63071.40000000596,63587.29999999702,65291.79999999702,65827.60000000894,72804.70000000298,77397.40000000596,82227.79999999702,84084.10000000894,85236.20000000298,86400.70000000298,88190.90000000596,89633.10000000894],"straightlining":0.45454545454545453,"zigzagging":0.3,"honeypot":0,"survey":"nfc10","trial_type":"survey-template","trial_index":4,"time_elapsed":192286,"internal_node_id":"0.0-4.0","experiment":"validation","task_version":"2.0","jspsych_version":"6.3.1","infrequency":0},{"value":0,"trial_type":"call-function","trial_index":5,"time_elapsed":192287,"internal_node_id":"0.0-5.0","experiment":"validation","task_version":"2.0","jspsych_version":"6.3.1","interactions":"[{\"event\":\"blur\",\"trial\":2,\"time\":15010},{\"event\":\"focus\",\"trial\":2,\"time\":39786},{\"event\":\"blur\",\"trial\":4,\"time\":119911},{\"event\":\"focus\",\"trial\":4,\"time\":147813}]"}]