[{"view_history":[{"page_index":0,"viewing_time":27996.600000023842}],"rt":27997.299999952316,"trial_type":"instructions","trial_index":0,"time_elapsed":28037,"internal_node_id":"0.0-0.0","experiment":"validation","task_version":"1.1","jspsych_version":"6.3.1"},{"rt":20633.400000095367,"responses":{"age":"30","gender-categorical":"Other","gender-free-response":"nonbinary","ethnicity":"Hispanic or Latino","race":["American Indian/Alaska Native"],"education":"Associate degree"},"survey":"demographics","trial_type":"survey-demo","trial_index":1,"time_elapsed":48673,"internal_node_id":"0.0-1.0","experiment":"validation","task_version":"1.1","jspsych_version":"6.3.1"},{"responses":{"Q01":"2","Q02":"1","Q07":"2","Q03":"3","Q04":"2","Q05":"1","Q06":"1"},"rt":180481.29999995232,"item_order":[0,1,6,2,3,4,5],"radio_events":[37054.10000002384,51316.299999952316,134825.89999997616,152413.79999995232,171716,176003.70000004768,179833.89999997616],"key_events":[],"mouse_events":[37054.10000002384,51316.299999952316,134825.89999997616,152413.79999995232,171716,176003.70000004768,179381.60000002384,179833.89999997616,180479.89999997616],"straightlining":0.5714285714285714,"zigzagging":0.8333333333333334,"honeypot":0,"survey":"nfc6","trial_type":"survey-template","trial_index":2,"time_elapsed":229161,"internal_node_id":"0.0-2.0","experiment":"validation","task_version":"1.1","jspsych_version":"6.3.1","infrequency":0},{"responses":{"Q09":"3","Q10":"1","Q07":"4","Q05":"4","Q02":"3","Q11":"4","Q08":"3","Q01":"4","Q03":"4","Q06":"3","Q04":"2"},"rt":100233.39999997616,"item_order":[8,9,6,4,1,10,7,0,2,5,3],"radio_events":[3188.3000000715256,5596.600000023842,8028.399999976158,9282.100000023842,10284.399999976158,17518.300000071526,23392.300000071526,61198.300000071526,92260.30000007153,94128.10000002384,97944.30000007153,99626.5],"key_events":[],"mouse_events":[3188.3000000715256,5596.600000023842,8028.399999976158,9282.100000023842,10284.399999976158,17518.300000071526,22850.600000023842,23392.300000071526,60426.700000047684,61198.300000071526,63328.300000071526,92260.30000007153,94128.10000002384,97944.30000007153,99626.5,100232.30000007153],"straightlining":0.36363636363636365,"zigzagging":0.4,"honeypot":0,"survey":"neuroticism","trial_type":"survey-template","trial_index":3,"time_elapsed":329403,"internal_node_id":"0.0-3.0","experiment":"validation","task_version":"1.1","jspsych_version":"6.3.1","infrequency":0},{"responses":{"Q05":"1","Q08":"3","Q11":"0","Q10":"4","Q02":"4","Q09":"4","Q06":"3","Q04":"0","Q03":"4","Q01":"4","Q07":"4"},"rt":119252.30000007153,"item_order":[4,7,10,9,1,8,5,3,2,0,6],"radio_events":[3293.3000000715256,6255.300000071526,12001.200000047684,79859.10000002384,82713,86235.39999997616,109271.10000002384,112255.39999997616,114777,116683,118241],"key_events":[],"mouse_events":[2855.2000000476837,3293.3000000715256,5879.200000047684,6255.300000071526,11533,12001.200000047684,79859.10000002384,82155.39999997616,82713,86235.39999997616,109271.10000002384,111998.20000004768,112255.39999997616,114777,116683,118241,119251.10000002384],"straightlining":0.36363636363636365,"zigzagging":0.5,"honeypot":0,"survey":"openness","trial_type":"survey-template","trial_index":4,"time_elapsed":448663,"internal_node_id":"0.0-4.0","experiment":"validation","task_version":"1.1","jspsych_version":"6.3.1","infrequency":0},{"value":[0,1.2987012987012987,1.7333333333333334],"trial_type":"call-function","trial_index":5,"time_elapsed":448670,"internal_node_id":"0.0-5.0","experiment":"validation","task_version":"1.1","jspsych_version":"6.3.1","interactions":"[]"}]