[{"view_history":[{"page_index":0,"viewing_time":1669.3999999761581}],"rt":1669.5,"trial_type":"instructions","trial_index":0,"time_elapsed":1706,"internal_node_id":"0.0-0.0","experiment":"validation","task_version":"1.1","jspsych_version":"6.3.1"},{"rt":12140.099999964237,"responses":{"age":"38","gender-categorical":"Male","gender-free-response":"","ethnicity":"Not Hispanic or Latino","race":["White"],"education":"Master degree or higher"},"survey":"demographics","trial_type":"survey-demo","trial_index":1,"time_elapsed":13848,"internal_node_id":"0.0-1.0","experiment":"validation","task_version":"1.1","jspsych_version":"6.3.1"},{"responses":{"Q06":"0","Q05":"0","Q10":"0","Q11":"0","Q03":"0","Q07":"0","Q04":"0","Q08":"0","Q01":"0","Q09":"0","Q02":"0"},"rt":20151.19999998808,"item_order":[5,4,9,10,2,6,3,7,0,8,1],"radio_events":[3316.199999988079,4520.199999988079,7660,8479.800000011921,9511.900000035763,11197.800000011921,13754.199999988079,14886.199999988079,16386,18431.900000035763,19541.80000001192],"key_events":[],"mouse_events":[3316.199999988079,4520.199999988079,5667.699999988079,6033.600000023842,7340,7660,8479.800000011921,9511.900000035763,9955.699999988079,10840,11197.800000011921,12377.600000023842,13198.100000023842,13456,13754.199999988079,14886.199999988079,16386,18431.900000035763,19541.80000001192,20149.900000035763],"straightlining":0.5454545454545454,"zigzagging":0.9,"honeypot":0,"survey":"neuroticism","trial_type":"survey-template","trial_index":2,"time_elapsed":34002,"internal_node_id":"0.0-2.0","experiment":"validation","task_version":"1.1","jspsych_version":"6.3.1","infrequency":1},{"responses":{"Q09":"4","Q11":"0","Q08":"4","Q03":"2","Q06":"4","Q04":"0","Q05":"0","Q10":"2","Q02":"4","Q07":"4","Q01":"4"},"rt":21379.399999976158,"item_order":[8,10,7,2,5,3,4,9,1,6,0],"radio_events":[2511.600000023842,3567.600000023842,4653.399999976158,7277.600000023842,8684.699999988079,10393.300000011921,12871.600000023842,14807.399999976158,18011.30000001192,19270.5,20963.399999976158],"key_events":[],"mouse_events":[2511.600000023842,3567.600000023842,4653.399999976158,7277.600000023842,8684.699999988079,10393.300000011921,12871.600000023842,14807.399999976158,16949.69999998808,18011.30000001192,18949.399999976158,19270.5,19988.399999976158,20963.399999976158,21377.69999998808],"straightlining":0.45454545454545453,"zigzagging":0.3,"honeypot":0,"survey":"openness","trial_type":"survey-template","trial_index":3,"time_elapsed":55385,"internal_node_id":"0.0-3.0","experiment":"validation","task_version":"1.1","jspsych_version":"6.3.1","infrequency":0},{"responses":{"Q01":"3","Q06":"3","Q03":"3","Q04":"3","Q07":"2","Q02":"3","Q05":"4"},"rt":15877.300000011921,"item_order":[0,5,2,3,6,1,4],"radio_events":[2260.800000011921,3822.899999976158,6050.699999988079,7018.5,8620.699999988079,14753.300000011921,15454.599999964237],"key_events":[],"mouse_events":[2260.800000011921,3822.899999976158,5363.099999964237,6050.699999988079,7018.5,8620.699999988079,10502.899999976158,10830.5,11604.599999964237,12206.399999976158,12580.800000011921,12954.899999976158,13400.399999976158,13760.699999988079,14432.800000011921,14753.300000011921,15454.599999964237,15876.800000011921],"straightlining":0.42857142857142855,"zigzagging":0.5,"honeypot":0,"survey":"nfc6","trial_type":"survey-template","trial_index":4,"time_elapsed":71265,"internal_node_id":"0.0-4.0","experiment":"validation","task_version":"1.1","jspsych_version":"6.3.1","infrequency":0},{"value":[1,1.4285714285714286,1.7],"trial_type":"call-function","trial_index":5,"time_elapsed":71267,"internal_node_id":"0.0-5.0","experiment":"validation","task_version":"1.1","jspsych_version":"6.3.1","interactions":"[]"}]