[{"view_history":[{"page_index":0,"viewing_time":2591.7999999523163}],"rt":2592.099999964237,"trial_type":"instructions","trial_index":0,"time_elapsed":2607,"internal_node_id":"0.0-0.0","experiment":"validation","task_version":"1.1","jspsych_version":"6.3.1"},{"rt":13378.600000023842,"responses":{"age":"25","gender-categorical":"Female","gender-free-response":"","ethnicity":"Not Hispanic or Latino","race":["White"],"education":"Some college"},"survey":"demographics","trial_type":"survey-demo","trial_index":1,"time_elapsed":15994,"internal_node_id":"0.0-1.0","experiment":"validation","task_version":"1.1","jspsych_version":"6.3.1"},{"responses":{"Q09":"3","Q04":"3","Q03":"3","Q07":"3","Q05":"4","Q10":"1","Q06":"2","Q08":"1","Q11":"4","Q01":"3","Q02":"2"},"rt":30274.899999976158,"item_order":[8,3,2,6,4,9,5,7,10,0,1],"radio_events":[6465.399999976158,9465.300000011921,11289.399999976158,12689.699999988079,14529.300000011921,16465.80000001192,18945.30000001192,22233.30000001192,24754.399999976158,28225.19999998808,29761.30000001192],"key_events":[],"mouse_events":[5322.099999964237,6465.399999976158,9465.300000011921,11289.399999976158,12689.699999988079,14529.300000011921,16465.80000001192,18945.30000001192,20465.399999976158,21369.30000001192,22233.30000001192,24754.399999976158,28225.19999998808,29761.30000001192,30273.5],"straightlining":0.45454545454545453,"zigzagging":0.6,"honeypot":0,"survey":"neuroticism","trial_type":"survey-template","trial_index":2,"time_elapsed":46273,"internal_node_id":"0.0-2.0","experiment":"validation","task_version":"1.1","jspsych_version":"6.3.1","infrequency":0},{"responses":{"Q04":"2","Q06":"2","Q02":"1","Q01":"2","Q05":"3","Q07":"2","Q03":"3"},"rt":28899.80000001192,"item_order":[3,5,1,0,4,6,2],"radio_events":[7243.300000011921,11795.100000023842,14282.900000035763,18770.80000001192,21386.900000035763,23634.80000001192,28171.69999998808],"key_events":[],"mouse_events":[6571,7243.300000011921,11795.100000023842,14282.900000035763,18770.80000001192,21386.900000035763,23634.80000001192,28171.69999998808,28898.900000035763],"straightlining":0.5714285714285714,"zigzagging":0.8333333333333334,"honeypot":0,"survey":"nfc6","trial_type":"survey-template","trial_index":3,"time_elapsed":75175,"internal_node_id":"0.0-3.0","experiment":"validation","task_version":"1.1","jspsych_version":"6.3.1","infrequency":0},{"responses":{"Q07":"4","Q04":"2","Q11":"0","Q05":"0","Q03":"3","Q08":"3","Q10":"3","Q01":"4","Q06":"3","Q09":"4","Q02":"3"},"rt":33757.30000001192,"item_order":[6,3,10,4,2,7,9,0,5,8,1],"radio_events":[5580.200000047684,8508.600000023842,10404,14684.100000023842,16843.900000035763,18580.5,21012,24548.100000023842,26668.200000047684,29188,30060.30000001192,31555.900000035763,33068.10000002384],"key_events":[],"mouse_events":[3540,5580.200000047684,8508.600000023842,10404,14684.100000023842,16843.900000035763,18580.5,21012,24020.30000001192,24548.100000023842,26668.200000047684,27717,29188,30060.30000001192,30876.900000035763,31555.900000035763,32660.600000023842,33068.10000002384,33756.200000047684],"straightlining":0.2727272727272727,"zigzagging":0.3,"honeypot":0,"survey":"openness","trial_type":"survey-template","trial_index":4,"time_elapsed":108937,"internal_node_id":"0.0-4.0","experiment":"validation","task_version":"1.1","jspsych_version":"6.3.1","infrequency":0},{"value":[0,1.2987012987012987,1.7333333333333334],"trial_type":"call-function","trial_index":5,"time_elapsed":108939,"internal_node_id":"0.0-5.0","experiment":"validation","task_version":"1.1","jspsych_version":"6.3.1","interactions":"[]"}]