[{"view_history":[{"page_index":0,"viewing_time":3531.4000000059605}],"rt":3531.800000011921,"trial_type":"instructions","trial_index":0,"time_elapsed":3540,"internal_node_id":"0.0-0.0","experiment":"validation","task_version":"1.1","jspsych_version":"6.3.1"},{"rt":14054.300000011921,"responses":{"age":"28","gender-categorical":"Female","gender-free-response":"","ethnicity":"Not Hispanic or Latino","race":["White"],"education":"Bachelor degree"},"survey":"demographics","trial_type":"survey-demo","trial_index":1,"time_elapsed":17597,"internal_node_id":"0.0-1.0","experiment":"validation","task_version":"1.1","jspsych_version":"6.3.1"},{"responses":{"Q09":"1","Q02":"4","Q06":"3","Q11":"4","Q03":"4","Q07":"4","Q10":"3","Q01":"4","Q04":"3","Q08":"1","Q05":"1"},"rt":24722.30000001192,"item_order":[8,1,5,10,2,6,9,0,3,7,4],"radio_events":[2796.199999988079,4302.300000011921,6224.300000011921,7939.9000000059605,9914,11233.300000011921,13481.699999988079,16092,18251,21299.90000000596,23261.90000000596],"key_events":[],"mouse_events":[2796.199999988079,4302.300000011921,6224.300000011921,7939.9000000059605,9914,11233.300000011921,13481.699999988079,16092,18251,21299.90000000596,23261.90000000596,24720],"straightlining":0.36363636363636365,"zigzagging":0.4,"honeypot":0,"survey":"neuroticism","trial_type":"survey-template","trial_index":2,"time_elapsed":42326,"internal_node_id":"0.0-2.0","experiment":"validation","task_version":"1.1","jspsych_version":"6.3.1","infrequency":0},{"responses":{"Q04":"1","Q06":"2","Q02":"3","Q05":"4","Q03":"3","Q07":"2","Q01":"2"},"rt":44517.59999999404,"item_order":[3,5,1,4,2,6,0],"radio_events":[7995.699999988079,14141.90000000596,17116.80000001192,21172,23310.09999999404,25574,29105.90000000596],"key_events":[],"mouse_events":[7995.699999988079,14141.90000000596,17116.80000001192,21172,23310.09999999404,25574,29105.90000000596,44516.09999999404],"straightlining":0.42857142857142855,"zigzagging":0.6666666666666666,"honeypot":0,"survey":"nfc6","trial_type":"survey-template","trial_index":3,"time_elapsed":86848,"internal_node_id":"0.0-3.0","experiment":"validation","task_version":"1.1","jspsych_version":"6.3.1","infrequency":0},{"responses":{"Q07":"4","Q06":"4","Q02":"4","Q10":"4","Q11":"0","Q05":"0","Q04":"1","Q09":"4","Q08":"3","Q03":"4","Q01":"4"},"rt":31782.5,"item_order":[6,5,1,9,10,4,3,8,7,2,0],"radio_events":[2562.5999999940395,4578.300000011921,8424.59999999404,11066.5,13810.59999999404,15970.5,23164.5,25118.5,27256.40000000596,29206.30000001192,30516.40000000596],"key_events":[],"mouse_events":[2562.5999999940395,4578.300000011921,8424.59999999404,11066.5,13810.59999999404,15970.5,23164.5,25118.5,27256.40000000596,29206.30000001192,30516.40000000596,31780.59999999404],"straightlining":0.45454545454545453,"zigzagging":0.5,"honeypot":0,"survey":"openness","trial_type":"survey-template","trial_index":4,"time_elapsed":118636,"internal_node_id":"0.0-4.0","experiment":"validation","task_version":"1.1","jspsych_version":"6.3.1","infrequency":0},{"value":[0,1.2467532467532467,1.5666666666666667],"trial_type":"call-function","trial_index":5,"time_elapsed":118640,"internal_node_id":"0.0-5.0","experiment":"validation","task_version":"1.1","jspsych_version":"6.3.1","interactions":"[]"}]