[{"view_history":[{"page_index":0,"viewing_time":1721.0999999940395}],"rt":1721.5999999940395,"trial_type":"instructions","trial_index":0,"time_elapsed":1756,"internal_node_id":"0.0-0.0","experiment":"validation","task_version":"2.0","jspsych_version":"6.3.1"},{"rt":9718.70000000298,"responses":{"age":"21","gender-categorical":"Female","gender-free-response":"","ethnicity":"Not Hispanic or Latino","race":["White"],"education":"Some college"},"survey":"demographics","trial_type":"survey-demo","trial_index":1,"time_elapsed":11477,"internal_node_id":"0.0-1.0","experiment":"validation","task_version":"2.0","jspsych_version":"6.3.1"},{"responses":{"Q09":"3","Q03":"3","Q02":"3","Q07":"4","Q08":"2","Q04":"2","Q06":"1","Q01":"2","Q10":"2","Q11":"0","Q05":"4"},"rt":89196.29999999702,"item_order":[8,2,1,6,7,3,5,0,9,10,4],"radio_events":[3923.699999988079,5797.0999999940395,8860.79999999702,10637.29999999702,13157.699999988079,16630.59999999404,66175.89999999106,68800.29999999702,77928.79999999702,80056.59999999404,82448.59999999404,88265.29999999702],"key_events":[],"mouse_events":[2732.0999999940395,3923.699999988079,5797.0999999940395,8860.79999999702,10637.29999999702,13157.699999988079,16630.59999999404,64727.09999999404,65520,66175.89999999106,68216.19999998808,68800.29999999702,77928.79999999702,80056.59999999404,82448.59999999404,86930.29999999702,87467,88265.29999999702,89194.29999999702],"straightlining":0.36363636363636365,"zigzagging":0.3,"honeypot":0,"survey":"nfc10","trial_type":"survey-template","trial_index":2,"time_elapsed":100678,"internal_node_id":"0.0-2.0","experiment":"validation","task_version":"2.0","jspsych_version":"6.3.1","infrequency":0},{"rt":62704.59999999404,"response":{"Q4":4,"Q3":5,"Q5":3,"Q6":0,"Q0":5,"Q7":5,"Q8":0,"Q2":4,"Q1":5},"question_order":[4,3,5,6,0,7,8,2,1],"survey":"sns","trial_type":"survey-likert","trial_index":3,"time_elapsed":163389,"internal_node_id":"0.0-3.0","experiment":"validation","task_version":"2.0","jspsych_version":"6.3.1","infrequency":0},{"responses":{"Q08":"4","Q03":"3","Q01":"3","Q06":"4","Q05":"3","Q02":"2","Q07":"4","Q09":"4","Q04":"4"},"rt":27488.20000000298,"item_order":[7,2,0,5,4,1,6,8,3],"radio_events":[4733.4000000059605,7395.79999999702,8701.09999999404,9933.09999999404,11332.70000000298,14918.5,17613.5,19325.70000000298,20191.40000000596,25103,26126.79999999702],"key_events":[],"mouse_events":[3460.9000000059605,4733.4000000059605,6836.5,7395.79999999702,8701.09999999404,9933.09999999404,11332.70000000298,14918.5,16798.20000000298,17613.5,19325.70000000298,20191.40000000596,21798.59999999404,24760.29999999702,25103,26126.79999999702,27487.09999999404],"straightlining":0.4444444444444444,"zigzagging":0.75,"honeypot":0,"survey":"pcf","trial_type":"survey-template","trial_index":4,"time_elapsed":190880,"internal_node_id":"0.0-4.0","experiment":"validation","task_version":"2.0","jspsych_version":"6.3.1","infrequency":0},{"value":0,"trial_type":"call-function","trial_index":5,"time_elapsed":190882,"internal_node_id":"0.0-5.0","experiment":"validation","task_version":"2.0","jspsych_version":"6.3.1","interactions":"[{\"event\":\"blur\",\"trial\":2,\"time\":29482},{\"event\":\"focus\",\"trial\":2,\"time\":73111},{\"event\":\"blur\",\"trial\":3,\"time\":122372},{\"event\":\"focus\",\"trial\":3,\"time\":146830}]"}]