[{"view_history":[{"page_index":0,"viewing_time":1351.6000000238419}],"rt":1351.8000000715256,"trial_type":"instructions","trial_index":0,"time_elapsed":1369,"internal_node_id":"0.0-0.0","experiment":"validation","task_version":"1.1","jspsych_version":"6.3.1"},{"rt":9511.899999976158,"responses":{"age":"32","gender-categorical":"Male","gender-free-response":"","ethnicity":"Not Hispanic or Latino","race":["White"],"education":"High school"},"survey":"demographics","trial_type":"survey-demo","trial_index":1,"time_elapsed":10883,"internal_node_id":"0.0-1.0","experiment":"validation","task_version":"1.1","jspsych_version":"6.3.1"},{"responses":{"Q08":"2","Q07":"3","Q03":"3","Q02":"1","Q11":"4","Q05":"4","Q06":"3","Q10":"2","Q09":"3","Q01":"3","Q04":"3"},"rt":32521.600000023842,"item_order":[7,6,2,1,10,4,5,9,8,0,3],"radio_events":[4425,6150.200000047684,8239.799999952316,10079.799999952316,13009.700000047684,15219.700000047684,17969.799999952316,19605.700000047684,27773.700000047684,28920.700000047684,31249.5],"key_events":[],"mouse_events":[4425,6150.200000047684,8239.799999952316,10079.799999952316,13009.700000047684,15219.700000047684,17969.799999952316,19605.700000047684,27773.700000047684,28920.700000047684,30842.799999952316,31249.5,32520.700000047684],"straightlining":0.36363636363636365,"zigzagging":0.3,"honeypot":0,"survey":"neuroticism","trial_type":"survey-template","trial_index":2,"time_elapsed":43408,"internal_node_id":"0.0-2.0","experiment":"validation","task_version":"1.1","jspsych_version":"6.3.1","infrequency":0},{"responses":{"Q03":"3","Q01":"3","Q02":"3","Q06":"3","Q05":"3","Q07":"2","Q04":"3"},"rt":28001.600000023842,"item_order":[2,0,1,5,4,6,3],"radio_events":[8237.900000095367,10282.900000095367,13398.800000071526,14880.800000071526,19586.900000095367,21227.700000047684,23305,27143.700000047684],"key_events":[],"mouse_events":[8237.900000095367,10282.900000095367,13398.800000071526,14880.800000071526,18621.900000095367,19586.900000095367,21227.700000047684,23305,27143.700000047684,28001.100000023842],"straightlining":0.5714285714285714,"zigzagging":0.3333333333333333,"honeypot":0,"survey":"nfc6","trial_type":"survey-template","trial_index":3,"time_elapsed":71412,"internal_node_id":"0.0-3.0","experiment":"validation","task_version":"1.1","jspsych_version":"6.3.1","infrequency":0},{"responses":{"Q08":"0","Q02":"4","Q01":"1","Q03":"1","Q07":"0","Q10":"1","Q04":"3","Q11":"0","Q05":"0","Q09":"0","Q06":"2"},"rt":43005,"item_order":[7,1,0,2,6,9,3,10,4,8,5],"radio_events":[3668.7000000476837,8006.5,9745.400000095367,16068.5,17699.400000095367,22157.5,24742.600000023842,27056.400000095367,28279.400000095367,30362.200000047684,34612.300000071526,38592.300000071526,41914.300000071526],"key_events":[],"mouse_events":[3668.7000000476837,7396.400000095367,8006.5,9745.400000095367,16068.5,17699.400000095367,22157.5,24742.600000023842,27056.400000095367,28279.400000095367,30362.200000047684,34612.300000071526,38592.300000071526,41914.300000071526,43004.200000047684],"straightlining":0.45454545454545453,"zigzagging":0.3,"honeypot":0,"survey":"openness","trial_type":"survey-template","trial_index":4,"time_elapsed":114419,"internal_node_id":"0.0-4.0","experiment":"validation","task_version":"1.1","jspsych_version":"6.3.1","infrequency":0},{"value":[0,1.3896103896103895,0.9333333333333333],"trial_type":"call-function","trial_index":5,"time_elapsed":114420,"internal_node_id":"0.0-5.0","experiment":"validation","task_version":"1.1","jspsych_version":"6.3.1","interactions":"[]"}]