[{"view_history":[{"page_index":0,"viewing_time":2462.9000000059605}],"rt":2463.2999999821186,"trial_type":"instructions","trial_index":0,"time_elapsed":2472,"internal_node_id":"0.0-0.0","experiment":"validation","task_version":"1.1","jspsych_version":"6.3.1"},{"rt":24731.5,"responses":{"age":"20","gender-categorical":"Female","gender-free-response":"","ethnicity":"Not Hispanic or Latino","race":["White"],"education":"High school"},"survey":"demographics","trial_type":"survey-demo","trial_index":1,"time_elapsed":27208,"internal_node_id":"0.0-1.0","experiment":"validation","task_version":"1.1","jspsych_version":"6.3.1"},{"responses":{"Q06":"4","Q01":"4","Q07":"4","Q11":"0","Q05":"0","Q09":"4","Q04":"1","Q03":"4","Q02":"3","Q08":"3","Q10":"4"},"rt":49312.19999998808,"item_order":[5,0,6,10,4,8,3,2,1,7,9],"radio_events":[4451.300000011921,5855.4000000059605,7624.0999999940395,9597.300000011921,17168.80000001192,19686.5,29563.90000000596,30288.90000000596,32501.19999998808,37032.40000000596,43616.40000000596,48475.09999999404],"key_events":[],"mouse_events":[4451.300000011921,5855.4000000059605,7624.0999999940395,9597.300000011921,17168.80000001192,19686.5,29563.90000000596,30288.90000000596,32501.19999998808,36461.09999999404,37032.40000000596,43616.40000000596,45642.09999999404,46376.90000000596,46725.5,47776.19999998808,48145.59999999404,48475.09999999404,49308],"straightlining":0.45454545454545453,"zigzagging":0.7,"honeypot":0,"survey":"openness","trial_type":"survey-template","trial_index":2,"time_elapsed":76527,"internal_node_id":"0.0-2.0","experiment":"validation","task_version":"1.1","jspsych_version":"6.3.1","infrequency":0},{"responses":{"Q10":"1","Q04":"2","Q03":"1","Q09":"3","Q02":"0","Q08":"0","Q07":"1","Q01":"1","Q06":"3","Q05":"0","Q11":"0"},"rt":31955.19999998808,"item_order":[9,3,2,8,1,7,6,0,5,4,10],"radio_events":[4729.399999976158,7241.5999999940395,8931.399999976158,11926.299999982119,13915.09999999404,16028.299999982119,21527.5,24134.399999976158,27198.19999998808,29141.79999998212,31064.69999998808],"key_events":[],"mouse_events":[4729.399999976158,7241.5999999940395,8931.399999976158,11926.299999982119,13915.09999999404,16028.299999982119,21527.5,24134.399999976158,27198.19999998808,29141.79999998212,31064.69999998808,31951.79999998212],"straightlining":0.36363636363636365,"zigzagging":0.6,"honeypot":0,"survey":"neuroticism","trial_type":"survey-template","trial_index":3,"time_elapsed":108486,"internal_node_id":"0.0-3.0","experiment":"validation","task_version":"1.1","jspsych_version":"6.3.1","infrequency":1},{"responses":{"Q04":"4","Q02":"4","Q01":"4","Q07":"2","Q05":"4","Q03":"4","Q06":"4"},"rt":117696.69999998808,"item_order":[3,1,0,6,4,2,5],"radio_events":[74314.69999998808,83108.40000000596,86128.19999998808,89171.90000000596,109224.5,111433.59999999404,117117.30000001192],"key_events":[],"mouse_events":[74314.69999998808,79295.5,83108.40000000596,86128.19999998808,89171.90000000596,109224.5,111433.59999999404,117117.30000001192,117693.40000000596],"straightlining":0.5714285714285714,"zigzagging":0.5,"honeypot":0,"survey":"nfc6","trial_type":"survey-template","trial_index":4,"time_elapsed":226187,"internal_node_id":"0.0-4.0","experiment":"validation","task_version":"1.1","jspsych_version":"6.3.1","infrequency":0},{"value":[1,1.3896103896103895,1.7999999999999998],"trial_type":"call-function","trial_index":5,"time_elapsed":226190,"internal_node_id":"0.0-5.0","experiment":"validation","task_version":"1.1","jspsych_version":"6.3.1","interactions":"[{\"event\":\"blur\",\"trial\":4,\"time\":111251},{\"event\":\"focus\",\"trial\":4,\"time\":130879},{\"event\":\"blur\",\"trial\":4,\"time\":131499},{\"event\":\"focus\",\"trial\":4,\"time\":177760},{\"event\":\"blur\",\"trial\":4,\"time\":200767},{\"event\":\"focus\",\"trial\":4,\"time\":208516}]"}]