[{"view_history":[{"page_index":0,"viewing_time":3947.230000019772}],"rt":3948.2150000112597,"trial_type":"instructions","trial_index":0,"time_elapsed":3961,"internal_node_id":"0.0-0.0","experiment":"validation","task_version":"1.1","jspsych_version":"6.3.1"},{"rt":15688.909999997122,"responses":{"age":"30","gender-categorical":"Female","gender-free-response":"","ethnicity":"Not Hispanic or Latino","race":["White"],"education":"Bachelor degree"},"survey":"demographics","trial_type":"survey-demo","trial_index":1,"time_elapsed":19683,"internal_node_id":"0.0-1.0","experiment":"validation","task_version":"1.1","jspsych_version":"6.3.1"},{"responses":{"Q03":"1","Q07":"2","Q06":"3","Q01":"0","Q05":"1","Q02":"2","Q04":"2"},"rt":45043.35500000161,"item_order":[2,6,5,0,4,1,3],"radio_events":[9865.720000001602,11827.190000010887,24205.905000009807,27883.545000018785,28745.805000013206,29575.93000002089,39127.7200000186,40557.70000000484],"key_events":[],"mouse_events":[9865.720000001602,11827.190000010887,24205.905000009807,26723.78000000026,27883.545000018785,28745.805000013206,29575.93000002089,39127.7200000186,40557.70000000484,45041.460000007646],"straightlining":0.42857142857142855,"zigzagging":0.6666666666666666,"honeypot":0,"survey":"nfc6","trial_type":"survey-template","trial_index":2,"time_elapsed":64731,"internal_node_id":"0.0-2.0","experiment":"validation","task_version":"1.1","jspsych_version":"6.3.1","infrequency":0},{"responses":{"Q07":"3","Q01":"3","Q02":"1","Q03":"3","Q05":"1","Q08":"2","Q11":"0","Q10":"4","Q04":"2","Q06":"2","Q09":"3"},"rt":50018.73500001966,"item_order":[6,0,1,2,4,7,10,9,3,5,8],"radio_events":[13260.96499999403,15820.955000002868,19304.98000001535,21274.92500000517,25496.925000014016,34024.39500001492,36050.37500002072,39640.56500000879,42310.5800000194,44958.46500000334,49040.19500000868],"key_events":[],"mouse_events":[13260.96499999403,15820.955000002868,19304.98000001535,21274.92500000517,23213.225000014063,25496.925000014016,34024.39500001492,36050.37500002072,39640.56500000879,42310.5800000194,44958.46500000334,45756.49500000873,49040.19500000868,50016.51000001584],"straightlining":0.2727272727272727,"zigzagging":0.2,"honeypot":0,"survey":"openness","trial_type":"survey-template","trial_index":3,"time_elapsed":114753,"internal_node_id":"0.0-3.0","experiment":"validation","task_version":"1.1","jspsych_version":"6.3.1","infrequency":0},{"responses":{"Q05":"4","Q01":"3","Q04":"2","Q07":"3","Q03":"3","Q10":"3","Q06":"3","Q09":"2","Q08":"3","Q11":"0","Q02":"2"},"rt":24727.65499999514,"item_order":[4,0,3,6,2,9,5,8,7,10,1],"radio_events":[4627.330000017537,5617.47500000638,6889.185000007274,8295.27999999118,10017.305000015767,11157.399999996414,13009.335000009742,15225.364999991143,16811.275000014575,18853.275000001304,22047.279999998864,23855.429999995977],"key_events":[],"mouse_events":[4627.330000017537,5617.47500000638,6889.185000007274,8295.27999999118,10017.305000015767,11157.399999996414,13009.335000009742,15225.364999991143,16811.275000014575,18853.275000001304,20705.515000008745,22047.279999998864,22905.38499999093,23855.429999995977,24725.414999993518],"straightlining":0.36363636363636365,"zigzagging":0.6,"honeypot":0,"survey":"neuroticism","trial_type":"survey-template","trial_index":4,"time_elapsed":139485,"internal_node_id":"0.0-4.0","experiment":"validation","task_version":"1.1","jspsych_version":"6.3.1","infrequency":1},{"value":[1,1.064935064935065,1.4666666666666668],"trial_type":"call-function","trial_index":5,"time_elapsed":139487,"internal_node_id":"0.0-5.0","experiment":"validation","task_version":"1.1","jspsych_version":"6.3.1","interactions":"[]"}]