[{"view_history":[{"page_index":0,"viewing_time":3014.39999999851}],"rt":3016.2999999970198,"trial_type":"instructions","trial_index":0,"time_elapsed":3047,"internal_node_id":"0.0-0.0","experiment":"validation","task_version":"1.1","jspsych_version":"6.3.1"},{"rt":16753.79999999702,"responses":{"age":"18","gender-categorical":"Female","gender-free-response":"","ethnicity":"Hispanic or Latino","race":["White"],"education":"High school"},"survey":"demographics","trial_type":"survey-demo","trial_index":1,"time_elapsed":19808,"internal_node_id":"0.0-1.0","experiment":"validation","task_version":"1.1","jspsych_version":"6.3.1"},{"responses":{"Q03":"3","Q06":"3","Q01":"3","Q05":"2","Q02":"3","Q07":"2","Q04":"1"},"rt":56493.19999999553,"item_order":[2,5,0,4,1,6,3],"radio_events":[20609.09999999404,32387.79999999702,35938.29999999702,41727.69999999553,46389.39999999851,50140.69999999553,55561.69999999553],"key_events":[],"mouse_events":[20609.09999999404,32387.79999999702,35938.29999999702,41727.69999999553,46389.39999999851,50140.69999999553,55561.69999999553,56489.69999999553],"straightlining":0.5714285714285714,"zigzagging":0.6666666666666666,"honeypot":0,"survey":"nfc6","trial_type":"survey-template","trial_index":2,"time_elapsed":76315,"internal_node_id":"0.0-2.0","experiment":"validation","task_version":"1.1","jspsych_version":"6.3.1","infrequency":0},{"responses":{"Q05":"1","Q03":"3","Q01":"4","Q07":"4","Q04":"1","Q08":"3","Q11":"0","Q02":"4","Q09":"4","Q10":"4","Q06":"4"},"rt":50590.5,"item_order":[4,2,0,6,3,7,10,1,8,9,5],"radio_events":[17713,18448.30000000447,22006.70000000298,23622,28228.30000000447,31163.20000000298,38702.90000000596,41950.60000000149,43597.10000000149,46291.80000000447,48995.10000000149],"key_events":[],"mouse_events":[15138,16073.60000000149,17713,18448.30000000447,22006.70000000298,23622,28228.30000000447,31163.20000000298,38702.90000000596,41294.10000000149,41950.60000000149,43597.10000000149,46291.80000000447,48995.10000000149,50586.20000000298],"straightlining":0.45454545454545453,"zigzagging":0.5,"honeypot":0,"survey":"openness","trial_type":"survey-template","trial_index":3,"time_elapsed":126915,"internal_node_id":"0.0-3.0","experiment":"validation","task_version":"1.1","jspsych_version":"6.3.1","infrequency":0},{"responses":{"Q07":"4","Q11":"4","Q10":"2","Q01":"4","Q08":"3","Q09":"3","Q04":"4","Q06":"4","Q05":"3","Q02":"4","Q03":"4"},"rt":30345.5,"item_order":[6,10,9,0,7,8,3,5,4,1,2],"radio_events":[3976.39999999851,5848.0999999940395,9110.29999999702,11093.29999999702,14101.39999999851,16730.89999999851,20185,23312.29999999702,25359.19999999553,26582.09999999404,28941.09999999404],"key_events":[],"mouse_events":[3104.89999999851,3976.39999999851,5848.0999999940395,9110.29999999702,11093.29999999702,14101.39999999851,16730.89999999851,20185,22231.39999999851,23312.29999999702,24391.39999999851,25359.19999999553,26582.09999999404,28941.09999999404,30341.5],"straightlining":0.45454545454545453,"zigzagging":0.3,"honeypot":0,"survey":"neuroticism","trial_type":"survey-template","trial_index":4,"time_elapsed":157270,"internal_node_id":"0.0-4.0","experiment":"validation","task_version":"1.1","jspsych_version":"6.3.1","infrequency":0},{"value":[0,1.4805194805194806,1.4666666666666666],"trial_type":"call-function","trial_index":5,"time_elapsed":157276,"internal_node_id":"0.0-5.0","experiment":"validation","task_version":"1.1","jspsych_version":"6.3.1","interactions":"[]"}]