[{"view_history":[{"page_index":0,"viewing_time":3626.2000000476837}],"rt":3626.7999999523163,"trial_type":"instructions","trial_index":0,"time_elapsed":3648,"internal_node_id":"0.0-0.0","experiment":"validation","task_version":"2.0","jspsych_version":"6.3.1"},{"rt":14420.900000095367,"responses":{"age":"31","gender-categorical":"Female","gender-free-response":"","ethnicity":"Hispanic or Latino","race":["Rather not say"],"education":"Some college"},"survey":"demographics","trial_type":"survey-demo","trial_index":1,"time_elapsed":18071,"internal_node_id":"0.0-1.0","experiment":"validation","task_version":"2.0","jspsych_version":"6.3.1"},{"responses":{"Q07":"3","Q10":"1","Q06":"2","Q04":"3","Q08":"3","Q01":"2","Q11":"0","Q03":"4","Q05":"3","Q02":"1","Q09":"3"},"rt":92578.5,"item_order":[6,9,5,3,7,0,10,2,4,1,8],"radio_events":[18570.60000014305,25714.799999952316,43142.200000047684,58364.90000009537,68141.79999995232,69188.40000009537,75544.5,80134.5,85175.20000004768,88864.70000004768,91654.5],"key_events":[],"mouse_events":[6780.200000047684,18570.60000014305,25714.799999952316,43142.200000047684,58364.90000009537,65464.60000014305,68141.79999995232,69188.40000009537,75544.5,80134.5,85175.20000004768,88864.70000004768,91654.5,92577.40000009537],"straightlining":0.36363636363636365,"zigzagging":0.4,"honeypot":0,"survey":"nfc10","trial_type":"survey-template","trial_index":2,"time_elapsed":110653,"internal_node_id":"0.0-2.0","experiment":"validation","task_version":"2.0","jspsych_version":"6.3.1","infrequency":0},{"rt":120127.89999985695,"response":{"Q1":2,"Q5":1,"Q2":1,"Q6":0,"Q4":3,"Q8":0,"Q0":0,"Q3":0,"Q7":1},"question_order":[1,5,2,6,4,8,0,3,7],"survey":"sns","trial_type":"survey-likert","trial_index":3,"time_elapsed":230783,"internal_node_id":"0.0-3.0","experiment":"validation","task_version":"2.0","jspsych_version":"6.3.1","infrequency":0},{"responses":{"Q08":"2","Q01":"3","Q04":"2","Q09":"4","Q03":"3","Q07":"2","Q02":"3","Q06":"1","Q05":"1"},"rt":41240.799999952316,"item_order":[7,0,3,8,2,6,1,5,4],"radio_events":[7489.400000095367,8951.799999952316,12248.200000047684,15004.299999952316,17040.5,23070.799999952316,29190.799999952316,34500.799999952316,37200.799999952316,40722.5],"key_events":[],"mouse_events":[7489.400000095367,8951.799999952316,12248.200000047684,15004.299999952316,17040.5,22036,23070.799999952316,25365.900000095367,29190.799999952316,34500.799999952316,37200.799999952316,40722.5,41239.90000009537],"straightlining":0.3333333333333333,"zigzagging":0.5,"honeypot":0,"survey":"pcf","trial_type":"survey-template","trial_index":4,"time_elapsed":272027,"internal_node_id":"0.0-4.0","experiment":"validation","task_version":"2.0","jspsych_version":"6.3.1","infrequency":0},{"value":0,"trial_type":"call-function","trial_index":5,"time_elapsed":272028,"internal_node_id":"0.0-5.0","experiment":"validation","task_version":"2.0","jspsych_version":"6.3.1","interactions":"[{\"event\":\"blur\",\"trial\":3,\"time\":161630},{\"event\":\"focus\",\"trial\":3,\"time\":193999}]"}]