[{"view_history":[{"page_index":0,"viewing_time":4357.899999976158}],"rt":4358.399999976158,"trial_type":"instructions","trial_index":0,"time_elapsed":4368,"internal_node_id":"0.0-0.0","experiment":"validation","task_version":"1.1","jspsych_version":"6.3.1"},{"rt":14141,"responses":{"age":"65","gender-categorical":"Female","gender-free-response":"","ethnicity":"Not Hispanic or Latino","race":["White"],"education":"Master degree or higher"},"survey":"demographics","trial_type":"survey-demo","trial_index":1,"time_elapsed":18510,"internal_node_id":"0.0-1.0","experiment":"validation","task_version":"1.1","jspsych_version":"6.3.1"},{"responses":{"Q09":"3","Q02":"1","Q07":"3","Q04":"0","Q05":"0","Q03":"1","Q06":"3","Q10":"1","Q01":"1","Q08":"1","Q11":"4"},"rt":69030.39999997616,"item_order":[8,1,6,3,4,2,5,9,0,7,10],"radio_events":[11157,15410.299999952316,17524.399999976158,19650.799999952316,23982.199999928474,30541,43276.699999928474,48114.39999997616,57227,59735.89999997616,63156],"key_events":[],"mouse_events":[11157,15410.299999952316,17524.399999976158,19650.799999952316,23982.199999928474,30541,43276.699999928474,48114.39999997616,57227,59735.89999997616,63156,69028.69999992847],"straightlining":0.5454545454545454,"zigzagging":0.3,"honeypot":0,"survey":"neuroticism","trial_type":"survey-template","trial_index":2,"time_elapsed":87545,"internal_node_id":"0.0-2.0","experiment":"validation","task_version":"1.1","jspsych_version":"6.3.1","infrequency":0},{"responses":{"Q07":"4","Q02":"3","Q01":"4","Q04":"3","Q03":"4","Q06":"4","Q11":"0","Q09":"4","Q05":"0","Q08":"4","Q10":"4"},"rt":36943.59999990463,"item_order":[6,1,0,3,2,5,10,8,4,7,9],"radio_events":[3516.7999999523163,8737.199999928474,12900.099999904633,15926.299999952316,18997.5,22913.199999928474,25298.099999904633,27728.099999904633,30135.5,32464.099999904633,34624.39999997616],"key_events":[],"mouse_events":[3516.7999999523163,8737.199999928474,12900.099999904633,15926.299999952316,18997.5,22913.199999928474,25298.099999904633,27728.099999904633,30135.5,32464.099999904633,34624.39999997616,36942.09999990463],"straightlining":0.5454545454545454,"zigzagging":0.4,"honeypot":0,"survey":"openness","trial_type":"survey-template","trial_index":3,"time_elapsed":124491,"internal_node_id":"0.0-3.0","experiment":"validation","task_version":"1.1","jspsych_version":"6.3.1","infrequency":0},{"responses":{"Q01":"3","Q06":"2","Q07":"2","Q03":"3","Q04":"3","Q02":"3","Q05":"3"},"rt":46417,"item_order":[0,5,6,2,3,1,4],"radio_events":[4867.799999952316,19077.299999952316,21315.699999928474,24736.299999952316,37471.59999990463,42016.799999952316,45594.39999997616],"key_events":[],"mouse_events":[4867.799999952316,19077.299999952316,21315.699999928474,24736.299999952316,37471.59999990463,42016.799999952316,45594.39999997616,46416],"straightlining":0.42857142857142855,"zigzagging":0.3333333333333333,"honeypot":0,"survey":"nfc6","trial_type":"survey-template","trial_index":4,"time_elapsed":170910,"internal_node_id":"0.0-4.0","experiment":"validation","task_version":"1.1","jspsych_version":"6.3.1","infrequency":0},{"value":[0,1.5194805194805194,1.0333333333333332],"trial_type":"call-function","trial_index":5,"time_elapsed":170911,"internal_node_id":"0.0-5.0","experiment":"validation","task_version":"1.1","jspsych_version":"6.3.1","interactions":"[]"}]