[{"view_history":[{"page_index":0,"viewing_time":10156}],"rt":10157,"trial_type":"instructions","trial_index":0,"time_elapsed":10163,"internal_node_id":"0.0-0.0","experiment":"validation","task_version":"1.1","jspsych_version":"6.3.1"},{"rt":16700,"responses":{"age":"58","gender-categorical":"Female","gender-free-response":"","ethnicity":"Not Hispanic or Latino","race":["White"],"education":"Bachelor degree"},"survey":"demographics","trial_type":"survey-demo","trial_index":1,"time_elapsed":26868,"internal_node_id":"0.0-1.0","experiment":"validation","task_version":"1.1","jspsych_version":"6.3.1"},{"responses":{"Q03":"0","Q11":"4","Q10":"0","Q02":"0","Q07":"1","Q09":"1","Q04":"1","Q08":"0","Q05":"0","Q06":"3","Q01":"0"},"rt":60289,"item_order":[2,10,9,1,6,8,3,7,4,5,0],"radio_events":[9869,13604.000000000007,15663,25508,29556,35963,38089,40109,42799,49159,55515],"key_events":[],"mouse_events":[9869,13604.000000000007,15663,18470,25508,29556,35963,38089,40109,42799,48180,49159,50201,55515,60272],"straightlining":0.36363636363636365,"zigzagging":0.5,"honeypot":0,"survey":"neuroticism","trial_type":"survey-template","trial_index":2,"time_elapsed":87164,"internal_node_id":"0.0-2.0","experiment":"validation","task_version":"1.1","jspsych_version":"6.3.1","infrequency":0},{"responses":{"Q02":"3","Q03":"3","Q07":"2","Q05":"3","Q04":"4","Q06":"3","Q01":"3"},"rt":91636,"item_order":[1,2,6,4,3,5,0],"radio_events":[8908.000000000015,51971,58490.00000000003,63344,71522,79050,86470,90815],"key_events":[],"mouse_events":[8908.000000000015,51971,56731,58490.00000000003,63344,71522,79050,86470,90815,91629],"straightlining":0.5714285714285714,"zigzagging":0.3333333333333333,"honeypot":0,"survey":"nfc6","trial_type":"survey-template","trial_index":3,"time_elapsed":178804,"internal_node_id":"0.0-3.0","experiment":"validation","task_version":"1.1","jspsych_version":"6.3.1","infrequency":0},{"responses":{"Q08":"2","Q10":"2","Q05":"1","Q02":"3","Q11":"0","Q06":"3","Q01":"3","Q03":"2","Q04":"1","Q09":"3","Q07":"3"},"rt":74045.99999999997,"item_order":[7,9,4,1,10,5,0,2,3,8,6],"radio_events":[9855.99999999997,15432.99999999997,19283.99999999997,21403.99999999997,28720,37122.99999999997,45177.99999999997,51327.99999999997,56805.99999999997,61417.99999999997,65417],"key_events":[],"mouse_events":[9855.99999999997,15432.99999999997,19283.99999999997,21403.99999999997,28720,37122.99999999997,42848.99999999997,45177.99999999997,51327.99999999997,54970.99999999997,56028.99999999997,56805.99999999997,61417.99999999997,65417,74031.99999999997],"straightlining":0.36363636363636365,"zigzagging":0.4,"honeypot":0,"survey":"openness","trial_type":"survey-template","trial_index":4,"time_elapsed":252855,"internal_node_id":"0.0-4.0","experiment":"validation","task_version":"1.1","jspsych_version":"6.3.1","infrequency":0},{"value":[0,1.2987012987012987,1.2333333333333334],"trial_type":"call-function","trial_index":5,"time_elapsed":252858,"internal_node_id":"0.0-5.0","experiment":"validation","task_version":"1.1","jspsych_version":"6.3.1","interactions":"[]"}]