[{"view_history":[{"page_index":0,"viewing_time":4394.5}],"rt":4395,"trial_type":"instructions","trial_index":0,"time_elapsed":4401,"internal_node_id":"0.0-0.0","experiment":"validation","task_version":"1.1","jspsych_version":"6.3.1"},{"rt":16726.89999999851,"responses":{"age":"35","gender-categorical":"Female","gender-free-response":"","ethnicity":"Not Hispanic or Latino","race":["White"],"education":"Master degree or higher"},"survey":"demographics","trial_type":"survey-demo","trial_index":1,"time_elapsed":21130,"internal_node_id":"0.0-1.0","experiment":"validation","task_version":"1.1","jspsych_version":"6.3.1"},{"responses":{"Q06":"3","Q04":"3","Q03":"4","Q01":"3","Q07":"2","Q05":"3","Q02":"3"},"rt":73031.5,"item_order":[5,3,2,0,6,4,1],"radio_events":[20527.300000000745,31338.199999999255,34848,42756.800000000745,48021.699999999255,53961.5,60666.10000000149,66752.40000000224,72456],"key_events":[],"mouse_events":[20527.300000000745,31338.199999999255,34848,42756.800000000745,48021.699999999255,53961.5,60666.10000000149,66752.40000000224,72456,73029.90000000224],"straightlining":0.5714285714285714,"zigzagging":0.5,"honeypot":0,"survey":"nfc6","trial_type":"survey-template","trial_index":2,"time_elapsed":94163,"internal_node_id":"0.0-2.0","experiment":"validation","task_version":"1.1","jspsych_version":"6.3.1","infrequency":0},{"responses":{"Q07":"1","Q06":"1","Q10":"1","Q09":"3","Q02":"0","Q11":"4","Q04":"0","Q08":"0","Q05":"1","Q03":"0","Q01":"1"},"rt":63109,"item_order":[6,5,9,8,1,10,3,7,4,2,0],"radio_events":[14800.39999999851,16892.89999999851,22146.699999999255,25735.10000000149,30291.300000000745,33407.60000000149,35736.199999999255,37435.199999999255,39910,54152.199999999255,59406],"key_events":[],"mouse_events":[14800.39999999851,16892.89999999851,22146.699999999255,25735.10000000149,26511.39999999851,30291.300000000745,33407.60000000149,35736.199999999255,37435.199999999255,39910,54152.199999999255,55468.300000000745,59406,63107],"straightlining":0.2727272727272727,"zigzagging":0.6,"honeypot":0,"survey":"neuroticism","trial_type":"survey-template","trial_index":3,"time_elapsed":157274,"internal_node_id":"0.0-3.0","experiment":"validation","task_version":"1.1","jspsych_version":"6.3.1","infrequency":0},{"responses":{"Q10":"4","Q01":"4","Q06":"4","Q08":"4","Q09":"4","Q03":"4","Q05":"0","Q07":"4","Q04":"1","Q02":"4","Q11":"0"},"rt":49418,"item_order":[9,0,5,7,8,2,4,6,3,1,10],"radio_events":[8298.10000000149,12258,15745.400000002235,18377.800000000745,20729.10000000149,23721.400000002235,27917.800000000745,33521.900000002235,34825.10000000149,39212.10000000149,43363.70000000298,46378.5],"key_events":[],"mouse_events":[8298.10000000149,12258,15745.400000002235,18377.800000000745,20729.10000000149,23721.400000002235,27917.800000000745,33521.900000002235,34825.10000000149,39212.10000000149,43363.70000000298,46378.5,49416.10000000149],"straightlining":0.5454545454545454,"zigzagging":0.6,"honeypot":0,"survey":"openness","trial_type":"survey-template","trial_index":4,"time_elapsed":206694,"internal_node_id":"0.0-4.0","experiment":"validation","task_version":"1.1","jspsych_version":"6.3.1","infrequency":0},{"value":[0,1.3896103896103895,1.7000000000000002],"trial_type":"call-function","trial_index":5,"time_elapsed":206695,"internal_node_id":"0.0-5.0","experiment":"validation","task_version":"1.1","jspsych_version":"6.3.1","interactions":"[]"}]