[{"view_history":[{"page_index":0,"viewing_time":3832.3000000715256}],"rt":3832.8000000715256,"trial_type":"instructions","trial_index":0,"time_elapsed":3847,"internal_node_id":"0.0-0.0","experiment":"validation","task_version":"2.0","jspsych_version":"6.3.1"},{"rt":16738.699999928474,"responses":{"age":"31","gender-categorical":"Female","gender-free-response":"","ethnicity":"Not Hispanic or Latino","race":["White"],"education":"Associate degree"},"survey":"demographics","trial_type":"survey-demo","trial_index":1,"time_elapsed":20588,"internal_node_id":"0.0-1.0","experiment":"validation","task_version":"2.0","jspsych_version":"6.3.1"},{"rt":48471.799999952316,"response":{"Q4":5,"Q3":5,"Q2":5,"Q7":5,"Q1":5,"Q5":5,"Q8":0,"Q6":0,"Q0":2},"question_order":[4,3,2,7,1,5,8,6,0],"survey":"sns","trial_type":"survey-likert","trial_index":2,"time_elapsed":69066,"internal_node_id":"0.0-2.0","experiment":"validation","task_version":"2.0","jspsych_version":"6.3.1","infrequency":0},{"responses":{"Q03":"4","Q11":"0","Q08":"3","Q05":"4","Q07":"1","Q01":"0","Q02":"3","Q09":"3","Q04":"4","Q06":"0","Q10":"3"},"rt":80220.89999997616,"item_order":[2,10,7,4,6,0,1,8,3,5,9],"radio_events":[3699.600000023842,9811.399999976158,15159.5,28103.600000023842,34691.5,40919.5,64113.39999997616,65157.5,67945.5,72673.39999997616,79409.39999997616],"key_events":[],"mouse_events":[3699.600000023842,9811.399999976158,15159.5,28103.600000023842,34691.5,40919.5,64113.39999997616,65157.5,67945.5,72673.39999997616,78979.39999997616,79409.39999997616,80219.5],"straightlining":0.5454545454545454,"zigzagging":0.2,"honeypot":0,"survey":"nfc10","trial_type":"survey-template","trial_index":3,"time_elapsed":149292,"internal_node_id":"0.0-3.0","experiment":"validation","task_version":"2.0","jspsych_version":"6.3.1","infrequency":0},{"responses":{"Q03":"4","Q04":"4","Q07":"4","Q02":"4","Q09":"4","Q08":"4","Q06":"4","Q05":"4","Q01":"4"},"rt":38628.89999997616,"item_order":[2,3,6,1,8,7,5,4,0],"radio_events":[8599.899999976158,11465.799999952316,12431.899999976158,15329.699999928474,22623.799999952316,25899.899999976158,27697.799999952316,32943.799999952316,37417.89999997616],"key_events":[],"mouse_events":[8599.899999976158,11465.799999952316,12431.899999976158,15329.699999928474,19209.899999976158,22623.799999952316,25899.899999976158,26919.899999976158,27697.799999952316,29039.799999952316,31559.799999952316,32943.799999952316,34113.799999952316,37417.89999997616,38628],"straightlining":0.8888888888888888,"zigzagging":0.25,"honeypot":0,"survey":"pcf","trial_type":"survey-template","trial_index":4,"time_elapsed":187926,"internal_node_id":"0.0-4.0","experiment":"validation","task_version":"2.0","jspsych_version":"6.3.1","infrequency":0},{"value":0,"trial_type":"call-function","trial_index":5,"time_elapsed":187929,"internal_node_id":"0.0-5.0","experiment":"validation","task_version":"2.0","jspsych_version":"6.3.1","interactions":"[{\"event\":\"blur\",\"trial\":1,\"time\":16810},{\"event\":\"focus\",\"trial\":1,\"time\":16810}]"}]