[{"view_history":[{"page_index":0,"viewing_time":2712.5}],"rt":2713.2000000476837,"trial_type":"instructions","trial_index":0,"time_elapsed":2745,"internal_node_id":"0.0-0.0","experiment":"validation","task_version":"1.1","jspsych_version":"6.3.1"},{"rt":28429,"responses":{"age":"18","gender-categorical":"Female","gender-free-response":"","ethnicity":"Not Hispanic or Latino","race":["White"],"education":"Some college"},"survey":"demographics","trial_type":"survey-demo","trial_index":1,"time_elapsed":31180,"internal_node_id":"0.0-1.0","experiment":"validation","task_version":"1.1","jspsych_version":"6.3.1"},{"responses":{"Q05":"3","Q08":"4","Q04":"3","Q06":"3","Q10":"3","Q01":"3","Q11":"4","Q03":"1","Q09":"4","Q02":"3","Q07":"3"},"rt":46660.10000002384,"item_order":[4,7,3,5,9,0,10,2,8,1,6],"radio_events":[7331.400000095367,9556.400000095367,11511,14464.800000071526,15905.900000095367,18741.400000095367,22890.400000095367,28656.100000023842,31266.5,35657.60000002384,39260.10000002384,44119.60000002384],"key_events":[],"mouse_events":[5339.600000023842,7331.400000095367,9556.400000095367,11511,14464.800000071526,15905.900000095367,18741.400000095367,22890.400000095367,26215.700000047684,28656.100000023842,31266.5,35657.60000002384,39260.10000002384,43176,44119.60000002384,46656.60000002384],"straightlining":0.36363636363636365,"zigzagging":0.2,"honeypot":0,"survey":"neuroticism","trial_type":"survey-template","trial_index":2,"time_elapsed":77856,"internal_node_id":"0.0-2.0","experiment":"validation","task_version":"1.1","jspsych_version":"6.3.1","infrequency":0},{"responses":{"Q08":"3","Q06":"4","Q04":"3","Q11":"0","Q01":"4","Q07":"4","Q02":"4","Q03":"4","Q05":"0","Q09":"2","Q10":"4"},"rt":49041.10000002384,"item_order":[7,5,3,10,0,6,1,2,4,8,9],"radio_events":[9119.200000047684,12115,14471.299999952316,17699.5,25521.5,28579.399999976158,31388.899999976158,33655.200000047684,38522.200000047684,40350.799999952316,47701.799999952316],"key_events":[],"mouse_events":[7030.5,9119.200000047684,10421.5,12115,14471.299999952316,17699.5,24476.5,25521.5,28579.399999976158,31388.899999976158,33655.200000047684,36107.5,38522.200000047684,40350.799999952316,43428,47701.799999952316,49038],"straightlining":0.36363636363636365,"zigzagging":0.6,"honeypot":0,"survey":"openness","trial_type":"survey-template","trial_index":3,"time_elapsed":126904,"internal_node_id":"0.0-3.0","experiment":"validation","task_version":"1.1","jspsych_version":"6.3.1","infrequency":0},{"responses":{"Q06":"2","Q04":"2","Q01":"1","Q05":"1","Q02":"1","Q03":"2","Q07":"2"},"rt":60701.10000002384,"item_order":[5,3,0,4,1,2,6],"radio_events":[14898.899999976158,17665.5,23609.899999976158,27998.5,37995.39999997616,47429.10000002384,50872.10000002384,59521.5],"key_events":[],"mouse_events":[13520.399999976158,14898.899999976158,17665.5,23609.899999976158,27998.5,35324.60000002384,37995.39999997616,47429.10000002384,50872.10000002384,57885.89999997616,58656.200000047684,59521.5,60698.799999952316],"straightlining":0.5714285714285714,"zigzagging":0.3333333333333333,"honeypot":0,"survey":"nfc6","trial_type":"survey-template","trial_index":4,"time_elapsed":187610,"internal_node_id":"0.0-4.0","experiment":"validation","task_version":"1.1","jspsych_version":"6.3.1","infrequency":0},{"value":[0,1.2987012987012987,1.1333333333333333],"trial_type":"call-function","trial_index":5,"time_elapsed":187615,"internal_node_id":"0.0-5.0","experiment":"validation","task_version":"1.1","jspsych_version":"6.3.1","interactions":"[]"}]