[{"view_history":[{"page_index":0,"viewing_time":2284.199999809265}],"rt":2284.2999999523163,"trial_type":"instructions","trial_index":0,"time_elapsed":2299,"internal_node_id":"0.0-0.0","experiment":"validation","task_version":"1.1","jspsych_version":"6.3.1"},{"rt":10985.900000095367,"responses":{"age":"21","gender-categorical":"Female","gender-free-response":"","ethnicity":"Not Hispanic or Latino","race":["White"],"education":"High school"},"survey":"demographics","trial_type":"survey-demo","trial_index":1,"time_elapsed":13287,"internal_node_id":"0.0-1.0","experiment":"validation","task_version":"1.1","jspsych_version":"6.3.1"},{"responses":{"Q09":"1","Q04":"1","Q06":"0","Q01":"1","Q10":"1","Q02":"0","Q11":"4","Q03":"1","Q08":"1","Q05":"0","Q07":"1"},"rt":26106.099999904633,"item_order":[8,3,5,0,9,1,10,2,7,4,6],"radio_events":[2928.4000000953674,4855.5,6094.900000095367,7974.900000095367,9902.099999904633,11413.700000047684,12907,15109.5,16028.900000095367,17472.099999904633,18663.799999952316,20441.599999904633],"key_events":[],"mouse_events":[2928.4000000953674,4855.5,6094.900000095367,7974.900000095367,9902.099999904633,11413.700000047684,12907,15109.5,16028.900000095367,17472.099999904633,18663.799999952316,20441.599999904633,26105.200000047684],"straightlining":0.36363636363636365,"zigzagging":0.1,"honeypot":0,"survey":"neuroticism","trial_type":"survey-template","trial_index":2,"time_elapsed":39399,"internal_node_id":"0.0-2.0","experiment":"validation","task_version":"1.1","jspsych_version":"6.3.1","infrequency":0},{"responses":{"Q04":"4","Q02":"4","Q06":"1","Q03":"2","Q05":"3","Q01":"4","Q07":"2"},"rt":28134.800000190735,"item_order":[3,1,5,2,4,0,6],"radio_events":[9217.700000047684,11924.700000047684,15901.200000047684,18686.60000014305,20823.700000047684,22116.300000190735,25314.5],"key_events":[],"mouse_events":[9217.700000047684,11924.700000047684,15901.200000047684,18686.60000014305,20823.700000047684,22116.300000190735,25314.5,28133.5],"straightlining":0.2857142857142857,"zigzagging":0.6666666666666666,"honeypot":0,"survey":"nfc6","trial_type":"survey-template","trial_index":3,"time_elapsed":67536,"internal_node_id":"0.0-3.0","experiment":"validation","task_version":"1.1","jspsych_version":"6.3.1","infrequency":0},{"responses":{"Q06":"0","Q04":"2","Q09":"4","Q11":"0","Q01":"4","Q02":"3","Q05":"0","Q07":"4","Q03":"3","Q08":"1","Q10":"4"},"rt":34183.90000009537,"item_order":[5,3,8,10,0,1,4,6,2,7,9],"radio_events":[5963.600000143051,8799.100000143051,11156.600000143051,14970.100000143051,17198.400000095367,18549.200000047684,19892.900000095367,24227.700000047684,26914.60000014305,29074.5,32027.800000190735],"key_events":[],"mouse_events":[5963.600000143051,7424.400000095367,8799.100000143051,11156.600000143051,14057.300000190735,14970.100000143051,17198.400000095367,18549.200000047684,19892.900000095367,24227.700000047684,26914.60000014305,29074.5,32027.800000190735,34182.200000047684],"straightlining":0.36363636363636365,"zigzagging":0.4,"honeypot":0,"survey":"openness","trial_type":"survey-template","trial_index":4,"time_elapsed":101718,"internal_node_id":"0.0-4.0","experiment":"validation","task_version":"1.1","jspsych_version":"6.3.1","infrequency":0},{"value":[0,1.012987012987013,1.1666666666666665],"trial_type":"call-function","trial_index":5,"time_elapsed":101720,"internal_node_id":"0.0-5.0","experiment":"validation","task_version":"1.1","jspsych_version":"6.3.1","interactions":"[]"}]