[{"view_history":[{"page_index":0,"viewing_time":2070.899999976158}],"rt":2071.2999999523163,"trial_type":"instructions","trial_index":0,"time_elapsed":2127,"internal_node_id":"0.0-0.0","experiment":"validation","task_version":"2.0","jspsych_version":"6.3.1"},{"rt":9842.800000071526,"responses":{"age":"22","gender-categorical":"Female","gender-free-response":"","ethnicity":"Not Hispanic or Latino","race":["White"],"education":"Some college"},"survey":"demographics","trial_type":"survey-demo","trial_index":1,"time_elapsed":11974,"internal_node_id":"0.0-1.0","experiment":"validation","task_version":"2.0","jspsych_version":"6.3.1"},{"responses":{"Q03":"2","Q07":"2","Q05":"1","Q04":"1","Q08":"3","Q09":"4","Q02":"2","Q06":"1","Q01":"1"},"rt":32649.200000047684,"item_order":[2,6,4,3,7,8,1,5,0],"radio_events":[7512.399999976158,10704.600000023842,12571.200000047684,16136.600000023842,18209.399999976158,20581.899999976158,24823.399999976158,30390.100000023842,31798.700000047684],"key_events":[],"mouse_events":[7512.399999976158,10704.600000023842,12571.200000047684,16136.600000023842,18209.399999976158,20581.899999976158,24823.399999976158,30390.100000023842,31798.700000047684,32646.899999976158],"straightlining":0.4444444444444444,"zigzagging":0.25,"honeypot":0,"survey":"pcf","trial_type":"survey-template","trial_index":2,"time_elapsed":44630,"internal_node_id":"0.0-2.0","experiment":"validation","task_version":"2.0","jspsych_version":"6.3.1","infrequency":0},{"rt":38233.89999997616,"response":{"Q3":4,"Q8":0,"Q5":3,"Q7":4,"Q4":5,"Q6":2,"Q0":3,"Q1":4,"Q2":4},"question_order":[3,8,5,7,4,6,0,1,2],"survey":"sns","trial_type":"survey-likert","trial_index":3,"time_elapsed":82866,"internal_node_id":"0.0-3.0","experiment":"validation","task_version":"2.0","jspsych_version":"6.3.1","infrequency":0},{"responses":{"Q04":"4","Q01":"3","Q07":"4","Q10":"3","Q09":"3","Q11":"0","Q02":"4","Q03":"3","Q05":"1","Q06":"3","Q08":"3"},"rt":385423.10000002384,"item_order":[3,0,6,9,8,10,1,2,4,5,7],"radio_events":[16256.700000047684,18477.600000023842,49274.5,141968.10000002384,146769.10000002384,364359.40000009537,365341.10000002384,369053.10000002384,371263.90000009537,379444.10000002384,382518.8000000715,384351.60000002384],"key_events":[],"mouse_events":[16256.700000047684,18477.600000023842,49274.5,141968.10000002384,146769.10000002384,364359.40000009537,365341.10000002384,369053.10000002384,371263.90000009537,379444.10000002384,382518.8000000715,384351.60000002384,384939.5,385420.3000000715],"straightlining":0.5454545454545454,"zigzagging":0.3,"honeypot":0,"survey":"nfc10","trial_type":"survey-template","trial_index":4,"time_elapsed":468300,"internal_node_id":"0.0-4.0","experiment":"validation","task_version":"2.0","jspsych_version":"6.3.1","infrequency":0},{"value":0,"trial_type":"call-function","trial_index":5,"time_elapsed":468304,"internal_node_id":"0.0-5.0","experiment":"validation","task_version":"2.0","jspsych_version":"6.3.1","interactions":"[{\"event\":\"blur\",\"trial\":4,\"time\":251405},{\"event\":\"focus\",\"trial\":4,\"time\":433574}]"}]