[{"view_history":[{"page_index":0,"viewing_time":1694.0999999940395}],"rt":1694.7000000029802,"trial_type":"instructions","trial_index":0,"time_elapsed":1712,"internal_node_id":"0.0-0.0","experiment":"validation","task_version":"2.0","jspsych_version":"6.3.1"},{"rt":9957.5,"responses":{"age":"22","gender-categorical":"Female","gender-free-response":"","ethnicity":"Not Hispanic or Latino","race":["White"],"education":"Bachelor degree"},"survey":"demographics","trial_type":"survey-demo","trial_index":1,"time_elapsed":11674,"internal_node_id":"0.0-1.0","experiment":"validation","task_version":"2.0","jspsych_version":"6.3.1"},{"responses":{"Q07":"2","Q02":"1","Q03":"1","Q06":"1","Q09":"4","Q05":"1","Q08":"2","Q01":"3","Q04":"3"},"rt":23852.29999999702,"item_order":[6,1,2,5,8,4,7,0,3],"radio_events":[8747.20000000298,11899.5,12501.20000000298,13551.39999999106,17264.59999999404,17971.09999999404,19265.59999999404,20550.59999999404,22829.59999999404],"key_events":[],"mouse_events":[8747.20000000298,11899.5,12501.20000000298,13551.39999999106,15881.39999999106,17264.59999999404,17971.09999999404,19265.59999999404,20550.59999999404,22829.59999999404,23851.39999999106],"straightlining":0.4444444444444444,"zigzagging":0.625,"honeypot":0,"survey":"pcf","trial_type":"survey-template","trial_index":2,"time_elapsed":35532,"internal_node_id":"0.0-2.0","experiment":"validation","task_version":"2.0","jspsych_version":"6.3.1","infrequency":0},{"rt":26494,"response":{"Q5":2,"Q6":1,"Q1":4,"Q8":0,"Q4":3,"Q0":4,"Q7":4,"Q3":5,"Q2":5},"question_order":[5,6,1,8,4,0,7,3,2],"survey":"sns","trial_type":"survey-likert","trial_index":3,"time_elapsed":62031,"internal_node_id":"0.0-3.0","experiment":"validation","task_version":"2.0","jspsych_version":"6.3.1","infrequency":0},{"responses":{"Q05":"3","Q11":"0","Q04":"3","Q08":"3","Q03":"4","Q06":"1","Q07":"3","Q02":"4","Q10":"4","Q01":"4","Q09":"4"},"rt":116501.60000000894,"item_order":[4,10,3,7,2,5,6,1,9,0,8],"radio_events":[72863.20000000298,75868.5,82803.70000000298,84198.90000000596,89493.40000000596,91740.30000001192,93530.20000000298,94723.10000000894,97662.30000001192,98752.5,112269.5,115518.60000000894],"key_events":[],"mouse_events":[72863.20000000298,75868.5,82803.70000000298,84198.90000000596,87486,89493.40000000596,91740.30000001192,93530.20000000298,94723.10000000894,97662.30000001192,98752.5,99483.60000000894,112269.5,115518.60000000894,116500.90000000596],"straightlining":0.36363636363636365,"zigzagging":0.4,"honeypot":0,"survey":"nfc10","trial_type":"survey-template","trial_index":4,"time_elapsed":178536,"internal_node_id":"0.0-4.0","experiment":"validation","task_version":"2.0","jspsych_version":"6.3.1","infrequency":0},{"value":0,"trial_type":"call-function","trial_index":5,"time_elapsed":178539,"internal_node_id":"0.0-5.0","experiment":"validation","task_version":"2.0","jspsych_version":"6.3.1","interactions":"[{\"event\":\"blur\",\"trial\":4,\"time\":65835},{\"event\":\"focus\",\"trial\":4,\"time\":134787},{\"event\":\"blur\",\"trial\":4,\"time\":162573},{\"event\":\"focus\",\"trial\":4,\"time\":174178}]"}]