[{"view_history":[{"page_index":0,"viewing_time":5305.800000000047}],"rt":5307.200000000186,"trial_type":"instructions","trial_index":0,"time_elapsed":5320,"internal_node_id":"0.0-0.0","experiment":"validation","task_version":"1.1","jspsych_version":"6.3.1"},{"rt":18551.59999999986,"responses":{"age":"41","gender-categorical":"Female","gender-free-response":"","ethnicity":"Not Hispanic or Latino","race":["Black or African American"],"education":"Associate degree"},"survey":"demographics","trial_type":"survey-demo","trial_index":1,"time_elapsed":23877,"internal_node_id":"0.0-1.0","experiment":"validation","task_version":"1.1","jspsych_version":"6.3.1"},{"responses":{"Q10":"2","Q04":"1","Q02":"1","Q09":"2","Q01":"1","Q05":"1","Q03":"0","Q11":"4","Q07":"1","Q08":"1","Q06":"2"},"rt":35201.89999999991,"item_order":[9,3,1,8,0,4,2,10,6,7,5],"radio_events":[3071.899999999907,4885.299999999814,6493.199999999953,11542.899999999907,13118.399999999907,14511.199999999953,17292.399999999907,21233,25508.899999999907,27751.299999999814,32883,33776.69999999995],"key_events":[],"mouse_events":[3071.899999999907,4885.299999999814,6493.199999999953,11542.899999999907,13118.399999999907,14511.199999999953,17292.399999999907,20322.59999999986,21233,23633.199999999953,25508.899999999907,27751.299999999814,32883,33776.69999999995,35197.19999999995],"straightlining":0.36363636363636365,"zigzagging":0.7,"honeypot":0,"survey":"neuroticism","trial_type":"survey-template","trial_index":2,"time_elapsed":59088,"internal_node_id":"0.0-2.0","experiment":"validation","task_version":"1.1","jspsych_version":"6.3.1","infrequency":0},{"responses":{"Q06":"3","Q01":"3","Q04":"3","Q03":"3","Q02":"2","Q05":"3","Q07":"2"},"rt":32349,"item_order":[5,0,3,2,1,4,6],"radio_events":[8582.5,11139.300000000047,15071.300000000047,17619.399999999907,21790.5,28747.5,31575.699999999953],"key_events":[],"mouse_events":[8582.5,11139.300000000047,15071.300000000047,17619.399999999907,21790.5,28747.5,30767.199999999953,31575.699999999953,32347.59999999986],"straightlining":0.42857142857142855,"zigzagging":0.5,"honeypot":0,"survey":"nfc6","trial_type":"survey-template","trial_index":3,"time_elapsed":91443,"internal_node_id":"0.0-3.0","experiment":"validation","task_version":"1.1","jspsych_version":"6.3.1","infrequency":0},{"responses":{"Q09":"4","Q02":"3","Q08":"3","Q03":"4","Q07":"4","Q05":"1","Q11":"0","Q01":"4","Q04":"2","Q06":"3","Q10":"4"},"rt":44296.19999999995,"item_order":[8,1,7,2,6,4,10,0,3,5,9],"radio_events":[4311.100000000093,6052.399999999907,8928.199999999953,13805.199999999953,15618.300000000047,25693.199999999953,27753,32309.300000000047,34871.60000000009,40120.80000000005,43129.10000000009],"key_events":[],"mouse_events":[4311.100000000093,6052.399999999907,8928.199999999953,11065,12741.5,13805.199999999953,15618.300000000047,25693.199999999953,27753,32309.300000000047,34871.60000000009,40120.80000000005,42045.30000000005,43129.10000000009,44293.10000000009],"straightlining":0.36363636363636365,"zigzagging":0.4,"honeypot":0,"survey":"openness","trial_type":"survey-template","trial_index":4,"time_elapsed":135746,"internal_node_id":"0.0-4.0","experiment":"validation","task_version":"1.1","jspsych_version":"6.3.1","infrequency":0},{"value":[0,1.155844155844156,1.6],"trial_type":"call-function","trial_index":5,"time_elapsed":135749,"internal_node_id":"0.0-5.0","experiment":"validation","task_version":"1.1","jspsych_version":"6.3.1","interactions":"[{\"event\":\"blur\",\"trial\":1,\"time\":14925},{\"event\":\"focus\",\"trial\":1,\"time\":15197}]"}]