[{"view_history":[{"page_index":0,"viewing_time":4321.199999999255}],"rt":4322.199999999255,"trial_type":"instructions","trial_index":0,"time_elapsed":4339,"internal_node_id":"0.0-0.0","experiment":"validation","task_version":"1.1","jspsych_version":"6.3.1"},{"rt":14125.700000001118,"responses":{"age":"31","gender-categorical":"Female","gender-free-response":"","ethnicity":"Not Hispanic or Latino","race":["White"],"education":"Some college"},"survey":"demographics","trial_type":"survey-demo","trial_index":1,"time_elapsed":18468,"internal_node_id":"0.0-1.0","experiment":"validation","task_version":"1.1","jspsych_version":"6.3.1"},{"responses":{"Q06":"3","Q07":"4","Q02":"3","Q09":"3","Q05":"1","Q11":"0","Q08":"2","Q03":"3","Q01":"4","Q04":"2","Q10":"2"},"rt":38956,"item_order":[5,6,1,8,4,10,7,2,0,3,9],"radio_events":[8514.599999999627,9722.39999999851,15450,16538.39999999851,19650.5,23402.299999998882,27130.599999999627,29778.599999999627,31386.599999999627,34994.5,37786.79999999888],"key_events":[],"mouse_events":[8514.599999999627,9722.39999999851,15450,16538.39999999851,19650.5,23402.299999998882,27130.599999999627,29778.599999999627,31386.599999999627,33426.5,33843.699999999255,34402.59999999963,34994.5,37786.79999999888,38954.39999999851],"straightlining":0.2727272727272727,"zigzagging":0.3,"honeypot":0,"survey":"openness","trial_type":"survey-template","trial_index":2,"time_elapsed":57429,"internal_node_id":"0.0-2.0","experiment":"validation","task_version":"1.1","jspsych_version":"6.3.1","infrequency":0},{"responses":{"Q01":"3","Q05":"3","Q04":"3","Q06":"2","Q03":"3","Q07":"2","Q02":"3"},"rt":42381.59999999963,"item_order":[0,4,3,5,2,6,1],"radio_events":[12155.39999999851,16243.799999998882,21364,28564.199999999255,34124.199999999255,36212.09999999963,41636.29999999888],"key_events":[],"mouse_events":[12155.39999999851,16243.799999998882,21364,28564.199999999255,34124.199999999255,36212.09999999963,40923.89999999851,41636.29999999888,42380.39999999851],"straightlining":0.42857142857142855,"zigzagging":0.6666666666666666,"honeypot":0,"survey":"nfc6","trial_type":"survey-template","trial_index":3,"time_elapsed":99814,"internal_node_id":"0.0-3.0","experiment":"validation","task_version":"1.1","jspsych_version":"6.3.1","infrequency":0},{"responses":{"Q08":"0","Q02":"1","Q05":"2","Q03":"2","Q06":"3","Q09":"2","Q11":"4","Q04":"2","Q10":"1","Q01":"2","Q07":"2"},"rt":30981.699999999255,"item_order":[7,1,4,2,5,8,10,3,9,0,6],"radio_events":[3978.89999999851,5546.799999998882,9835.199999999255,12899.599999999627,15827.199999999255,18627.39999999851,21539.299999998882,23603.599999999627,25555.39999999851,28211.699999999255,29699.799999998882],"key_events":[],"mouse_events":[3978.89999999851,5546.799999998882,9835.199999999255,12899.599999999627,15091.699999999255,15827.199999999255,18627.39999999851,21539.299999998882,23603.599999999627,25555.39999999851,28211.699999999255,29699.799999998882,30980],"straightlining":0.5454545454545454,"zigzagging":0.5,"honeypot":0,"survey":"neuroticism","trial_type":"survey-template","trial_index":4,"time_elapsed":130799,"internal_node_id":"0.0-4.0","experiment":"validation","task_version":"1.1","jspsych_version":"6.3.1","infrequency":0},{"value":[0,1.2467532467532467,1.4666666666666666],"trial_type":"call-function","trial_index":5,"time_elapsed":130802,"internal_node_id":"0.0-5.0","experiment":"validation","task_version":"1.1","jspsych_version":"6.3.1","interactions":"[]"}]