[{"view_history":[{"page_index":0,"viewing_time":2441.7000000001863}],"rt":2442.2000000001863,"trial_type":"instructions","trial_index":0,"time_elapsed":2459,"internal_node_id":"0.0-0.0","experiment":"validation","task_version":"1.1","jspsych_version":"6.3.1"},{"rt":10078,"responses":{"age":"33","gender-categorical":"Female","gender-free-response":"","ethnicity":"Hispanic or Latino","race":["White"],"education":"Associate degree"},"survey":"demographics","trial_type":"survey-demo","trial_index":1,"time_elapsed":12542,"internal_node_id":"0.0-1.0","experiment":"validation","task_version":"1.1","jspsych_version":"6.3.1"},{"responses":{"Q05":"2","Q06":"1","Q11":"4","Q09":"0","Q02":"0","Q10":"1","Q04":"1","Q07":"1","Q03":"1","Q01":"1","Q08":"1"},"rt":46537,"item_order":[4,5,10,8,1,9,3,6,2,0,7],"radio_events":[8031.100000000559,13260.900000000373,16283.800000000745,19249.60000000056,22241,25888,31228.900000000373,35458.5,41041.40000000037,42927.5,45142.40000000037],"key_events":[],"mouse_events":[8031.100000000559,13260.900000000373,16283.800000000745,19249.60000000056,22241,25888,31228.900000000373,35458.5,40593.10000000056,41041.40000000037,42927.5,45142.40000000037,46534.800000000745],"straightlining":0.36363636363636365,"zigzagging":0.3,"honeypot":0,"survey":"neuroticism","trial_type":"survey-template","trial_index":2,"time_elapsed":59087,"internal_node_id":"0.0-2.0","experiment":"validation","task_version":"1.1","jspsych_version":"6.3.1","infrequency":0},{"responses":{"Q02":"3","Q05":"2","Q01":"3","Q04":"1","Q03":"3","Q06":"3","Q07":"2"},"rt":41118.699999999255,"item_order":[1,4,0,3,2,5,6],"radio_events":[7059.5999999996275,10074.299999999814,14184.5,19334.5,20197.89999999944,25363.199999999255,32928.5,36726.39999999944,39917.09999999963],"key_events":[],"mouse_events":[7059.5999999996275,10074.299999999814,14184.5,19334.5,20197.89999999944,25363.199999999255,32928.5,36726.39999999944,39917.09999999963,41117.299999999814],"straightlining":0.5714285714285714,"zigzagging":0.5,"honeypot":0,"survey":"nfc6","trial_type":"survey-template","trial_index":3,"time_elapsed":100212,"internal_node_id":"0.0-3.0","experiment":"validation","task_version":"1.1","jspsych_version":"6.3.1","infrequency":0},{"responses":{"Q07":"3","Q10":"4","Q09":"4","Q08":"2","Q02":"4","Q11":"0","Q05":"0","Q01":"4","Q06":"3","Q04":"1","Q03":"2"},"rt":39184.39999999944,"item_order":[6,9,8,7,1,10,4,0,5,3,2],"radio_events":[4422.5,9188.599999999627,15225.399999999441,17320.299999999814,20135.5,25101.5,28867.39999999944,30946.199999999255,33089.89999999944,35896.39999999944,38399.09999999963],"key_events":[],"mouse_events":[4422.5,9188.599999999627,15225.399999999441,17320.299999999814,20135.5,25101.5,28867.39999999944,30946.199999999255,33089.89999999944,35896.39999999944,38399.09999999963,39182.5],"straightlining":0.2727272727272727,"zigzagging":0.4,"honeypot":0,"survey":"openness","trial_type":"survey-template","trial_index":4,"time_elapsed":139404,"internal_node_id":"0.0-4.0","experiment":"validation","task_version":"1.1","jspsych_version":"6.3.1","infrequency":0},{"value":[0,1.2077922077922079,1.2000000000000002],"trial_type":"call-function","trial_index":5,"time_elapsed":139407,"internal_node_id":"0.0-5.0","experiment":"validation","task_version":"1.1","jspsych_version":"6.3.1","interactions":"[]"}]