[{"view_history":[{"page_index":0,"viewing_time":3151.7000000029802}],"rt":3151.89999999851,"trial_type":"instructions","trial_index":0,"time_elapsed":3166,"internal_node_id":"0.0-0.0","experiment":"validation","task_version":"1.1","jspsych_version":"6.3.1"},{"rt":15152.5,"responses":{"age":"41","gender-categorical":"Male","gender-free-response":"","ethnicity":"Not Hispanic or Latino","race":["White"],"education":"Some college"},"survey":"demographics","trial_type":"survey-demo","trial_index":1,"time_elapsed":18321,"internal_node_id":"0.0-1.0","experiment":"validation","task_version":"1.1","jspsych_version":"6.3.1"},{"responses":{"Q03":"1","Q09":"3","Q06":"2","Q10":"2","Q05":"2","Q02":"0","Q04":"1","Q08":"1","Q07":"1","Q01":"1","Q11":"4"},"rt":37626.89999999851,"item_order":[2,8,5,9,4,1,3,7,6,0,10],"radio_events":[4571.89999999851,6379.89999999851,11229.59999999404,18566.09999999404,19460.09999999404,23028.19999999553,26153.79999999702,27647.5,30733.19999999553,33542.69999999553,36875.69999999553],"key_events":[],"mouse_events":[4571.89999999851,6379.89999999851,10596.19999999553,11229.59999999404,17760.5,18566.09999999404,19460.09999999404,21437.19999999553,23028.19999999553,26153.79999999702,27647.5,30733.19999999553,32769.29999999702,33542.69999999553,36875.69999999553,37625.5],"straightlining":0.36363636363636365,"zigzagging":0.2,"honeypot":0,"survey":"neuroticism","trial_type":"survey-template","trial_index":2,"time_elapsed":55954,"internal_node_id":"0.0-2.0","experiment":"validation","task_version":"1.1","jspsych_version":"6.3.1","infrequency":0},{"responses":{"Q04":"4","Q02":"2","Q10":"4","Q03":"3","Q01":"2","Q09":"1","Q08":"4","Q06":"2","Q07":"1","Q11":"0","Q05":"1"},"rt":39350.90000000596,"item_order":[3,1,9,2,0,8,7,5,6,10,4],"radio_events":[12699.30000000447,13962.70000000298,16016,19775.90000000596,22216.90000000596,24941.60000000149,27835.80000000447,29757.70000000298,32056.40000000596,37452,38533.5],"key_events":[],"mouse_events":[11087.40000000596,12699.30000000447,13962.70000000298,16016,19775.90000000596,22216.90000000596,24941.60000000149,27835.80000000447,29757.70000000298,32056.40000000596,35504.80000000447,37452,38533.5,39350],"straightlining":0.36363636363636365,"zigzagging":0.3,"honeypot":0,"survey":"openness","trial_type":"survey-template","trial_index":3,"time_elapsed":95309,"internal_node_id":"0.0-3.0","experiment":"validation","task_version":"1.1","jspsych_version":"6.3.1","infrequency":0},{"responses":{"Q06":"1","Q01":"3","Q07":"2","Q04":"2","Q02":"2","Q05":"3","Q03":"3"},"rt":57294,"item_order":[5,0,6,3,1,4,2],"radio_events":[13638.10000000149,17565.20000000298,21133.29999999702,43684.5,47838.39999999851,49573.29999999702,53574.10000000149,56288.10000000149],"key_events":[],"mouse_events":[13207.60000000149,13638.10000000149,17565.20000000298,21133.29999999702,43684.5,47838.39999999851,48811.89999999851,49573.29999999702,53574.10000000149,55143,55765.39999999851,56288.10000000149,57293.39999999851],"straightlining":0.42857142857142855,"zigzagging":0.3333333333333333,"honeypot":0,"survey":"nfc6","trial_type":"survey-template","trial_index":4,"time_elapsed":152607,"internal_node_id":"0.0-4.0","experiment":"validation","task_version":"1.1","jspsych_version":"6.3.1","infrequency":0},{"value":[0,1.155844155844156,0.8333333333333333],"trial_type":"call-function","trial_index":5,"time_elapsed":152610,"internal_node_id":"0.0-5.0","experiment":"validation","task_version":"1.1","jspsych_version":"6.3.1","interactions":"[]"}]