[{"view_history":[{"page_index":0,"viewing_time":1989}],"rt":1989.2999999970198,"trial_type":"instructions","trial_index":0,"time_elapsed":2003,"internal_node_id":"0.0-0.0","experiment":"validation","task_version":"2.0","jspsych_version":"6.3.1"},{"rt":19078.79999999702,"responses":{"age":"52","gender-categorical":"Male","gender-free-response":"","ethnicity":"Not Hispanic or Latino","race":["Rather not say"],"education":"Master degree or higher"},"survey":"demographics","trial_type":"survey-demo","trial_index":1,"time_elapsed":21084,"internal_node_id":"0.0-1.0","experiment":"validation","task_version":"2.0","jspsych_version":"6.3.1"},{"responses":{"Q08":"4","Q09":"4","Q04":"3","Q02":"3","Q07":"3","Q05":"1","Q01":"3","Q06":"2","Q03":"2"},"rt":40740.40000000596,"item_order":[7,8,3,1,6,4,0,5,2],"radio_events":[5738.29999999702,15109.90000000596,21123.5,21730.90000000596,24258.20000000298,26897,29424.29999999702,33046.20000000298,39523.79999999702],"key_events":[],"mouse_events":[5738.29999999702,8873.59999999404,9760,15109.90000000596,19396.59999999404,21123.5,21730.90000000596,24258.20000000298,26897,29424.29999999702,31151.40000000596,32527.40000000596,33046.20000000298,34541.79999999702,35621.40000000596,39523.79999999702,40739.29999999702],"straightlining":0.4444444444444444,"zigzagging":0.25,"honeypot":0,"survey":"pcf","trial_type":"survey-template","trial_index":2,"time_elapsed":61826,"internal_node_id":"0.0-2.0","experiment":"validation","task_version":"2.0","jspsych_version":"6.3.1","infrequency":0},{"responses":{"Q05":"4","Q03":"4","Q09":"4","Q11":"0","Q07":"0","Q06":"4","Q10":"4","Q04":"4","Q01":"4","Q02":"4","Q08":"4"},"rt":39372.10000000894,"item_order":[4,2,8,10,6,5,9,3,0,1,7],"radio_events":[5314.20000000298,6929.9000000059605,8680.60000000894,12942.70000000298,16733.10000000894,19707.79999999702,25896.90000000596,28920,31638.90000000596,35572,38531.60000000894],"key_events":[],"mouse_events":[5314.20000000298,6929.9000000059605,8680.60000000894,12942.70000000298,16733.10000000894,19707.79999999702,24602.29999999702,25896.90000000596,28920,30367.20000000298,31071.29999999702,31638.90000000596,35572,37788.29999999702,38531.60000000894,39371.20000000298],"straightlining":0.5454545454545454,"zigzagging":0.5,"honeypot":0,"survey":"nfc10","trial_type":"survey-template","trial_index":3,"time_elapsed":101201,"internal_node_id":"0.0-3.0","experiment":"validation","task_version":"2.0","jspsych_version":"6.3.1","infrequency":0},{"rt":47695.29999999702,"response":{"Q1":5,"Q8":0,"Q2":4,"Q5":5,"Q7":5,"Q3":5,"Q4":5,"Q6":0,"Q0":4},"question_order":[1,8,2,5,7,3,4,6,0],"survey":"sns","trial_type":"survey-likert","trial_index":4,"time_elapsed":148899,"internal_node_id":"0.0-4.0","experiment":"validation","task_version":"2.0","jspsych_version":"6.3.1","infrequency":0},{"value":0,"trial_type":"call-function","trial_index":5,"time_elapsed":148900,"internal_node_id":"0.0-5.0","experiment":"validation","task_version":"2.0","jspsych_version":"6.3.1","interactions":"[]"}]