[{"view_history":[{"page_index":0,"viewing_time":1194.800000011921}],"rt":1195,"trial_type":"instructions","trial_index":0,"time_elapsed":1215,"internal_node_id":"0.0-0.0","experiment":"validation","task_version":"1.1","jspsych_version":"6.3.1"},{"rt":9358.800000011921,"responses":{"age":"37","gender-categorical":"Female","gender-free-response":"","ethnicity":"Not Hispanic or Latino","race":["White"],"education":"Master degree or higher"},"survey":"demographics","trial_type":"survey-demo","trial_index":1,"time_elapsed":10576,"internal_node_id":"0.0-1.0","experiment":"validation","task_version":"1.1","jspsych_version":"6.3.1"},{"responses":{"Q07":"4","Q05":"0","Q09":"4","Q06":"4","Q01":"4","Q04":"1","Q11":"0","Q10":"4","Q02":"4","Q08":"4","Q03":"4"},"rt":27644.5,"item_order":[6,4,8,5,0,3,10,9,1,7,2],"radio_events":[3186.199999988079,5722.199999988079,6938.799999952316,10561.5,13881.899999976158,17281.399999976158,19402.099999964237,21730.599999964237,24521.799999952316,25458.299999952316,27129.5],"key_events":[],"mouse_events":[3186.199999988079,5722.199999988079,6938.799999952316,10561.5,12577.199999988079,13409.899999976158,13881.899999976158,17281.399999976158,19402.099999964237,21730.599999964237,22969.69999998808,24521.799999952316,25458.299999952316,26762.399999976158,27129.5,27642.399999976158],"straightlining":0.5454545454545454,"zigzagging":0.7,"honeypot":0,"survey":"openness","trial_type":"survey-template","trial_index":2,"time_elapsed":38227,"internal_node_id":"0.0-2.0","experiment":"validation","task_version":"1.1","jspsych_version":"6.3.1","infrequency":0},{"responses":{"Q10":"3","Q06":"3","Q11":"4","Q08":"1","Q01":"4","Q02":"2","Q05":"1","Q07":"4","Q04":"0","Q09":"1","Q03":"4"},"rt":30921.399999976158,"item_order":[9,5,10,7,0,1,4,6,3,8,2],"radio_events":[4432.199999988079,6311,7775.800000011921,9432.300000011921,11399.699999988079,15303.800000011921,17544.30000001192,20759.399999976158,23472.5,28063.899999976158,30607.399999976158],"key_events":[],"mouse_events":[4432.199999988079,6311,7775.800000011921,9432.300000011921,11399.699999988079,15303.800000011921,17544.30000001192,20759.399999976158,23472.5,28063.899999976158,30607.399999976158,30919.599999964237],"straightlining":0.2727272727272727,"zigzagging":0.5,"honeypot":0,"survey":"neuroticism","trial_type":"survey-template","trial_index":3,"time_elapsed":69154,"internal_node_id":"0.0-3.0","experiment":"validation","task_version":"1.1","jspsych_version":"6.3.1","infrequency":0},{"responses":{"Q06":"4","Q04":"4","Q07":"2","Q03":"4","Q02":"4","Q05":"4","Q01":"4"},"rt":20399.599999964237,"item_order":[5,3,6,2,1,4,0],"radio_events":[7342.599999964237,10287.099999964237,12391.399999976158,15158.599999964237,17038.69999998808,18535,19855.69999998808],"key_events":[],"mouse_events":[7342.599999964237,10287.099999964237,12391.399999976158,14166.599999964237,15158.599999964237,17038.69999998808,18535,19855.69999998808,20398.5],"straightlining":0.5714285714285714,"zigzagging":0.3333333333333333,"honeypot":0,"survey":"nfc6","trial_type":"survey-template","trial_index":4,"time_elapsed":89561,"internal_node_id":"0.0-4.0","experiment":"validation","task_version":"1.1","jspsych_version":"6.3.1","infrequency":0},{"value":[0,1.3896103896103895,1.5333333333333332],"trial_type":"call-function","trial_index":5,"time_elapsed":89566,"internal_node_id":"0.0-5.0","experiment":"validation","task_version":"1.1","jspsych_version":"6.3.1","interactions":"[]"}]