[{"view_history":[{"page_index":0,"viewing_time":3551.300000011921}],"rt":3551.4000000059605,"trial_type":"instructions","trial_index":0,"time_elapsed":3567,"internal_node_id":"0.0-0.0","experiment":"validation","task_version":"1.1","jspsych_version":"6.3.1"},{"rt":13526,"responses":{"age":"60","gender-categorical":"Male","gender-free-response":"","ethnicity":"Not Hispanic or Latino","race":["White"],"education":"Bachelor degree"},"survey":"demographics","trial_type":"survey-demo","trial_index":1,"time_elapsed":17095,"internal_node_id":"0.0-1.0","experiment":"validation","task_version":"1.1","jspsych_version":"6.3.1"},{"responses":{"Q07":"0","Q10":"0","Q02":"0","Q06":"0","Q09":"1","Q11":"4","Q08":"0","Q01":"0","Q03":"0","Q04":"0","Q05":"0"},"rt":26937.59999999404,"item_order":[6,9,1,5,8,10,7,0,2,3,4],"radio_events":[5504.5999999940395,6640.4000000059605,8447.800000011921,10440.5,16904.69999998808,17784.69999998808,20216.09999999404,21751.69999998808,23120.09999999404,24408.40000000596,25255.59999999404],"key_events":[3144.300000011921,4328.699999988079,5504.5999999940395,6640.4000000059605,8447.800000011921,10440.5,16904.69999998808,17784.69999998808,20216.09999999404,21751.69999998808,23120.09999999404,24408.40000000596,25255.59999999404,26936.40000000596],"mouse_events":[],"straightlining":0.45454545454545453,"zigzagging":0.5,"honeypot":0,"survey":"neuroticism","trial_type":"survey-template","trial_index":2,"time_elapsed":44041,"internal_node_id":"0.0-2.0","experiment":"validation","task_version":"1.1","jspsych_version":"6.3.1","infrequency":0},{"responses":{"Q07":"3","Q04":"1","Q01":"4","Q06":"4","Q03":"1","Q05":"0","Q11":"0","Q02":"4","Q09":"2","Q08":"4","Q10":"1"},"rt":32029.29999998212,"item_order":[6,3,0,5,2,4,10,1,8,7,9],"radio_events":[6372.5,9403.899999976158,11540.399999976158,13780.09999999404,16724.69999998808,18835.899999976158,20731.79999998212,22396.09999999404,25901.79999998212,27940.5,30219.899999976158],"key_events":[6372.5,9403.899999976158,11540.399999976158,13780.09999999404,16724.69999998808,18835.899999976158,20731.79999998212,22396.09999999404,25901.79999998212,27940.5,30219.899999976158,32028.399999976158],"mouse_events":[],"straightlining":0.2727272727272727,"zigzagging":0.5,"honeypot":0,"survey":"openness","trial_type":"survey-template","trial_index":3,"time_elapsed":76073,"internal_node_id":"0.0-3.0","experiment":"validation","task_version":"1.1","jspsych_version":"6.3.1","infrequency":0},{"responses":{"Q02":"4","Q06":"4","Q04":"4","Q05":"4","Q01":"4","Q03":"4","Q07":"2"},"rt":31238.29999998212,"item_order":[1,5,3,4,0,2,6],"radio_events":[11412.59999999404,17564.899999976158,20236.5,23740.59999999404,25532.19999998808,27340.5,29253.19999998808],"key_events":[11412.59999999404,17564.899999976158,20236.5,23740.59999999404,25532.19999998808,27340.5,29253.19999998808,31237.29999998212],"mouse_events":[],"straightlining":0.5714285714285714,"zigzagging":0.5,"honeypot":0,"survey":"nfc6","trial_type":"survey-template","trial_index":4,"time_elapsed":107316,"internal_node_id":"0.0-4.0","experiment":"validation","task_version":"1.1","jspsych_version":"6.3.1","infrequency":0},{"value":[0,1.2987012987012987,1.5],"trial_type":"call-function","trial_index":5,"time_elapsed":107320,"internal_node_id":"0.0-5.0","experiment":"validation","task_version":"1.1","jspsych_version":"6.3.1","interactions":"[]"}]