[{"view_history":[{"page_index":0,"viewing_time":2880.199999988079}],"rt":2880.2999999821186,"trial_type":"instructions","trial_index":0,"time_elapsed":2883,"internal_node_id":"0.0-0.0","experiment":"validation","task_version":"2.0","jspsych_version":"6.3.1"},{"rt":12240.800000011921,"responses":{"age":"38","gender-categorical":"Male","gender-free-response":"","ethnicity":"Hispanic or Latino","race":["White"],"education":"Associate degree"},"survey":"demographics","trial_type":"survey-demo","trial_index":1,"time_elapsed":15126,"internal_node_id":"0.0-1.0","experiment":"validation","task_version":"2.0","jspsych_version":"6.3.1"},{"rt":37996.30000001192,"response":{"Q6":0,"Q8":0,"Q0":1,"Q2":2,"Q5":5,"Q3":3,"Q1":4,"Q4":4,"Q7":5},"question_order":[6,8,0,2,5,3,1,4,7],"survey":"sns","trial_type":"survey-likert","trial_index":2,"time_elapsed":53124,"internal_node_id":"0.0-2.0","experiment":"validation","task_version":"2.0","jspsych_version":"6.3.1","infrequency":0},{"responses":{"Q10":"3","Q04":"3","Q06":"3","Q05":"3","Q07":"3","Q02":"3","Q08":"3","Q01":"2","Q03":"2","Q11":"3","Q09":"3"},"rt":116661.30000001192,"item_order":[9,3,5,4,6,1,7,0,2,10,8],"radio_events":[27024.70000001788,30185.80000001192,33510.80000001192,35382.70000001788,39109.80000001192,43468.59999999404,67744.70000001788,104711.80000001192,105688.30000001192,106894.70000001788,115296.70000001788,116068.40000000596],"key_events":[],"mouse_events":[26309.80000001192,27024.70000001788,29682.80000001192,30185.80000001192,33510.80000001192,35382.70000001788,39109.80000001192,42898.70000001788,43468.59999999404,65676.09999999404,66484.59999999404,67744.70000001788,102192.59999999404,104711.80000001192,105688.30000001192,106894.70000001788,113778.80000001192,115296.70000001788,116068.40000000596,116659.70000001788],"straightlining":0.6363636363636364,"zigzagging":0.2,"honeypot":0,"survey":"nfc10","trial_type":"survey-template","trial_index":3,"time_elapsed":169788,"internal_node_id":"0.0-3.0","experiment":"validation","task_version":"2.0","jspsych_version":"6.3.1","infrequency":1},{"responses":{"Q04":"2","Q06":"2","Q08":"2","Q02":"2","Q03":"2","Q07":"3","Q01":"3","Q09":"4","Q05":"3"},"rt":40567.19999998808,"item_order":[3,5,7,1,2,6,0,8,4],"radio_events":[9302.09999999404,10928.40000000596,21553.69999998808,24821.29999998212,27723.40000000596,31721.29999998212,33191.29999998212,33535.29999998212,36542.69999998808,39522.29999998212],"key_events":[],"mouse_events":[3976.7999999821186,9302.09999999404,10140.299999982119,10928.40000000596,21056.29999998212,21553.69999998808,24821.29999998212,26786.29999998212,27723.40000000596,30207.29999998212,31721.29999998212,33191.29999998212,33535.29999998212,33941.40000000596,34445.19999998808,36542.69999998808,39522.29999998212,40566.29999998212],"straightlining":0.5555555555555556,"zigzagging":0.125,"honeypot":0,"survey":"pcf","trial_type":"survey-template","trial_index":4,"time_elapsed":210356,"internal_node_id":"0.0-4.0","experiment":"validation","task_version":"2.0","jspsych_version":"6.3.1","infrequency":0},{"value":1,"trial_type":"call-function","trial_index":5,"time_elapsed":210358,"internal_node_id":"0.0-5.0","experiment":"validation","task_version":"2.0","jspsych_version":"6.3.1","interactions":"[{\"event\":\"blur\",\"trial\":3,\"time\":121732},{\"event\":\"focus\",\"trial\":3,\"time\":148992}]"}]