[{"view_history":[{"page_index":0,"viewing_time":2474.5999999046326}],"rt":2475,"trial_type":"instructions","trial_index":0,"time_elapsed":2497,"internal_node_id":"0.0-0.0","experiment":"validation","task_version":"2.0","jspsych_version":"6.3.1"},{"rt":12810.5,"responses":{"age":"25","gender-categorical":"Female","gender-free-response":"","ethnicity":"Not Hispanic or Latino","race":["Black or African American"],"education":"Master degree or higher"},"survey":"demographics","trial_type":"survey-demo","trial_index":1,"time_elapsed":15311,"internal_node_id":"0.0-1.0","experiment":"validation","task_version":"2.0","jspsych_version":"6.3.1"},{"rt":43974.10000014305,"response":{"Q6":0,"Q2":0,"Q5":5,"Q8":0,"Q4":5,"Q0":0,"Q1":5,"Q7":5,"Q3":0},"question_order":[6,2,5,8,4,0,1,7,3],"survey":"sns","trial_type":"survey-likert","trial_index":2,"time_elapsed":59296,"internal_node_id":"0.0-2.0","experiment":"validation","task_version":"2.0","jspsych_version":"6.3.1","infrequency":0},{"responses":{"Q06":"4","Q05":"4","Q01":"4","Q08":"0","Q02":"4","Q07":"4","Q03":"4","Q09":"4","Q04":"4"},"rt":67671.59999990463,"item_order":[5,4,0,7,1,6,2,8,3],"radio_events":[21028.099999904633,23237.099999904633,31746.199999809265,33712.59999990463,36858.89999985695,41577,49471,54247.59999990463,62734.5,65608.5],"key_events":[],"mouse_events":[21028.099999904633,23237.099999904633,30803.599999904633,31746.199999809265,32222.699999809265,33712.59999990463,36858.89999985695,41577,49471,52758,53840.799999952316,54247.59999990463,62734.5,65608.5,67669.39999985695],"straightlining":0.7777777777777778,"zigzagging":0.5,"honeypot":0,"survey":"pcf","trial_type":"survey-template","trial_index":3,"time_elapsed":126978,"internal_node_id":"0.0-3.0","experiment":"validation","task_version":"2.0","jspsych_version":"6.3.1","infrequency":0},{"responses":{"Q03":"4","Q08":"4","Q07":"4","Q09":"4","Q06":"4","Q11":"0","Q01":"4","Q02":"4","Q05":"4","Q10":"0","Q04":"4"},"rt":344129.5,"item_order":[2,7,6,8,5,10,0,1,4,9,3],"radio_events":[4232.299999952316,8109.599999904633,30644.599999904633,54996.39999985695,293033.2999999523,302653.09999990463,308185.19999980927,323976.7999999523,330912.09999990463,339523.7999999523,342451],"key_events":[],"mouse_events":[4232.299999952316,8109.599999904633,30644.599999904633,32025.699999809265,54996.39999985695,292434.89999985695,293033.2999999523,302653.09999990463,308185.19999980927,323976.7999999523,330912.09999990463,339523.7999999523,342451,344127.59999990463],"straightlining":0.5454545454545454,"zigzagging":0.4,"honeypot":0,"survey":"nfc10","trial_type":"survey-template","trial_index":4,"time_elapsed":471117,"internal_node_id":"0.0-4.0","experiment":"validation","task_version":"2.0","jspsych_version":"6.3.1","infrequency":0},{"value":0,"trial_type":"call-function","trial_index":5,"time_elapsed":471126,"internal_node_id":"0.0-5.0","experiment":"validation","task_version":"2.0","jspsych_version":"6.3.1","interactions":"[{\"event\":\"blur\",\"trial\":3,\"time\":103701},{\"event\":\"focus\",\"trial\":3,\"time\":106649},{\"event\":\"blur\",\"trial\":4,\"time\":209325},{\"event\":\"focus\",\"trial\":4,\"time\":406947},{\"event\":\"blur\",\"trial\":4,\"time\":406947},{\"event\":\"focus\",\"trial\":4,\"time\":408584},{\"event\":\"blur\",\"trial\":4,\"time\":430520},{\"event\":\"focus\",\"trial\":4,\"time\":432552}]"}]