[{"view_history":[{"page_index":0,"viewing_time":2115.400000002235}],"rt":2115.800000000745,"trial_type":"instructions","trial_index":0,"time_elapsed":2129,"internal_node_id":"0.0-0.0","experiment":"validation","task_version":"1.1","jspsych_version":"6.3.1"},{"rt":13382,"responses":{"age":"34","gender-categorical":"Male","gender-free-response":"","ethnicity":"Not Hispanic or Latino","race":["White"],"education":"Master degree or higher"},"survey":"demographics","trial_type":"survey-demo","trial_index":1,"time_elapsed":15516,"internal_node_id":"0.0-1.0","experiment":"validation","task_version":"1.1","jspsych_version":"6.3.1"},{"responses":{"Q07":"2","Q04":"0","Q11":"0","Q05":"0","Q06":"4","Q10":"2","Q03":"2","Q08":"4","Q02":"4","Q09":"4","Q01":"4"},"rt":39807.800000000745,"item_order":[6,3,10,4,5,9,2,7,1,8,0],"radio_events":[4526.89999999851,13881,16804.39999999851,20438.10000000149,23220.199999999255,25771.60000000149,28031.39999999851,32053.800000000745,33841.300000000745,35732.300000000745,38892.89999999851],"key_events":[],"mouse_events":[4526.89999999851,6381.699999999255,8720.699999999255,12933.199999999255,13881,16804.39999999851,20438.10000000149,23220.199999999255,25771.60000000149,28031.39999999851,30721.300000000745,32053.800000000745,33841.300000000745,35732.300000000745,38892.89999999851,39805.39999999851],"straightlining":0.36363636363636365,"zigzagging":0.6,"honeypot":0,"survey":"openness","trial_type":"survey-template","trial_index":2,"time_elapsed":55332,"internal_node_id":"0.0-2.0","experiment":"validation","task_version":"1.1","jspsych_version":"6.3.1","infrequency":0},{"responses":{"Q02":"4","Q07":"2","Q04":"4","Q05":"4","Q06":"4","Q03":"4","Q01":"2"},"rt":27402.699999999255,"item_order":[1,6,3,4,5,2,0],"radio_events":[4192.199999999255,6078.79999999702,11911.89999999851,14793.599999997765,17715.5,22058.5,26194.29999999702],"key_events":[],"mouse_events":[4192.199999999255,6078.79999999702,11911.89999999851,14793.599999997765,17715.5,22058.5,26194.29999999702,27401.199999999255],"straightlining":0.42857142857142855,"zigzagging":0.3333333333333333,"honeypot":0,"survey":"nfc6","trial_type":"survey-template","trial_index":3,"time_elapsed":82740,"internal_node_id":"0.0-3.0","experiment":"validation","task_version":"1.1","jspsych_version":"6.3.1","infrequency":0},{"responses":{"Q09":"4","Q04":"1","Q10":"1","Q01":"2","Q05":"1","Q11":"4","Q02":"1","Q07":"2","Q08":"1","Q03":"2","Q06":"3"},"rt":41167.800000000745,"item_order":[8,3,9,0,4,10,1,6,7,2,5],"radio_events":[4662.20000000298,7133.5,9856.900000002235,12501.5,15830.60000000149,17257,19080.60000000149,24013.10000000149,24874.10000000149,28954,33817.20000000298,39121.900000002235],"key_events":[],"mouse_events":[4662.20000000298,7133.5,9856.900000002235,12501.5,14612,15830.60000000149,17257,19080.60000000149,22850.70000000298,24013.10000000149,24874.10000000149,28954,30951.400000002235,32848,33817.20000000298,35213.60000000149,39121.900000002235,41164.5],"straightlining":0.36363636363636365,"zigzagging":0.7,"honeypot":0,"survey":"neuroticism","trial_type":"survey-template","trial_index":4,"time_elapsed":123914,"internal_node_id":"0.0-4.0","experiment":"validation","task_version":"1.1","jspsych_version":"6.3.1","infrequency":0},{"value":[0,1.155844155844156,1.6333333333333333],"trial_type":"call-function","trial_index":5,"time_elapsed":123918,"internal_node_id":"0.0-5.0","experiment":"validation","task_version":"1.1","jspsych_version":"6.3.1","interactions":"[]"}]