[{"success":true,"timeout":false,"failed_images":[],"failed_audio":[],"failed_video":[],"trial_type":"preload","trial_index":0,"time_elapsed":3123,"internal_node_id":"0.0-0.0","experiment":"validation","task_version":"2.0","jspsych_version":"6.3.1"},{"success":true,"trial_type":"fullscreen","trial_index":1,"time_elapsed":6014,"internal_node_id":"0.0-1.0","experiment":"validation","task_version":"2.0","jspsych_version":"6.3.1"},{"view_history":[{"page_index":0,"viewing_time":2438.60000000149},{"page_index":1,"viewing_time":5672.29999999702}],"rt":8111.60000000149,"trial_type":"instructions","trial_index":2,"time_elapsed":14126,"internal_node_id":"0.0-2.0","experiment":"validation","task_version":"2.0","jspsych_version":"6.3.1"},{"min_width":700,"min_height":600,"inner_width":1920,"inner_height":1200,"trial_type":"screen-check","trial_index":3,"time_elapsed":14127,"internal_node_id":"0.0-3.0-0.0-0.0","experiment":"validation","task_version":"2.0","jspsych_version":"6.3.1"},{"rt":null,"stimulus":"<div style=\"font-size:24px;\">Loading puzzle:<br>1 / 9</div>","response":null,"trial_type":"html-keyboard-response","trial_index":4,"time_elapsed":15327,"internal_node_id":"0.0-3.0-0.0-1.0","experiment":"validation","task_version":"2.0","jspsych_version":"6.3.1"},{"stimulus":"../static/img/rpm/a11.png","choice_order":[5,3,4,0,1,2],"correct":4,"choice":0,"accuracy":0,"rt":10084.5,"screen_resolution":[1920,1200],"minimum_resolution":1,"all_loaded":true,"test_form":"a","trial_type":"rpm","trial_index":5,"time_elapsed":25413,"internal_node_id":"0.0-3.0-0.0-2.0","experiment":"validation","task_version":"2.0","jspsych_version":"6.3.1"},{"min_width":700,"min_height":600,"inner_width":1920,"inner_height":1200,"trial_type":"screen-check","trial_index":6,"time_elapsed":25414,"internal_node_id":"0.0-3.0-0.0-0.1","experiment":"validation","task_version":"2.0","jspsych_version":"6.3.1"},{"rt":null,"stimulus":"<div style=\"font-size:24px;\">Loading puzzle:<br>2 / 9</div>","response":null,"trial_type":"html-keyboard-response","trial_index":7,"time_elapsed":26615,"internal_node_id":"0.0-3.0-0.0-1.1","experiment":"validation","task_version":"2.0","jspsych_version":"6.3.1"},{"stimulus":"../static/img/rpm/a24.png","choice_order":[2,1,0,3,5,4],"correct":4,"choice":5,"accuracy":0,"rt":13085.19999999553,"screen_resolution":[1920,1200],"minimum_resolution":1,"all_loaded":true,"test_form":"a","trial_type":"rpm","trial_index":8,"time_elapsed":39701,"internal_node_id":"0.0-3.0-0.0-2.1","experiment":"validation","task_version":"2.0","jspsych_version":"6.3.1"},{"min_width":700,"min_height":600,"inner_width":1920,"inner_height":1200,"trial_type":"screen-check","trial_index":9,"time_elapsed":39702,"internal_node_id":"0.0-3.0-0.0-0.2","experiment":"validation","task_version":"2.0","jspsych_version":"6.3.1"},{"rt":null,"stimulus":"<div style=\"font-size:24px;\">Loading puzzle:<br>3 / 9</div>","response":null,"trial_type":"html-keyboard-response","trial_index":10,"time_elapsed":40903,"internal_node_id":"0.0-3.0-0.0-1.2","experiment":"validation","task_version":"2.0","jspsych_version":"6.3.1"},{"stimulus":"../static/img/rpm/a28.png","choice_order":[5,3,4,6,1,2,7,0],"correct":7,"choice":7,"accuracy":1,"rt":15399.60000000149,"screen_resolution":[1920,1200],"minimum_resolution":1,"all_loaded":true,"test_form":"a","trial_type":"rpm","trial_index":11,"time_elapsed":56303,"internal_node_id":"0.0-3.0-0.0-2.2","experiment":"validation","task_version":"2.0","jspsych_version":"6.3.1"},{"min_width":700,"min_height":600,"inner_width":1920,"inner_height":1200,"trial_type":"screen-check","trial_index":12,"time_elapsed":56304,"internal_node_id":"0.0-3.0-0.0-0.3","experiment":"validation","task_version":"2.0","jspsych_version":"6.3.1"},{"rt":null,"stimulus":"<div style=\"font-size:24px;\">Loading puzzle:<br>4 / 9</div>","response":null,"trial_type":"html-keyboard-response","trial_index":13,"time_elapsed":57504,"internal_node_id":"0.0-3.0-0.0-1.3","experiment":"validation","task_version":"2.0","jspsych_version":"6.3.1"},{"stimulus":"../static/img/rpm/a36.png","choice_order":[1,2,5,6,7,0,3,4],"correct":1,"choice":3,"accuracy":0,"rt":15043.5,"screen_resolution":[1920,1200],"minimum_resolution":1,"all_loaded":true,"test_form":"a","trial_type":"rpm","trial_index":14,"time_elapsed":72549,"internal_node_id":"0.0-3.0-0.0-2.3","experiment":"validation","task_version":"2.0","jspsych_version":"6.3.1"},{"min_width":700,"min_height":600,"inner_width":1920,"inner_height":1200,"trial_type":"screen-check","trial_index":15,"time_elapsed":72550,"internal_node_id":"0.0-3.0-0.0-0.4","experiment":"validation","task_version":"2.0","jspsych_version":"6.3.1"},{"rt":null,"stimulus":"<div style=\"font-size:24px;\">Loading puzzle:<br>5 / 9</div>","response":null,"trial_type":"html-keyboard-response","trial_index":16,"time_elapsed":73750,"internal_node_id":"0.0-3.0-0.0-1.4","experiment":"validation","task_version":"2.0","jspsych_version":"6.3.1"},{"stimulus":"../static/img/rpm/a43.png","choice_order":[1,3,7,2,6,0,5,4],"correct":4,"choice":0,"accuracy":0,"rt":12117.80000000447,"screen_resolution":[1920,1200],"minimum_resolution":1,"all_loaded":true,"test_form":"a","trial_type":"rpm","trial_index":17,"time_elapsed":85869,"internal_node_id":"0.0-3.0-0.0-2.4","experiment":"validation","task_version":"2.0","jspsych_version":"6.3.1"},{"min_width":700,"min_height":600,"inner_width":1920,"inner_height":1200,"trial_type":"screen-check","trial_index":18,"time_elapsed":85870,"internal_node_id":"0.0-3.0-0.0-0.5","experiment":"validation","task_version":"2.0","jspsych_version":"6.3.1"},{"rt":null,"stimulus":"<div style=\"font-size:24px;\">Loading puzzle:<br>6 / 9</div>","response":null,"trial_type":"html-keyboard-response","trial_index":19,"time_elapsed":87070,"internal_node_id":"0.0-3.0-0.0-1.5","experiment":"validation","task_version":"2.0","jspsych_version":"6.3.1"},{"stimulus":"../static/img/rpm/a48.png","choice_order":[2,6,7,1,5,3,0,4],"correct":5,"choice":1,"accuracy":0,"rt":11569.60000000149,"screen_resolution":[1920,1200],"minimum_resolution":1,"all_loaded":true,"test_form":"a","trial_type":"rpm","trial_index":20,"time_elapsed":98641,"internal_node_id":"0.0-3.0-0.0-2.5","experiment":"validation","task_version":"2.0","jspsych_version":"6.3.1"},{"min_width":700,"min_height":600,"inner_width":1920,"inner_height":1200,"trial_type":"screen-check","trial_index":21,"time_elapsed":98642,"internal_node_id":"0.0-3.0-0.0-0.6","experiment":"validation","task_version":"2.0","jspsych_version":"6.3.1"},{"rt":null,"stimulus":"<div style=\"font-size:24px;\">Loading puzzle:<br>7 / 9</div>","response":null,"trial_type":"html-keyboard-response","trial_index":22,"time_elapsed":99842,"internal_node_id":"0.0-3.0-0.0-1.6","experiment":"validation","task_version":"2.0","jspsych_version":"6.3.1"},{"stimulus":"../static/img/rpm/a49.png","choice_order":[3,6,1,7,5,2,4,0],"correct":6,"choice":2,"accuracy":0,"rt":14262.89999999851,"screen_resolution":[1920,1200],"minimum_resolution":1,"all_loaded":true,"test_form":"a","trial_type":"rpm","trial_index":23,"time_elapsed":114107,"internal_node_id":"0.0-3.0-0.0-2.6","experiment":"validation","task_version":"2.0","jspsych_version":"6.3.1"},{"min_width":700,"min_height":600,"inner_width":1920,"inner_height":1200,"trial_type":"screen-check","trial_index":24,"time_elapsed":114107,"internal_node_id":"0.0-3.0-0.0-0.7","experiment":"validation","task_version":"2.0","jspsych_version":"6.3.1"},{"rt":null,"stimulus":"<div style=\"font-size:24px;\">Loading puzzle:<br>8 / 9</div>","response":null,"trial_type":"html-keyboard-response","trial_index":25,"time_elapsed":115308,"internal_node_id":"0.0-3.0-0.0-1.7","experiment":"validation","task_version":"2.0","jspsych_version":"6.3.1"},{"stimulus":"../static/img/rpm/a53.png","choice_order":[3,2,7,1,6,0,5,4],"correct":0,"choice":3,"accuracy":0,"rt":15961.70000000298,"screen_resolution":[1920,1200],"minimum_resolution":1,"all_loaded":true,"test_form":"a","trial_type":"rpm","trial_index":26,"time_elapsed":131271,"internal_node_id":"0.0-3.0-0.0-2.7","experiment":"validation","task_version":"2.0","jspsych_version":"6.3.1"},{"min_width":700,"min_height":600,"inner_width":1920,"inner_height":1200,"trial_type":"screen-check","trial_index":27,"time_elapsed":131271,"internal_node_id":"0.0-3.0-0.0-0.8","experiment":"validation","task_version":"2.0","jspsych_version":"6.3.1"},{"rt":null,"stimulus":"<div style=\"font-size:24px;\">Loading puzzle:<br>9 / 9</div>","response":null,"trial_type":"html-keyboard-response","trial_index":28,"time_elapsed":132472,"internal_node_id":"0.0-3.0-0.0-1.8","experiment":"validation","task_version":"2.0","jspsych_version":"6.3.1"},{"stimulus":"../static/img/rpm/a55.png","choice_order":[6,3,1,7,2,0,5,4],"correct":1,"choice":6,"accuracy":0,"rt":9866.30000000447,"screen_resolution":[1920,1200],"minimum_resolution":1,"all_loaded":true,"test_form":"a","trial_type":"rpm","trial_index":29,"time_elapsed":142339,"internal_node_id":"0.0-3.0-0.0-2.8","experiment":"validation","task_version":"2.0","jspsych_version":"6.3.1"},{"value":{"rpm_raw":1,"rpm_err":8,"rpm_adj":19.475293517239052,"rpm_rt":117391.10000000894},"trial_type":"call-function","trial_index":30,"time_elapsed":142340,"internal_node_id":"0.0-3.0-1.0","experiment":"validation","task_version":"2.0","jspsych_version":"6.3.1"},{"view_history":[{"page_index":0,"viewing_time":1450.2999999970198}],"rt":1450.5,"trial_type":"instructions","trial_index":31,"time_elapsed":143791,"internal_node_id":"0.0-4.0","experiment":"validation","task_version":"2.0","jspsych_version":"6.3.1","interactions":"[{\"event\":\"fullscreenenter\",\"trial\":1,\"time\":5020}]"}]