[{"view_history":[{"page_index":0,"viewing_time":1593.9000000059605}],"rt":1594.3000000044703,"trial_type":"instructions","trial_index":0,"time_elapsed":1623,"internal_node_id":"0.0-0.0","experiment":"validation","task_version":"2.0","jspsych_version":"6.3.1"},{"rt":20659.70000000298,"responses":{"age":"32","gender-categorical":"Male","gender-free-response":"","ethnicity":"Not Hispanic or Latino","race":["White"],"education":"Bachelor degree"},"survey":"demographics","trial_type":"survey-demo","trial_index":1,"time_elapsed":22285,"internal_node_id":"0.0-1.0","experiment":"validation","task_version":"2.0","jspsych_version":"6.3.1"},{"responses":{"Q07":"1","Q01":"1","Q09":"4","Q04":"0","Q08":"2","Q03":"3","Q02":"2","Q05":"0","Q06":"1"},"rt":46905.89999999851,"item_order":[6,0,8,3,7,2,1,4,5],"radio_events":[4191,6189.20000000298,9065.10000000149,18653.10000000149,22874.89999999851,34227,38032.60000000149,39943,46432.79999999702],"key_events":[],"mouse_events":[3757,4191,6189.20000000298,9065.10000000149,13642.89999999851,13861,17138.89999999851,18032.89999999851,18653.10000000149,22874.89999999851,29179,29711,32167,33159,33878.89999999851,34227,37561.10000000149,38032.60000000149,39943,45836.60000000149,46432.79999999702,46905.20000000298],"straightlining":0.3333333333333333,"zigzagging":0.5,"honeypot":0,"survey":"pcf","trial_type":"survey-template","trial_index":2,"time_elapsed":69193,"internal_node_id":"0.0-2.0","experiment":"validation","task_version":"2.0","jspsych_version":"6.3.1","infrequency":0},{"responses":{"Q03":"3","Q08":"3","Q05":"1","Q07":"4","Q10":"3","Q04":"1","Q02":"3","Q06":"1","Q01":"2","Q09":"1","Q11":"0"},"rt":117365.10000000149,"item_order":[2,7,4,6,9,3,1,5,0,8,10],"radio_events":[2972.89999999851,64454.70000000298,72270.79999999702,77776.89999999851,82282.70000000298,88362.60000000149,101226.39999999851,102500.70000000298,106068.79999999702,108664.29999999702,115786.39999999851],"key_events":[],"mouse_events":[2972.89999999851,8944.79999999702,9097,9250.70000000298,9628.60000000149,22810.89999999851,23053,26033,26226.79999999702,34008.79999999702,34218.79999999702,34718.89999999851,34984.70000000298,35176.89999999851,35792.79999999702,36160.60000000149,36324.5,36502.70000000298,36922.79999999702,37667.10000000149,38528.70000000298,38864.5,39362.79999999702,39558.70000000298,39734.89999999851,40068.70000000298,40770.5,41116.5,41502.60000000149,41680.5,41854.5,42204.39999999851,42378.60000000149,42614.60000000149,42986.70000000298,43816.5,44146.60000000149,44894.60000000149,45064.60000000149,45242.60000000149,45564.60000000149,53174.5,58524.60000000149,58902.60000000149,59362.5,59540.60000000149,59748.60000000149,60378.79999999702,61038.60000000149,61224.70000000298,61408.60000000149,61674.39999999851,62028.60000000149,63794.79999999702,64454.70000000298,69626.5,69832.70000000298,70928.70000000298,71536.70000000298,71850.5,72270.79999999702,77431,77776.89999999851,80500.70000000298,80702.60000000149,80878.70000000298,81064.60000000149,81410.29999999702,82282.70000000298,87650.89999999851,88362.60000000149,89712.39999999851,89890.60000000149,90068.29999999702,90446.5,91074.5,92018.39999999851,92210.29999999702,93246.20000000298,93750.60000000149,93932.39999999851,94118.60000000149,99648.60000000149,100446.70000000298,101226.39999999851,102500.70000000298,106068.79999999702,108664.29999999702,115786.39999999851,117364.29999999702],"straightlining":0.45454545454545453,"zigzagging":0.5,"honeypot":0,"survey":"nfc10","trial_type":"survey-template","trial_index":3,"time_elapsed":186560,"internal_node_id":"0.0-3.0","experiment":"validation","task_version":"2.0","jspsych_version":"6.3.1","infrequency":0},{"rt":54573.5,"response":{"Q1":4,"Q8":0,"Q4":5,"Q3":4,"Q6":0,"Q2":4,"Q5":5,"Q7":5,"Q0":5},"question_order":[1,8,4,3,6,2,5,7,0],"survey":"sns","trial_type":"survey-likert","trial_index":4,"time_elapsed":241137,"internal_node_id":"0.0-4.0","experiment":"validation","task_version":"2.0","jspsych_version":"6.3.1","infrequency":0},{"value":0,"trial_type":"call-function","trial_index":5,"time_elapsed":241138,"internal_node_id":"0.0-5.0","experiment":"validation","task_version":"2.0","jspsych_version":"6.3.1","interactions":"[{\"event\":\"blur\",\"trial\":1,\"time\":2709},{\"event\":\"focus\",\"trial\":1,\"time\":5131},{\"event\":\"blur\",\"trial\":1,\"time\":6881},{\"event\":\"focus\",\"trial\":1,\"time\":8299},{\"event\":\"blur\",\"trial\":3,\"time\":83564},{\"event\":\"focus\",\"trial\":3,\"time\":84324},{\"event\":\"blur\",\"trial\":3,\"time\":85108},{\"event\":\"focus\",\"trial\":3,\"time\":87350},{\"event\":\"blur\",\"trial\":3,\"time\":115608},{\"event\":\"focus\",\"trial\":3,\"time\":116452}]"}]