[{"view_history":[{"page_index":0,"viewing_time":2283.5}],"rt":2283.899999999907,"trial_type":"instructions","trial_index":0,"time_elapsed":2296,"internal_node_id":"0.0-0.0","experiment":"validation","task_version":"1.1","jspsych_version":"6.3.1"},{"rt":12289.100000000093,"responses":{"age":"29","gender-categorical":"Female","gender-free-response":"","ethnicity":"Not Hispanic or Latino","race":["Asian"],"education":"Some college"},"survey":"demographics","trial_type":"survey-demo","trial_index":1,"time_elapsed":14587,"internal_node_id":"0.0-1.0","experiment":"validation","task_version":"1.1","jspsych_version":"6.3.1"},{"responses":{"Q05":"2","Q11":"4","Q06":"1","Q09":"1","Q01":"2","Q07":"1","Q08":"1","Q04":"0","Q03":"1","Q02":"2","Q10":"2"},"rt":31258.200000000186,"item_order":[4,10,5,8,0,6,7,3,2,1,9],"radio_events":[3472,8116.700000000186,8940.799999999814,11613.799999999814,16286.899999999907,20315.700000000186,22824,25440.600000000093,27409.799999999814,29417.799999999814,30373.5],"key_events":[],"mouse_events":[3472,5401.100000000093,8116.700000000186,8940.799999999814,11613.799999999814,16286.899999999907,20315.700000000186,22824,25440.600000000093,27409.799999999814,29417.799999999814,30373.5,31255.799999999814],"straightlining":0.36363636363636365,"zigzagging":0.5,"honeypot":0,"survey":"neuroticism","trial_type":"survey-template","trial_index":2,"time_elapsed":45849,"internal_node_id":"0.0-2.0","experiment":"validation","task_version":"1.1","jspsych_version":"6.3.1","infrequency":0},{"responses":{"Q04":"2","Q03":"2","Q05":"0","Q11":"0","Q02":"3","Q07":"4","Q01":"4","Q09":"4","Q06":"3","Q08":"3","Q10":"4"},"rt":28473,"item_order":[3,2,4,10,1,6,0,8,5,7,9],"radio_events":[5543.300000000279,7746.9000000003725,9328,11490.100000000093,13199.100000000093,15573.100000000093,17460.900000000373,19878,22003.900000000373,24515.900000000373,27355.900000000373],"key_events":[],"mouse_events":[5543.300000000279,7746.9000000003725,9328,11490.100000000093,13199.100000000093,15573.100000000093,17460.900000000373,19878,22003.900000000373,24515.900000000373,27355.900000000373,28471],"straightlining":0.36363636363636365,"zigzagging":0.5,"honeypot":0,"survey":"openness","trial_type":"survey-template","trial_index":3,"time_elapsed":74325,"internal_node_id":"0.0-3.0","experiment":"validation","task_version":"1.1","jspsych_version":"6.3.1","infrequency":0},{"responses":{"Q02":"2","Q01":"2","Q03":"3","Q06":"2","Q04":"2","Q05":"3","Q07":"2"},"rt":33869.700000000186,"item_order":[1,0,2,5,3,4,6],"radio_events":[6671,9003.100000000093,11846,19913.700000000186,24965,30657,32642.900000000373],"key_events":[],"mouse_events":[6671,9003.100000000093,11846,19913.700000000186,24965,30165.700000000186,30657,32642.900000000373,33868.40000000037],"straightlining":0.7142857142857143,"zigzagging":0.6666666666666666,"honeypot":0,"survey":"nfc6","trial_type":"survey-template","trial_index":4,"time_elapsed":108196,"internal_node_id":"0.0-4.0","experiment":"validation","task_version":"1.1","jspsych_version":"6.3.1","infrequency":0},{"value":[0,1.4415584415584415,1.6666666666666665],"trial_type":"call-function","trial_index":5,"time_elapsed":108198,"internal_node_id":"0.0-5.0","experiment":"validation","task_version":"1.1","jspsych_version":"6.3.1","interactions":"[]"}]