[{"view_history":[{"page_index":0,"viewing_time":96111.60000000149}],"rt":96112.39999999851,"trial_type":"instructions","trial_index":0,"time_elapsed":96188,"internal_node_id":"0.0-0.0","experiment":"validation","task_version":"1.1","jspsych_version":"6.3.1"},{"rt":25281.80000000447,"responses":{"age":"29","gender-categorical":"Male","gender-free-response":"","ethnicity":"Not Hispanic or Latino","race":["White"],"education":"Master degree or higher"},"survey":"demographics","trial_type":"survey-demo","trial_index":1,"time_elapsed":121478,"internal_node_id":"0.0-1.0","experiment":"validation","task_version":"1.1","jspsych_version":"6.3.1"},{"responses":{"Q07":"4","Q04":"2","Q03":"3","Q10":"1","Q06":"1","Q05":"1","Q08":"1","Q02":"2","Q01":"3","Q09":"1","Q11":"0"},"rt":234842.29999999702,"item_order":[6,3,2,9,5,4,7,1,0,8,10],"radio_events":[134396.8999999985,141021.5,146900,151456.70000000298,159421.3999999985,200206.5,205704.70000000298,212073.79999999702,217474.8999999985,222173.8999999985,230966.5,232297],"key_events":[],"mouse_events":[124951.5,134396.8999999985,140154.1000000015,141021.5,146900,151456.70000000298,158060.8999999985,159421.3999999985,200206.5,205704.70000000298,212073.79999999702,217474.8999999985,222173.8999999985,230966.5,232297,234837.6000000015],"straightlining":0.6363636363636364,"zigzagging":0.3,"honeypot":0,"survey":"openness","trial_type":"survey-template","trial_index":2,"time_elapsed":356328,"internal_node_id":"0.0-2.0","experiment":"validation","task_version":"1.1","jspsych_version":"6.3.1","infrequency":0},{"responses":{"Q03":"1","Q01":"1","Q04":"3","Q10":"1","Q05":"1","Q11":"4","Q06":"1","Q08":"1","Q02":"0","Q09":"2","Q07":"0"},"rt":102967.70000000298,"item_order":[2,0,3,9,4,10,5,7,1,8,6],"radio_events":[5625.30000000447,6814.20000000298,12785.10000000149,60140.80000000447,65566.80000000447,69740.60000000149,74470.10000000149,78542.80000000447,79774.80000000447,81809.39999999851,86477.89999999851,93647.39999999851,100099.60000000149],"key_events":[],"mouse_events":[5625.30000000447,6814.20000000298,7752.5,11825.39999999851,12785.10000000149,60140.80000000447,64618.80000000447,65566.80000000447,69740.60000000149,74470.10000000149,78542.80000000447,79774.80000000447,81809.39999999851,86477.89999999851,93647.39999999851,100099.60000000149,102963.30000000447],"straightlining":0.36363636363636365,"zigzagging":0.1,"honeypot":0,"survey":"neuroticism","trial_type":"survey-template","trial_index":3,"time_elapsed":459309,"internal_node_id":"0.0-3.0","experiment":"validation","task_version":"1.1","jspsych_version":"6.3.1","infrequency":0},{"responses":{"Q02":"3","Q04":"3","Q03":"3","Q06":"3","Q05":"1","Q01":"1","Q07":"2"},"rt":207527.79999999702,"item_order":[1,3,2,5,4,0,6],"radio_events":[153052.8999999985,161245.1000000015,165096.5,173133.19999999553,182126.79999999702,190727.1000000015,192803.79999999702,201092.69999999553],"key_events":[],"mouse_events":[153052.8999999985,161245.1000000015,163902,165096.5,173133.19999999553,180283,181291.3999999985,182126.79999999702,189830.5,190727.1000000015,192803.79999999702,201092.69999999553,207524.8999999985],"straightlining":0.5714285714285714,"zigzagging":0.16666666666666666,"honeypot":0,"survey":"nfc6","trial_type":"survey-template","trial_index":4,"time_elapsed":666842,"internal_node_id":"0.0-4.0","experiment":"validation","task_version":"1.1","jspsych_version":"6.3.1","infrequency":0},{"value":[0,1.5714285714285714,0.5666666666666667],"trial_type":"call-function","trial_index":5,"time_elapsed":666847,"internal_node_id":"0.0-5.0","experiment":"validation","task_version":"1.1","jspsych_version":"6.3.1","interactions":"[{\"event\":\"focus\",\"trial\":0,\"time\":96068},{\"event\":\"blur\",\"trial\":2,\"time\":126587},{\"event\":\"focus\",\"trial\":2,\"time\":244659},{\"event\":\"blur\",\"trial\":2,\"time\":285458},{\"event\":\"focus\",\"trial\":2,\"time\":316897},{\"event\":\"blur\",\"trial\":3,\"time\":374042},{\"event\":\"focus\",\"trial\":3,\"time\":410682},{\"event\":\"blur\",\"trial\":4,\"time\":463228},{\"event\":\"focus\",\"trial\":4,\"time\":602666}]"}]