[{"view_history":[{"page_index":0,"viewing_time":2784}],"rt":2784.7000000476837,"trial_type":"instructions","trial_index":0,"time_elapsed":2824,"internal_node_id":"0.0-0.0","experiment":"validation","task_version":"2.0","jspsych_version":"6.3.1"},{"rt":45449.799999952316,"responses":{"age":"40","gender-categorical":"Female","gender-free-response":"","ethnicity":"Not Hispanic or Latino","race":["Black or African American"],"education":"Some college"},"survey":"demographics","trial_type":"survey-demo","trial_index":1,"time_elapsed":48345,"internal_node_id":"0.0-1.0","experiment":"validation","task_version":"2.0","jspsych_version":"6.3.1"},{"responses":{"Q01":"2","Q02":"1","Q06":"2","Q04":"1","Q08":"4","Q05":"1","Q07":"2","Q09":"4","Q03":"2"},"rt":123875.79999995232,"item_order":[0,1,5,3,7,4,6,8,2],"radio_events":[53874.60000002384,59194.299999952316,72355.10000002384,74786.79999995232,84086.60000002384,93066.60000002384,97314.79999995232,111658.29999995232,112266.29999995232,122058],"key_events":[],"mouse_events":[52755.199999928474,53362.60000002384,53874.60000002384,59194.299999952316,71302.69999992847,72355.10000002384,74786.79999995232,83362.29999995232,84086.60000002384,93066.60000002384,96442.29999995232,97314.79999995232,108090.79999995232,110586.29999995232,111658.29999995232,112266.29999995232,121354.29999995232,122058,123874.10000002384],"straightlining":0.4444444444444444,"zigzagging":0.5,"honeypot":0,"survey":"pcf","trial_type":"survey-template","trial_index":2,"time_elapsed":172234,"internal_node_id":"0.0-2.0","experiment":"validation","task_version":"2.0","jspsych_version":"6.3.1","infrequency":0},{"rt":93438,"response":{"Q0":2,"Q8":0,"Q2":4,"Q3":5,"Q6":0,"Q7":4,"Q1":3,"Q4":5,"Q5":4},"question_order":[0,8,2,3,6,7,1,4,5],"survey":"sns","trial_type":"survey-likert","trial_index":3,"time_elapsed":265679,"internal_node_id":"0.0-3.0","experiment":"validation","task_version":"2.0","jspsych_version":"6.3.1","infrequency":0},{"responses":{"Q06":"3","Q03":"4","Q02":"3","Q09":"4","Q08":"4","Q07":"2","Q05":"4","Q04":"2","Q10":"3","Q01":"2","Q11":"0"},"rt":98647.39999997616,"item_order":[5,2,1,8,7,6,4,3,9,0,10],"radio_events":[18272.300000071526,20144.800000071526,34344.5,38456.300000071526,47192.5,52839.89999997616,65568.30000007153,69672.30000007153,73672.20000004768,83863.89999997616,87451.70000004768],"key_events":[],"mouse_events":[17528.700000047684,18272.300000071526,20144.800000071526,34344.5,38456.300000071526,47192.5,52224.200000047684,52839.89999997616,64200.39999997616,64731.89999997616,65568.30000007153,69672.30000007153,73672.20000004768,83863.89999997616,87451.70000004768,97043.20000004768,98643.80000007153],"straightlining":0.2727272727272727,"zigzagging":0.3,"honeypot":0,"survey":"nfc10","trial_type":"survey-template","trial_index":4,"time_elapsed":364331,"internal_node_id":"0.0-4.0","experiment":"validation","task_version":"2.0","jspsych_version":"6.3.1","infrequency":0},{"value":0,"trial_type":"call-function","trial_index":5,"time_elapsed":364335,"internal_node_id":"0.0-5.0","experiment":"validation","task_version":"2.0","jspsych_version":"6.3.1","interactions":"[{\"event\":\"blur\",\"trial\":2,\"time\":77624},{\"event\":\"focus\",\"trial\":2,\"time\":79386},{\"event\":\"blur\",\"trial\":4,\"time\":268375},{\"event\":\"focus\",\"trial\":4,\"time\":270510}]"}]