[{"view_history":[{"page_index":0,"viewing_time":3292.5}],"rt":3293,"trial_type":"instructions","trial_index":0,"time_elapsed":3310,"internal_node_id":"0.0-0.0","experiment":"validation","task_version":"2.0","jspsych_version":"6.3.1"},{"rt":12886.400000000373,"responses":{"age":"59","gender-categorical":"Male","gender-free-response":"","ethnicity":"Not Hispanic or Latino","race":["White"],"education":"Bachelor degree"},"survey":"demographics","trial_type":"survey-demo","trial_index":1,"time_elapsed":16199,"internal_node_id":"0.0-1.0","experiment":"validation","task_version":"2.0","jspsych_version":"6.3.1"},{"rt":54915.800000000745,"response":{"Q4":5,"Q3":5,"Q2":5,"Q8":0,"Q6":1,"Q5":5,"Q0":4,"Q7":5,"Q1":4},"question_order":[4,3,2,8,6,5,0,7,1],"survey":"sns","trial_type":"survey-likert","trial_index":2,"time_elapsed":71119,"internal_node_id":"0.0-2.0","experiment":"validation","task_version":"2.0","jspsych_version":"6.3.1","infrequency":0},{"responses":{"Q01":"3","Q03":"4","Q05":"3","Q02":"3","Q08":"4","Q06":"3","Q09":"4","Q04":"4","Q07":"3"},"rt":53403.199999999255,"item_order":[0,2,4,1,7,5,8,3,6],"radio_events":[7265.9000000003725,15010.199999999255,21321.799999998882,24553.799999998882,29570.299999998882,33210.09999999963,40514.09999999963,45401.699999999255,51730.199999999255],"key_events":[],"mouse_events":[7265.9000000003725,15010.199999999255,18586,21321.799999998882,24553.799999998882,29570.299999998882,33210.09999999963,40514.09999999963,42754.29999999888,44466.199999999255,45401.699999999255,46986.79999999888,51730.199999999255,53402],"straightlining":0.5555555555555556,"zigzagging":0.75,"honeypot":0,"survey":"pcf","trial_type":"survey-template","trial_index":3,"time_elapsed":124527,"internal_node_id":"0.0-3.0","experiment":"validation","task_version":"2.0","jspsych_version":"6.3.1","infrequency":0},{"responses":{"Q08":"4","Q06":"4","Q02":"3","Q07":"4","Q11":"0","Q03":"4","Q10":"3","Q04":"3","Q09":"2","Q01":"2","Q05":"3"},"rt":66492.09999999963,"item_order":[7,5,1,6,10,2,9,3,8,0,4],"radio_events":[6746.5999999996275,11490.800000000745,14114.700000001118,19610.700000001118,23754.800000000745,28866.900000000373,34955.09999999963,44050.70000000112,49722.800000000745,55986.70000000112,58994.5,65426.59999999963],"key_events":[],"mouse_events":[6746.5999999996275,10771,11490.800000000745,14114.700000001118,18730.700000001118,19610.700000001118,23754.800000000745,28866.900000000373,33938.59999999963,34955.09999999963,42858.800000000745,44050.70000000112,49722.800000000745,55986.70000000112,58994.5,65426.59999999963,66490.90000000037],"straightlining":0.2727272727272727,"zigzagging":0.5,"honeypot":0,"survey":"nfc10","trial_type":"survey-template","trial_index":4,"time_elapsed":191023,"internal_node_id":"0.0-4.0","experiment":"validation","task_version":"2.0","jspsych_version":"6.3.1","infrequency":0},{"value":0,"trial_type":"call-function","trial_index":5,"time_elapsed":191026,"internal_node_id":"0.0-5.0","experiment":"validation","task_version":"2.0","jspsych_version":"6.3.1","interactions":"[]"}]