[{"view_history":[{"page_index":0,"viewing_time":1160.8999999985099}],"rt":1161,"trial_type":"instructions","trial_index":0,"time_elapsed":1171,"internal_node_id":"0.0-0.0","experiment":"validation","task_version":"2.0","jspsych_version":"6.3.1"},{"rt":6877.099999997765,"responses":{"age":"28","gender-categorical":"Male","gender-free-response":"","ethnicity":"Not Hispanic or Latino","race":["White"],"education":"Bachelor degree"},"survey":"demographics","trial_type":"survey-demo","trial_index":1,"time_elapsed":8050,"internal_node_id":"0.0-1.0","experiment":"validation","task_version":"2.0","jspsych_version":"6.3.1"},{"rt":27124.5,"response":{"Q6":1,"Q2":5,"Q5":4,"Q1":4,"Q7":5,"Q0":4,"Q8":0,"Q3":5,"Q4":5},"question_order":[6,2,5,1,7,0,8,3,4],"survey":"sns","trial_type":"survey-likert","trial_index":2,"time_elapsed":35176,"internal_node_id":"0.0-2.0","experiment":"validation","task_version":"2.0","jspsych_version":"6.3.1","infrequency":0},{"responses":{"Q04":"3","Q07":"4","Q05":"4","Q08":"3","Q10":"4","Q03":"4","Q01":"4","Q11":"0","Q02":"4","Q06":"4","Q09":"3"},"rt":53992.20000000298,"item_order":[3,6,4,7,9,2,0,10,1,5,8],"radio_events":[4512,4597.5,4683.300000000745,5372.10000000149,5456.70000000298,5542.70000000298,5885.900000002235,5971.400000002235,6057.20000000298,6847.10000000149,8185.20000000298,8823.10000000149,9287.10000000149,12461.10000000149,13807.10000000149,16601.10000000149,27363,30191.10000000149,30419,30615.20000000298,32143.10000000149,36505.20000000298,41363,48543,49449.10000000149],"key_events":[],"mouse_events":[1635.300000000745,2093.10000000149,2510.300000000745,2596.7000000029802,2682.10000000149,2768.2000000029802,2853.900000002235,2939.5,3025.400000002235,3110.60000000149,3196.300000000745,3996.7000000029802,4083,4168.900000002235,4254.800000000745,4340.5,4425.900000002235,4512,4597.5,4683.300000000745,4769.70000000298,4855.5,4941.300000000745,5026.900000002235,5112.300000000745,5198,5284.20000000298,5372.10000000149,5456.70000000298,5542.70000000298,5628.60000000149,5714.10000000149,5799.900000002235,5885.900000002235,5971.400000002235,6057.20000000298,6619.20000000298,6847.10000000149,7831.10000000149,8185.20000000298,8823.10000000149,9287.10000000149,10429.10000000149,10697.10000000149,10964.900000002235,12461.10000000149,13357.20000000298,13807.10000000149,16081,16601.10000000149,21239.20000000298,27363,29947.10000000149,30191.10000000149,30419,30615.20000000298,32143.10000000149,35819.60000000149,36197.20000000298,36505.20000000298,37307.10000000149,37599,37977.20000000298,41363,48143.10000000149,48543,49149.20000000298,49449.10000000149,53991.300000000745],"straightlining":0.45454545454545453,"zigzagging":0.7,"honeypot":0,"survey":"nfc10","trial_type":"survey-template","trial_index":3,"time_elapsed":89171,"internal_node_id":"0.0-3.0","experiment":"validation","task_version":"2.0","jspsych_version":"6.3.1","infrequency":0},{"responses":{"Q03":"4","Q07":"4","Q06":"4","Q09":"4","Q04":"4","Q08":"4","Q01":"3","Q05":"4","Q02":"4"},"rt":28123.5,"item_order":[2,6,5,8,3,7,0,4,1],"radio_events":[1457.2000000029802,1543.4000000022352,1630.7000000029802,1717.1000000014901,1804.800000000745,4731.20000000298,5423.10000000149,5975.10000000149,7509.20000000298,8635.400000002235,8687.800000000745,8773.5,8859.300000000745,8945.10000000149,9030.70000000298,11133.20000000298,11218.900000002235,11304.5,13334.800000000745,13420.10000000149,13504.60000000149,14485,19193,22359,23753.10000000149,24281.300000000745,25477,26799.10000000149],"key_events":[],"mouse_events":[1457.2000000029802,1543.4000000022352,1630.7000000029802,1717.1000000014901,1804.800000000745,4731.20000000298,5423.10000000149,5975.10000000149,7313.70000000298,7509.20000000298,7895,8329,8635.400000002235,8687.800000000745,8773.5,8859.300000000745,8945.10000000149,9030.70000000298,9116.5,9202.70000000298,9288.10000000149,11133.20000000298,11218.900000002235,11304.5,13334.800000000745,13420.10000000149,13504.60000000149,14485,19193,22359,23469.20000000298,23753.10000000149,24281.300000000745,25477,26155.10000000149,26799.10000000149,28123],"straightlining":0.7777777777777778,"zigzagging":0.5,"honeypot":0,"survey":"pcf","trial_type":"survey-template","trial_index":4,"time_elapsed":117296,"internal_node_id":"0.0-4.0","experiment":"validation","task_version":"2.0","jspsych_version":"6.3.1","infrequency":0},{"value":0,"trial_type":"call-function","trial_index":5,"time_elapsed":117297,"internal_node_id":"0.0-5.0","experiment":"validation","task_version":"2.0","jspsych_version":"6.3.1","interactions":"[{\"event\":\"blur\",\"trial\":3,\"time\":56897},{\"event\":\"focus\",\"trial\":3,\"time\":57954}]"}]