[{"view_history":[{"page_index":0,"viewing_time":4493}],"rt":4493.800000011921,"trial_type":"instructions","trial_index":0,"time_elapsed":4535,"internal_node_id":"0.0-0.0","experiment":"validation","task_version":"1.1","jspsych_version":"6.3.1"},{"rt":15138.5,"responses":{"age":"52","gender-categorical":"Male","gender-free-response":"","ethnicity":"Not Hispanic or Latino","race":["White"],"education":"Bachelor degree"},"survey":"demographics","trial_type":"survey-demo","trial_index":1,"time_elapsed":19678,"internal_node_id":"0.0-1.0","experiment":"validation","task_version":"1.1","jspsych_version":"6.3.1"},{"responses":{"Q05":"3","Q04":"0","Q06":"0","Q03":"4","Q07":"4","Q01":"3","Q09":"4","Q02":"4","Q10":"4","Q08":"3","Q11":"4"},"rt":42404.90000000596,"item_order":[4,3,5,2,6,0,8,1,9,7,10],"radio_events":[8009.20000000298,10300.800000011921,12239.20000000298,18796.60000000894,21196.70000000298,23898.80000001192,30240.90000000596,31940.60000000894,34564.70000000298,37280.70000000298,40776.70000000298],"key_events":[],"mouse_events":[8009.20000000298,9132.90000000596,10300.800000011921,12239.20000000298,17641,18796.60000000894,20202.90000000596,21196.70000000298,23898.80000001192,30240.90000000596,31940.60000000894,34564.70000000298,37280.70000000298,39940.90000000596,40776.70000000298,42403],"straightlining":0.36363636363636365,"zigzagging":0.5,"honeypot":0,"survey":"neuroticism","trial_type":"survey-template","trial_index":2,"time_elapsed":62090,"internal_node_id":"0.0-2.0","experiment":"validation","task_version":"1.1","jspsych_version":"6.3.1","infrequency":0},{"responses":{"Q01":"0","Q02":"1","Q05":"1","Q06":"4","Q03":"0","Q04":"1","Q07":"2"},"rt":37106.70000000298,"item_order":[0,1,4,5,2,3,6],"radio_events":[4266.20000000298,11391.70000000298,15053.79999999702,23623.70000000298,25808.09999999404,31745.70000000298,36007.5],"key_events":[],"mouse_events":[4266.20000000298,11391.70000000298,15053.79999999702,23623.70000000298,25808.09999999404,31745.70000000298,35437.79999999702,36007.5,37105.70000000298],"straightlining":0.2857142857142857,"zigzagging":0.5,"honeypot":0,"survey":"nfc6","trial_type":"survey-template","trial_index":3,"time_elapsed":99201,"internal_node_id":"0.0-3.0","experiment":"validation","task_version":"1.1","jspsych_version":"6.3.1","infrequency":0},{"responses":{"Q05":"1","Q07":"0","Q01":"0","Q06":"0","Q10":"0","Q03":"0","Q09":"3","Q04":"2","Q11":"0","Q02":"0","Q08":"1"},"rt":32888.5,"item_order":[4,6,0,5,9,2,8,3,10,1,7],"radio_events":[4133,6325,8748.90000000596,11022.79999999702,13227.20000000298,14833,17738.79999999702,22328.90000000596,24770.70000000298,27173.5,31984.90000000596],"key_events":[],"mouse_events":[4133,6325,8748.90000000596,11022.79999999702,13227.20000000298,14833,17738.79999999702,22328.90000000596,24770.70000000298,27173.5,31237,31984.90000000596,32886.70000000298],"straightlining":0.36363636363636365,"zigzagging":0.6,"honeypot":0,"survey":"openness","trial_type":"survey-template","trial_index":4,"time_elapsed":132095,"internal_node_id":"0.0-4.0","experiment":"validation","task_version":"1.1","jspsych_version":"6.3.1","infrequency":0},{"value":[0,1.012987012987013,1.6],"trial_type":"call-function","trial_index":5,"time_elapsed":132097,"internal_node_id":"0.0-5.0","experiment":"validation","task_version":"1.1","jspsych_version":"6.3.1","interactions":"[]"}]