[{"view_history":[{"page_index":0,"viewing_time":2969.5749999955297}],"rt":2969.879999756813,"trial_type":"instructions","trial_index":0,"time_elapsed":3024,"internal_node_id":"0.0-0.0","experiment":"validation","task_version":"1.1","jspsych_version":"6.3.1"},{"rt":12409.429999999702,"responses":{"age":"25","gender-categorical":"Female","gender-free-response":"","ethnicity":"Not Hispanic or Latino","race":["White"],"education":"Bachelor degree"},"survey":"demographics","trial_type":"survey-demo","trial_index":1,"time_elapsed":15440,"internal_node_id":"0.0-1.0","experiment":"validation","task_version":"1.1","jspsych_version":"6.3.1"},{"responses":{"Q10":"2","Q09":"4","Q06":"4","Q07":"4","Q05":"1","Q08":"4","Q04":"0","Q03":"3","Q11":"0","Q02":"4","Q01":"4"},"rt":33240.945000201464,"item_order":[9,8,5,6,4,7,3,2,10,1,0],"radio_events":[5214.660000056028,8044.364999979734,9584.03000002727,10839.57999991253,13126.92499998957,15316.610000096262,16565.46000018716,22459.019999951124,24708.50000018254,28184.125000145286,31189.590000081807,32645.37000004202],"key_events":[],"mouse_events":[5214.660000056028,8044.364999979734,9584.03000002727,10839.57999991253,13126.92499998957,15316.610000096262,16565.46000018716,17288.06499997154,22459.019999951124,24708.50000018254,28184.125000145286,31189.590000081807,32645.37000004202,33238.79500012845],"straightlining":0.45454545454545453,"zigzagging":0.3,"honeypot":0,"survey":"openness","trial_type":"survey-template","trial_index":2,"time_elapsed":48699,"internal_node_id":"0.0-2.0","experiment":"validation","task_version":"1.1","jspsych_version":"6.3.1","infrequency":0},{"responses":{"Q10":"2","Q09":"3","Q01":"1","Q07":"3","Q11":"4","Q03":"1","Q04":"1","Q08":"3","Q06":"3","Q05":"1","Q02":"1"},"rt":39915.77999992296,"item_order":[9,8,0,6,10,2,3,7,5,4,1],"radio_events":[6548.260000068694,7569.565000012517,9145.485000219196,13938.085000030696,15191.054999828339,19538.36499992758,21605.130000039935,25460.13499982655,27001.639999914914,28598.420000169426,30094.630000181496,31546.17500025779,32405.069999862462,36644.69500025734,38546.5850001201],"key_events":[],"mouse_events":[4814.939999952912,6548.260000068694,7569.565000012517,9145.485000219196,10318.479999899864,13938.085000030696,15191.054999828339,19538.36499992758,21605.130000039935,22510.360000189394,25460.13499982655,27001.639999914914,28598.420000169426,30094.630000181496,31546.17500025779,32405.069999862462,36644.69500025734,38546.5850001201,39444.73499991,39910.24499991909],"straightlining":0.8181818181818182,"zigzagging":0.1,"honeypot":0,"survey":"neuroticism","trial_type":"survey-template","trial_index":3,"time_elapsed":88627,"internal_node_id":"0.0-3.0","experiment":"validation","task_version":"1.1","jspsych_version":"6.3.1","infrequency":0},{"responses":{"Q02":"3","Q03":"4","Q06":"4","Q07":"2","Q01":"3","Q05":"3","Q04":"1"},"rt":38113.30500012264,"item_order":[1,2,5,6,0,4,3],"radio_events":[14625.574999954551,18216.119999997318,23057.63000017032,25878.43000004068,28972.124999854714,32633.270000107586,36024.83500028029],"key_events":[],"mouse_events":[12727.169999852777,14625.574999954551,18216.119999997318,23057.63000017032,25878.43000004068,28972.124999854714,31455.98000008613,32633.270000107586,33216.179999988526,36024.83500028029,38112.054999917746],"straightlining":0.5714285714285714,"zigzagging":0.3333333333333333,"honeypot":0,"survey":"nfc6","trial_type":"survey-template","trial_index":4,"time_elapsed":126746,"internal_node_id":"0.0-4.0","experiment":"validation","task_version":"1.1","jspsych_version":"6.3.1","infrequency":0},{"value":[0,1.844155844155844,0.7333333333333334],"trial_type":"call-function","trial_index":5,"time_elapsed":126750,"internal_node_id":"0.0-5.0","experiment":"validation","task_version":"1.1","jspsych_version":"6.3.1","interactions":"[]"}]