[{"success":true,"timeout":false,"failed_images":[],"failed_audio":[],"failed_video":[],"trial_type":"preload","trial_index":0,"time_elapsed":2162,"internal_node_id":"0.0-0.0","experiment":"validation","task_version":"1.1","jspsych_version":"6.3.1"},{"success":true,"trial_type":"fullscreen","trial_index":1,"time_elapsed":5874,"internal_node_id":"0.0-1.0","experiment":"validation","task_version":"1.1","jspsych_version":"6.3.1"},{"view_history":[{"page_index":0,"viewing_time":2037.6999988555908},{"page_index":1,"viewing_time":11134.20000076294},{"page_index":2,"viewing_time":5517.799999237061},{"page_index":3,"viewing_time":1657}],"rt":20347.60000038147,"trial_type":"instructions","trial_index":2,"time_elapsed":26223,"internal_node_id":"0.0-3.0","experiment":"validation","task_version":"1.1","jspsych_version":"6.3.1"},{"item":5,"shape_set":1,"distractor":"pd","choice_order":[1,0,3,2],"correct":0,"choice":0,"accuracy":1,"rt":2630.099998474121,"screen_resolution":[1280,720],"minimum_resolution":1,"all_loaded":true,"item_set":"practice","trial_type":"mars","trial_index":3,"time_elapsed":29607,"internal_node_id":"0.0-4.0-0.0","experiment":"validation","task_version":"1.1","jspsych_version":"6.3.1"},{"item":2,"shape_set":1,"distractor":"pd","choice_order":[3,1,0,2],"correct":0,"choice":0,"accuracy":1,"rt":2053.5,"screen_resolution":[1280,720],"minimum_resolution":1,"all_loaded":true,"item_set":"practice","trial_type":"mars","trial_index":4,"time_elapsed":32414,"internal_node_id":"0.0-5.0-0.0","experiment":"validation","task_version":"1.1","jspsych_version":"6.3.1"},{"item":8,"shape_set":1,"distractor":"pd","choice_order":[2,1,3,0],"correct":0,"choice":0,"accuracy":1,"rt":4824.39999961853,"screen_resolution":[1280,720],"minimum_resolution":1,"all_loaded":true,"item_set":"practice","trial_type":"mars","trial_index":5,"time_elapsed":37991,"internal_node_id":"0.0-6.0-0.0","experiment":"validation","task_version":"1.1","jspsych_version":"6.3.1"},{"view_history":[{"page_index":0,"viewing_time":1421.6000003814697},{"page_index":1,"viewing_time":12157.19999885559}],"rt":13579.29999923706,"trial_type":"instructions","trial_index":6,"time_elapsed":51571,"internal_node_id":"0.0-7.0","experiment":"validation","task_version":"1.1","jspsych_version":"6.3.1"},{"rt":null,"stimulus":"<div style=\"font-size:24px;\">Loading puzzle:<br>1 / 12</div>","response":null,"trial_type":"html-keyboard-response","trial_index":7,"time_elapsed":52774,"internal_node_id":"0.0-8.0-1.0","experiment":"validation","task_version":"1.1","jspsych_version":"6.3.1"},{"item":71,"shape_set":2,"distractor":"pd","choice_order":[1,2,0,3],"correct":0,"choice":0,"accuracy":1,"rt":7502.60000038147,"screen_resolution":[1280,720],"minimum_resolution":1,"all_loaded":true,"item_set":3,"trial_type":"mars","trial_index":8,"time_elapsed":60279,"internal_node_id":"0.0-8.0-2.0","experiment":"validation","task_version":"1.1","jspsych_version":"6.3.1","browser_interactions":0},{"rt":null,"stimulus":"<div style=\"font-size:24px;\">Loading puzzle:<br>2 / 12</div>","response":null,"trial_type":"html-keyboard-response","trial_index":9,"time_elapsed":61482,"internal_node_id":"0.0-9.0-1.0","experiment":"validation","task_version":"1.1","jspsych_version":"6.3.1"},{"item":55,"shape_set":3,"distractor":"pd","choice_order":[2,3,0,1],"correct":0,"choice":0,"accuracy":1,"rt":10736.20000076294,"screen_resolution":[1280,720],"minimum_resolution":1,"all_loaded":true,"item_set":3,"trial_type":"mars","trial_index":10,"time_elapsed":72222,"internal_node_id":"0.0-9.0-2.0","experiment":"validation","task_version":"1.1","jspsych_version":"6.3.1","browser_interactions":0},{"rt":null,"stimulus":"<div style=\"font-size:24px;\">Loading puzzle:<br>3 / 12</div>","response":null,"trial_type":"html-keyboard-response","trial_index":11,"time_elapsed":73424,"internal_node_id":"0.0-10.0-1.0","experiment":"validation","task_version":"1.1","jspsych_version":"6.3.1"},{"item":30,"shape_set":1,"distractor":"pd","choice_order":[0,2,3,1],"correct":0,"choice":0,"accuracy":1,"rt":8262.5,"screen_resolution":[1280,720],"minimum_resolution":1,"all_loaded":true,"item_set":3,"trial_type":"mars","trial_index":12,"time_elapsed":81689,"internal_node_id":"0.0-10.0-2.0","experiment":"validation","task_version":"1.1","jspsych_version":"6.3.1","browser_interactions":0},{"rt":null,"stimulus":"<div style=\"font-size:24px;\">Loading puzzle:<br>4 / 12</div>","response":null,"trial_type":"html-keyboard-response","trial_index":13,"time_elapsed":82891,"internal_node_id":"0.0-11.0-1.0","experiment":"validation","task_version":"1.1","jspsych_version":"6.3.1"},{"item":45,"shape_set":2,"distractor":"pd","choice_order":[3,0,2,1],"correct":0,"choice":0,"accuracy":1,"rt":14994.69999885559,"screen_resolution":[1280,720],"minimum_resolution":1,"all_loaded":true,"item_set":3,"trial_type":"mars","trial_index":14,"time_elapsed":97888,"internal_node_id":"0.0-11.0-2.0","experiment":"validation","task_version":"1.1","jspsych_version":"6.3.1","browser_interactions":0},{"rt":null,"stimulus":"<div style=\"font-size:24px;\">Loading puzzle:<br>5 / 12</div>","response":null,"trial_type":"html-keyboard-response","trial_index":15,"time_elapsed":99091,"internal_node_id":"0.0-12.0-1.0","experiment":"validation","task_version":"1.1","jspsych_version":"6.3.1"},{"item":11,"shape_set":3,"distractor":"pd","choice_order":[1,3,0,2],"correct":0,"choice":0,"accuracy":1,"rt":11646.20000076294,"screen_resolution":[1280,720],"minimum_resolution":1,"all_loaded":true,"item_set":3,"trial_type":"mars","trial_index":16,"time_elapsed":110740,"internal_node_id":"0.0-12.0-2.0","experiment":"validation","task_version":"1.1","jspsych_version":"6.3.1","browser_interactions":0},{"rt":null,"stimulus":"<div style=\"font-size:24px;\">Loading puzzle:<br>6 / 12</div>","response":null,"trial_type":"html-keyboard-response","trial_index":17,"time_elapsed":111943,"internal_node_id":"0.0-13.0-1.0","experiment":"validation","task_version":"1.1","jspsych_version":"6.3.1"},{"item":29,"shape_set":1,"distractor":"pd","choice_order":[1,0,2,3],"correct":0,"choice":0,"accuracy":1,"rt":7404,"screen_resolution":[1280,720],"minimum_resolution":1,"all_loaded":true,"item_set":3,"trial_type":"mars","trial_index":18,"time_elapsed":119350,"internal_node_id":"0.0-13.0-2.0","experiment":"validation","task_version":"1.1","jspsych_version":"6.3.1","browser_interactions":0},{"rt":null,"stimulus":"<div style=\"font-size:24px;\">Loading puzzle:<br>7 / 12</div>","response":null,"trial_type":"html-keyboard-response","trial_index":19,"time_elapsed":120552,"internal_node_id":"0.0-14.0-1.0","experiment":"validation","task_version":"1.1","jspsych_version":"6.3.1"},{"item":16,"shape_set":2,"distractor":"md","choice_order":[3,2,1,0],"correct":0,"choice":0,"accuracy":1,"rt":23588.19999885559,"screen_resolution":[1280,720],"minimum_resolution":1,"all_loaded":true,"item_set":3,"trial_type":"mars","trial_index":20,"time_elapsed":144143,"internal_node_id":"0.0-14.0-2.0","experiment":"validation","task_version":"1.1","jspsych_version":"6.3.1","browser_interactions":0},{"rt":null,"stimulus":"<div style=\"font-size:24px;\">Loading puzzle:<br>8 / 12</div>","response":null,"trial_type":"html-keyboard-response","trial_index":21,"time_elapsed":145345,"internal_node_id":"0.0-15.0-1.0","experiment":"validation","task_version":"1.1","jspsych_version":"6.3.1"},{"item":17,"shape_set":3,"distractor":"pd","choice_order":[2,1,0,3],"correct":0,"choice":1,"accuracy":0,"rt":28350.70000076294,"screen_resolution":[1280,720],"minimum_resolution":1,"all_loaded":true,"item_set":3,"trial_type":"mars","trial_index":22,"time_elapsed":173698,"internal_node_id":"0.0-15.0-2.0","experiment":"validation","task_version":"1.1","jspsych_version":"6.3.1","browser_interactions":0},{"rt":null,"stimulus":"<div style=\"font-size:24px;\">Loading puzzle:<br>9 / 12</div>","response":null,"trial_type":"html-keyboard-response","trial_index":23,"time_elapsed":174900,"internal_node_id":"0.0-16.0-1.0","experiment":"validation","task_version":"1.1","jspsych_version":"6.3.1"},{"item":23,"shape_set":1,"distractor":"md","choice_order":[0,3,2,1],"correct":0,"choice":0,"accuracy":1,"rt":22257.79999923706,"screen_resolution":[1280,720],"minimum_resolution":1,"all_loaded":true,"item_set":3,"trial_type":"mars","trial_index":24,"time_elapsed":197161,"internal_node_id":"0.0-16.0-2.0","experiment":"validation","task_version":"1.1","jspsych_version":"6.3.1","browser_interactions":0},{"rt":null,"stimulus":"<div style=\"font-size:24px;\">Loading puzzle:<br>10 / 12</div>","response":null,"trial_type":"html-keyboard-response","trial_index":25,"time_elapsed":198365,"internal_node_id":"0.0-17.0-1.0","experiment":"validation","task_version":"1.1","jspsych_version":"6.3.1"},{"item":58,"shape_set":2,"distractor":"md","choice_order":[0,2,1,3],"correct":0,"choice":0,"accuracy":1,"rt":8570.89999961853,"screen_resolution":[1280,720],"minimum_resolution":1,"all_loaded":true,"item_set":3,"trial_type":"mars","trial_index":26,"time_elapsed":206938,"internal_node_id":"0.0-17.0-2.0","experiment":"validation","task_version":"1.1","jspsych_version":"6.3.1","browser_interactions":0},{"rt":null,"stimulus":"<div style=\"font-size:24px;\">Loading puzzle:<br>11 / 12</div>","response":null,"trial_type":"html-keyboard-response","trial_index":27,"time_elapsed":208139,"internal_node_id":"0.0-18.0-1.0","experiment":"validation","task_version":"1.1","jspsych_version":"6.3.1"},{"item":35,"shape_set":3,"distractor":"pd","choice_order":[3,1,2,0],"correct":0,"choice":0,"accuracy":1,"rt":26618.19999885559,"screen_resolution":[1280,720],"minimum_resolution":1,"all_loaded":true,"item_set":3,"trial_type":"mars","trial_index":28,"time_elapsed":234761,"internal_node_id":"0.0-18.0-2.0","experiment":"validation","task_version":"1.1","jspsych_version":"6.3.1","browser_interactions":0},{"rt":null,"stimulus":"<div style=\"font-size:24px;\">Loading puzzle:<br>12 / 12</div>","response":null,"trial_type":"html-keyboard-response","trial_index":29,"time_elapsed":235963,"internal_node_id":"0.0-19.0-1.0","experiment":"validation","task_version":"1.1","jspsych_version":"6.3.1"},{"item":76,"shape_set":1,"distractor":"pd","choice_order":[1,2,0,3],"correct":0,"choice":2,"accuracy":0,"rt":24972.20000076294,"screen_resolution":[1280,720],"minimum_resolution":1,"all_loaded":true,"item_set":3,"trial_type":"mars","trial_index":30,"time_elapsed":260938,"internal_node_id":"0.0-19.0-2.0","experiment":"validation","task_version":"1.1","jspsych_version":"6.3.1","browser_interactions":0},{"value":[0,0,0],"trial_type":"call-function","trial_index":31,"time_elapsed":260939,"internal_node_id":"0.0-20.0","experiment":"validation","task_version":"1.1","jspsych_version":"6.3.1"},{"view_history":[{"page_index":0,"viewing_time":2330.7000007629395}],"rt":2331,"trial_type":"instructions","trial_index":32,"time_elapsed":263271,"internal_node_id":"0.0-21.0","experiment":"validation","task_version":"1.1","jspsych_version":"6.3.1","interactions":"[{\"event\":\"fullscreenenter\",\"trial\":1,\"time\":4886}]"}]