[{"view_history":[{"page_index":0,"viewing_time":3247.5}],"rt":3247.89999999851,"trial_type":"instructions","trial_index":0,"time_elapsed":3259,"internal_node_id":"0.0-0.0","experiment":"validation","task_version":"2.0","jspsych_version":"6.3.1"},{"rt":9785.5,"responses":{"age":"21","gender-categorical":"Female","gender-free-response":"","ethnicity":"Not Hispanic or Latino","race":["White"],"education":"Some college"},"survey":"demographics","trial_type":"survey-demo","trial_index":1,"time_elapsed":13046,"internal_node_id":"0.0-1.0","experiment":"validation","task_version":"2.0","jspsych_version":"6.3.1"},{"responses":{"Q08":"1","Q02":"2","Q03":"1","Q07":"4","Q09":"4","Q04":"2","Q05":"1","Q01":"2","Q06":"0"},"rt":28832.5,"item_order":[7,1,2,6,8,3,4,0,5],"radio_events":[5201.30000000447,8187.60000000149,11124.70000000298,14836,17333.20000000298,19627.90000000596,22564.70000000298,24558.20000000298,26307.70000000298,28170.90000000596],"key_events":[],"mouse_events":[5201.30000000447,6901.10000000149,8187.60000000149,9708.70000000298,10717.30000000447,11124.70000000298,14836,17333.20000000298,19627.90000000596,22564.70000000298,24558.20000000298,26307.70000000298,28170.90000000596,28830],"straightlining":0.3333333333333333,"zigzagging":0.625,"honeypot":0,"survey":"pcf","trial_type":"survey-template","trial_index":2,"time_elapsed":41883,"internal_node_id":"0.0-2.0","experiment":"validation","task_version":"2.0","jspsych_version":"6.3.1","infrequency":0},{"rt":42037.70000000298,"response":{"Q5":1,"Q2":1,"Q7":4,"Q3":2,"Q6":1,"Q1":2,"Q8":0,"Q0":2,"Q4":5},"question_order":[5,2,7,3,6,1,8,0,4],"survey":"sns","trial_type":"survey-likert","trial_index":3,"time_elapsed":83926,"internal_node_id":"0.0-3.0","experiment":"validation","task_version":"2.0","jspsych_version":"6.3.1","infrequency":0},{"responses":{"Q04":"2","Q05":"3","Q06":"1","Q07":"2","Q02":"2","Q09":"2","Q03":"2","Q01":"1","Q11":"0","Q08":"2","Q10":"2"},"rt":58767.10000000149,"item_order":[3,4,5,6,1,8,2,0,10,7,9],"radio_events":[6962.60000000149,7922.70000000298,14404.30000000447,16258.80000000447,21482.20000000298,22084,33528,34154.60000000149,38117.80000000447,41722.10000000149,49937.90000000596,56143.70000000298,57820],"key_events":[],"mouse_events":[6962.60000000149,7922.70000000298,13802.20000000298,14404.30000000447,16258.80000000447,17333.80000000447,19586.90000000596,21482.20000000298,22084,23531.90000000596,27567.80000000447,31380,33528,34154.60000000149,37303.90000000596,38117.80000000447,41209.20000000298,41722.10000000149,49937.90000000596,55517.20000000298,56143.70000000298,57128.5,57820,58764.20000000298],"straightlining":0.6363636363636364,"zigzagging":0.4,"honeypot":0,"survey":"nfc10","trial_type":"survey-template","trial_index":4,"time_elapsed":142698,"internal_node_id":"0.0-4.0","experiment":"validation","task_version":"2.0","jspsych_version":"6.3.1","infrequency":0},{"value":0,"trial_type":"call-function","trial_index":5,"time_elapsed":142701,"internal_node_id":"0.0-5.0","experiment":"validation","task_version":"2.0","jspsych_version":"6.3.1","interactions":"[]"}]