[{"view_history":[{"page_index":0,"viewing_time":1441.5999999996275}],"rt":1442.0999999996275,"trial_type":"instructions","trial_index":0,"time_elapsed":1451,"internal_node_id":"0.0-0.0","experiment":"validation","task_version":"1.1","jspsych_version":"6.3.1"},{"rt":11352.900000000373,"responses":{"age":"18","gender-categorical":"Female","gender-free-response":"","ethnicity":"Not Hispanic or Latino","race":["White"],"education":"Some college"},"survey":"demographics","trial_type":"survey-demo","trial_index":1,"time_elapsed":12807,"internal_node_id":"0.0-1.0","experiment":"validation","task_version":"1.1","jspsych_version":"6.3.1"},{"responses":{"Q03":"4","Q10":"4","Q02":"4","Q11":"0","Q09":"3","Q06":"4","Q07":"3","Q05":"0","Q08":"4","Q04":"0","Q01":"4"},"rt":41239,"item_order":[2,9,1,10,8,5,6,4,7,3,0],"radio_events":[4384.300000000745,6180.60000000149,8143.800000000745,15666,19666.400000000373,20917.200000001118,22711.400000000373,27031.5,33749.20000000112,37501.5,38863.300000000745,40466.300000000745],"key_events":[],"mouse_events":[4384.300000000745,6180.60000000149,8143.800000000745,15666,19666.400000000373,20917.200000001118,22711.400000000373,27031.5,33749.20000000112,35192.300000000745,37501.5,38863.300000000745,39696.5,40466.300000000745,41235.300000000745],"straightlining":0.45454545454545453,"zigzagging":0.8,"honeypot":0,"survey":"openness","trial_type":"survey-template","trial_index":2,"time_elapsed":54053,"internal_node_id":"0.0-2.0","experiment":"validation","task_version":"1.1","jspsych_version":"6.3.1","infrequency":0},{"responses":{"Q03":"0","Q04":"1","Q09":"2","Q08":"1","Q02":"1","Q10":"1","Q01":"0","Q07":"1","Q11":"4","Q05":"1","Q06":"2"},"rt":32876.40000000037,"item_order":[2,3,8,7,1,9,0,6,10,4,5],"radio_events":[2879.2000000011176,4369.800000000745,6525.4000000003725,8874.599999999627,11454.800000000745,12921.400000000373,15278.099999999627,22395.700000001118,25450.5,29273.5,31309.099999999627],"key_events":[],"mouse_events":[2879.2000000011176,4369.800000000745,6525.4000000003725,8874.599999999627,11454.800000000745,12921.400000000373,15278.099999999627,22395.700000001118,25450.5,29273.5,31309.099999999627,32872],"straightlining":0.2727272727272727,"zigzagging":0.5,"honeypot":0,"survey":"neuroticism","trial_type":"survey-template","trial_index":3,"time_elapsed":86934,"internal_node_id":"0.0-3.0","experiment":"validation","task_version":"1.1","jspsych_version":"6.3.1","infrequency":0},{"responses":{"Q04":"4","Q02":"3","Q07":"2","Q01":"3","Q06":"3","Q03":"4","Q05":"4"},"rt":29001.5,"item_order":[3,1,6,0,5,2,4],"radio_events":[6179.800000000745,9641.699999999255,17087.900000000373,19292.099999999627,24517.5,25576.400000000373,28316.800000000745],"key_events":[],"mouse_events":[6179.800000000745,9641.699999999255,17087.900000000373,19292.099999999627,24517.5,25576.400000000373,28316.800000000745,28998.400000000373],"straightlining":0.42857142857142855,"zigzagging":0.5,"honeypot":0,"survey":"nfc6","trial_type":"survey-template","trial_index":4,"time_elapsed":115939,"internal_node_id":"0.0-4.0","experiment":"validation","task_version":"1.1","jspsych_version":"6.3.1","infrequency":0},{"value":[0,1.155844155844156,1.8],"trial_type":"call-function","trial_index":5,"time_elapsed":115943,"internal_node_id":"0.0-5.0","experiment":"validation","task_version":"1.1","jspsych_version":"6.3.1","interactions":"[]"}]