[{"view_history":[{"page_index":0,"viewing_time":2316.9000000059605}],"rt":2317.7999999970198,"trial_type":"instructions","trial_index":0,"time_elapsed":2407,"internal_node_id":"0.0-0.0","experiment":"validation","task_version":"2.0","jspsych_version":"6.3.1"},{"rt":12604,"responses":{"age":"30","gender-categorical":"Male","gender-free-response":"","ethnicity":"Not Hispanic or Latino","race":["White"],"education":"Master degree or higher"},"survey":"demographics","trial_type":"survey-demo","trial_index":1,"time_elapsed":15020,"internal_node_id":"0.0-1.0","experiment":"validation","task_version":"2.0","jspsych_version":"6.3.1"},{"responses":{"Q05":"4","Q07":"4","Q04":"4","Q08":"4","Q06":"4","Q03":"4","Q02":"4","Q09":"4","Q01":"4"},"rt":22517.90000000596,"item_order":[4,6,3,7,5,2,1,8,0],"radio_events":[3322.2000000029802,4442.4000000059605,5032.5,7544.9000000059605,11145.29999999702,14970.59999999404,15521.09999999404,17380.5,18676.29999999702],"key_events":[],"mouse_events":[3322.2000000029802,4442.4000000059605,5032.5,7544.9000000059605,9111.5,10175.59999999404,11145.29999999702,14021.59999999404,14970.59999999404,15521.09999999404,16873.29999999702,17380.5,18676.29999999702,22513.29999999702],"straightlining":0.8888888888888888,"zigzagging":0.25,"honeypot":0,"survey":"pcf","trial_type":"survey-template","trial_index":2,"time_elapsed":37552,"internal_node_id":"0.0-2.0","experiment":"validation","task_version":"2.0","jspsych_version":"6.3.1","infrequency":0},{"responses":{"Q10":"3","Q05":"3","Q11":"0","Q06":"3","Q04":"3","Q01":"3","Q07":"3","Q09":"2","Q08":"3","Q02":"2","Q03":"4"},"rt":39765.70000000298,"item_order":[9,4,10,5,3,0,6,8,7,1,2],"radio_events":[6075.300000011921,7507.70000000298,12334.70000000298,14812.70000000298,17137.40000000596,20811.10000000894,22557.90000000596,27206.40000000596,28019.80000001192,29827.10000000894,32093.70000000298,34278.20000000298,34937.90000000596,38682.40000000596],"key_events":[],"mouse_events":[5536.70000000298,6075.300000011921,7507.70000000298,11651.300000011921,12334.70000000298,14812.70000000298,17137.40000000596,20811.10000000894,22557.90000000596,26590.20000000298,27206.40000000596,28019.80000001192,28865.40000000596,29240.90000000596,29827.10000000894,32093.70000000298,34278.20000000298,34937.90000000596,38025.30000001192,38682.40000000596,39759.40000000596],"straightlining":0.45454545454545453,"zigzagging":0.4,"honeypot":0,"survey":"nfc10","trial_type":"survey-template","trial_index":3,"time_elapsed":77327,"internal_node_id":"0.0-3.0","experiment":"validation","task_version":"2.0","jspsych_version":"6.3.1","infrequency":0},{"rt":29843.5,"response":{"Q6":1,"Q8":0,"Q3":5,"Q0":4,"Q1":4,"Q4":5,"Q5":4,"Q2":4,"Q7":5},"question_order":[6,8,3,0,1,4,5,2,7],"survey":"sns","trial_type":"survey-likert","trial_index":4,"time_elapsed":107182,"internal_node_id":"0.0-4.0","experiment":"validation","task_version":"2.0","jspsych_version":"6.3.1","infrequency":0},{"value":0,"trial_type":"call-function","trial_index":5,"time_elapsed":107186,"internal_node_id":"0.0-5.0","experiment":"validation","task_version":"2.0","jspsych_version":"6.3.1","interactions":"[]"}]