[{"view_history":[{"page_index":0,"viewing_time":4014.5}],"rt":4015.199999999255,"trial_type":"instructions","trial_index":0,"time_elapsed":4034,"internal_node_id":"0.0-0.0","experiment":"validation","task_version":"1.1","jspsych_version":"6.3.1"},{"rt":12034.800000000745,"responses":{"age":"34","gender-categorical":"Female","gender-free-response":"","ethnicity":"Not Hispanic or Latino","race":["White"],"education":"Bachelor degree"},"survey":"demographics","trial_type":"survey-demo","trial_index":1,"time_elapsed":16073,"internal_node_id":"0.0-1.0","experiment":"validation","task_version":"1.1","jspsych_version":"6.3.1"},{"responses":{"Q06":"4","Q04":"1","Q01":"4","Q02":"4","Q09":"4","Q08":"4","Q10":"2","Q11":"0","Q05":"0","Q07":"4","Q03":"2"},"rt":31199.199999999255,"item_order":[5,3,0,1,8,7,9,10,4,6,2],"radio_events":[4079.199999999255,5250.699999999255,7512,8340.800000000745,10795.199999999255,12432.699999999255,15407.800000000745,20673.199999999255,22233.199999999255,23327.60000000149,30395.60000000149],"key_events":[],"mouse_events":[2161,3098.60000000149,4079.199999999255,5250.699999999255,7512,8340.800000000745,10080.5,10795.199999999255,12432.699999999255,14507,15407.800000000745,20673.199999999255,22233.199999999255,23327.60000000149,28895.5,29999.60000000149,30395.60000000149,31195.800000000745],"straightlining":0.45454545454545453,"zigzagging":0.4,"honeypot":0,"survey":"openness","trial_type":"survey-template","trial_index":2,"time_elapsed":47278,"internal_node_id":"0.0-2.0","experiment":"validation","task_version":"1.1","jspsych_version":"6.3.1","infrequency":0},{"responses":{"Q06":"4","Q02":"3","Q03":"2","Q04":"3","Q07":"2","Q05":"3","Q01":"3"},"rt":38933.699999999255,"item_order":[5,1,2,3,6,4,0],"radio_events":[4238.099999997765,11228.099999997765,12733.89999999851,19708.5,22302.599999997765,37263.199999999255,38327.300000000745],"key_events":[],"mouse_events":[3221.699999999255,4238.099999997765,11228.099999997765,12733.89999999851,19250.099999997765,19708.5,22302.599999997765,36269.199999999255,37263.199999999255,37853.300000000745,38327.300000000745,38931.199999999255],"straightlining":0.42857142857142855,"zigzagging":0.8333333333333334,"honeypot":0,"survey":"nfc6","trial_type":"survey-template","trial_index":3,"time_elapsed":86216,"internal_node_id":"0.0-3.0","experiment":"validation","task_version":"1.1","jspsych_version":"6.3.1","infrequency":0},{"responses":{"Q04":"0","Q08":"1","Q07":"1","Q09":"0","Q06":"1","Q03":"0","Q05":"3","Q01":"3","Q11":"4","Q10":"1","Q02":"0"},"rt":246131.30000000075,"item_order":[3,7,6,8,5,2,4,0,10,9,1],"radio_events":[3301.5,4637.099999997765,6321,10808.89999999851,12533.89999999851,14568.39999999851,16439.599999997765,22891.39999999851,242782.30000000075,243341.5,245459.59999999776],"key_events":[],"mouse_events":[2610.800000000745,3301.5,4637.099999997765,6321,10808.89999999851,12533.89999999851,14568.39999999851,16439.599999997765,22891.39999999851,23855.89999999851,240772,241633.30000000075,242417.19999999925,242782.30000000075,243341.5,244893.5,245459.59999999776,246127.59999999776],"straightlining":0.5454545454545454,"zigzagging":0.4,"honeypot":0,"survey":"neuroticism","trial_type":"survey-template","trial_index":4,"time_elapsed":332354,"internal_node_id":"0.0-4.0","experiment":"validation","task_version":"1.1","jspsych_version":"6.3.1","infrequency":0},{"value":[0,1.4285714285714284,1.6333333333333333],"trial_type":"call-function","trial_index":5,"time_elapsed":332357,"internal_node_id":"0.0-5.0","experiment":"validation","task_version":"1.1","jspsych_version":"6.3.1","interactions":"[]"}]