[{"view_history":[{"page_index":0,"viewing_time":9037.199999988079}],"rt":9037.5,"trial_type":"instructions","trial_index":0,"time_elapsed":9041,"internal_node_id":"0.0-0.0","experiment":"validation","task_version":"1.1","jspsych_version":"6.3.1"},{"rt":13288.800000011921,"responses":{"age":"","gender-categorical":"Male","gender-free-response":"","ethnicity":"Not Hispanic or Latino","race":["White"],"education":"Master degree or higher"},"survey":"demographics","trial_type":"survey-demo","trial_index":1,"time_elapsed":22332,"internal_node_id":"0.0-1.0","experiment":"validation","task_version":"1.1","jspsych_version":"6.3.1"},{"responses":{"Q02":"3","Q07":"2","Q04":"3","Q01":"3","Q03":"3","Q05":"3","Q06":"3"},"rt":47089.60000002384,"item_order":[1,6,3,0,2,4,5],"radio_events":[10928.600000023842,14922.300000011921,22060.30000001192,25248.5,27808.399999976158,34870.39999997616,42656.39999997616],"key_events":[],"mouse_events":[10928.600000023842,14922.300000011921,22060.30000001192,25248.5,27808.399999976158,34870.39999997616,42656.39999997616,47088.5],"straightlining":0.5714285714285714,"zigzagging":0.3333333333333333,"honeypot":0,"survey":"nfc6","trial_type":"survey-template","trial_index":2,"time_elapsed":69429,"internal_node_id":"0.0-2.0","experiment":"validation","task_version":"1.1","jspsych_version":"6.3.1","infrequency":0},{"responses":{"Q10":"2","Q03":"2","Q08":"4","Q11":"0","Q02":"2","Q01":"4","Q06":"4","Q04":"0","Q07":"4","Q09":"4","Q05":"0"},"rt":38692.69999998808,"item_order":[9,2,7,10,1,0,5,3,6,8,4],"radio_events":[6121.5,7741.5,13391.5,16267.600000023842,19793.600000023842,23051.5,27691.5,29895.600000023842,31259.5,34761.5,36485.60000002384],"key_events":[],"mouse_events":[6121.5,7741.5,13391.5,16267.600000023842,19793.600000023842,23051.5,26451.899999976158,27691.5,29895.600000023842,31259.5,34761.5,36485.60000002384,38691.60000002384],"straightlining":0.45454545454545453,"zigzagging":0.4,"honeypot":0,"survey":"openness","trial_type":"survey-template","trial_index":3,"time_elapsed":108129,"internal_node_id":"0.0-3.0","experiment":"validation","task_version":"1.1","jspsych_version":"6.3.1","infrequency":0},{"responses":{"Q09":"2","Q08":"1","Q02":"0","Q10":"1","Q04":"0","Q11":"4","Q03":"0","Q05":"0","Q01":"0","Q06":"0","Q07":"1"},"rt":40913.5,"item_order":[8,7,1,9,3,10,2,4,0,5,6],"radio_events":[10650.200000047684,12966.300000011921,16818.30000001192,21160.200000047684,25132.200000047684,27148.400000035763,29558.200000047684,31426.200000047684,32922.30000001192,38052.30000001192,39322.40000003576],"key_events":[],"mouse_events":[10650.200000047684,12966.300000011921,16818.30000001192,21160.200000047684,25132.200000047684,27148.400000035763,29558.200000047684,31426.200000047684,32922.30000001192,38052.30000001192,39322.40000003576,40912.40000003576],"straightlining":0.45454545454545453,"zigzagging":0.5,"honeypot":0,"survey":"neuroticism","trial_type":"survey-template","trial_index":4,"time_elapsed":149049,"internal_node_id":"0.0-4.0","experiment":"validation","task_version":"1.1","jspsych_version":"6.3.1","infrequency":0},{"value":[0,1.4805194805194806,1.2333333333333334],"trial_type":"call-function","trial_index":5,"time_elapsed":149055,"internal_node_id":"0.0-5.0","experiment":"validation","task_version":"1.1","jspsych_version":"6.3.1","interactions":"[]"}]