[{"view_history":[{"page_index":0,"viewing_time":3249.7000000178814}],"rt":3250.4000000059605,"trial_type":"instructions","trial_index":0,"time_elapsed":3257,"internal_node_id":"0.0-0.0","experiment":"validation","task_version":"1.1","jspsych_version":"6.3.1"},{"rt":13542.299999982119,"responses":{"age":"25","gender-categorical":"Female","gender-free-response":"","ethnicity":"Not Hispanic or Latino","race":["White"],"education":"Master degree or higher"},"survey":"demographics","trial_type":"survey-demo","trial_index":1,"time_elapsed":16802,"internal_node_id":"0.0-1.0","experiment":"validation","task_version":"1.1","jspsych_version":"6.3.1"},{"responses":{"Q04":"2","Q07":"3","Q10":"3","Q08":"3","Q05":"3","Q09":"3","Q03":"1","Q01":"2","Q11":"4","Q02":"2","Q06":"3"},"rt":30844.70000001788,"item_order":[3,6,9,7,4,8,2,0,10,1,5],"radio_events":[6181.9000000059605,8341.700000017881,10426.800000011921,13044.200000017881,15714.200000017881,17896.80000001192,20859.20000001788,23094.20000001788,25373.30000001192,26994.100000023842,30174],"key_events":[],"mouse_events":[6181.9000000059605,8341.700000017881,10426.800000011921,13044.200000017881,15714.200000017881,17896.80000001192,20859.20000001788,23094.20000001788,25373.30000001192,26994.100000023842,30174,30841.90000000596],"straightlining":0.5454545454545454,"zigzagging":0.3,"honeypot":0,"survey":"neuroticism","trial_type":"survey-template","trial_index":2,"time_elapsed":47652,"internal_node_id":"0.0-2.0","experiment":"validation","task_version":"1.1","jspsych_version":"6.3.1","infrequency":0},{"responses":{"Q01":"2","Q02":"3","Q05":"3","Q04":"2","Q03":"1","Q06":"3","Q07":"2"},"rt":39722.20000001788,"item_order":[0,1,4,3,2,5,6],"radio_events":[5858.0999999940395,13215.5,19620.09999999404,25341.70000001788,30907.80000001192,36621.5,38834.80000001192],"key_events":[],"mouse_events":[5858.0999999940395,13215.5,19620.09999999404,25341.70000001788,30907.80000001192,36621.5,38834.80000001192,39720.40000000596],"straightlining":0.5714285714285714,"zigzagging":0.6666666666666666,"honeypot":0,"survey":"nfc6","trial_type":"survey-template","trial_index":3,"time_elapsed":87378,"internal_node_id":"0.0-3.0","experiment":"validation","task_version":"1.1","jspsych_version":"6.3.1","infrequency":0},{"responses":{"Q09":"3","Q11":"0","Q07":"3","Q08":"3","Q04":"1","Q02":"3","Q06":"3","Q01":"3","Q10":"4","Q03":"4","Q05":"0"},"rt":33889.80000001192,"item_order":[8,10,6,7,3,1,5,0,9,2,4],"radio_events":[6758.5,9714.800000011921,11867.300000011921,13847.40000000596,17513.59999999404,18586,23687.40000000596,24902.20000001788,29176,30849.40000000596,33069.59999999404],"key_events":[],"mouse_events":[6758.5,9714.800000011921,11867.300000011921,13847.40000000596,17513.59999999404,18586,23687.40000000596,24902.20000001788,29176,30849.40000000596,33069.59999999404,33887.09999999404],"straightlining":0.36363636363636365,"zigzagging":0.3,"honeypot":0,"survey":"openness","trial_type":"survey-template","trial_index":4,"time_elapsed":121271,"internal_node_id":"0.0-4.0","experiment":"validation","task_version":"1.1","jspsych_version":"6.3.1","infrequency":0},{"value":[0,1.4805194805194803,1.2666666666666666],"trial_type":"call-function","trial_index":5,"time_elapsed":121274,"internal_node_id":"0.0-5.0","experiment":"validation","task_version":"1.1","jspsych_version":"6.3.1","interactions":"[]"}]