[{"view_history":[{"page_index":0,"viewing_time":1642.3000001907349}],"rt":1642.5,"trial_type":"instructions","trial_index":0,"time_elapsed":1654,"internal_node_id":"0.0-0.0","experiment":"validation","task_version":"1.1","jspsych_version":"6.3.1"},{"rt":14165.299999713898,"responses":{"age":"18","gender-categorical":"Male","gender-free-response":"","ethnicity":"Not Hispanic or Latino","race":["White"],"education":"Some college"},"survey":"demographics","trial_type":"survey-demo","trial_index":1,"time_elapsed":15821,"internal_node_id":"0.0-1.0","experiment":"validation","task_version":"1.1","jspsych_version":"6.3.1"},{"responses":{"Q01":"3","Q04":"4","Q07":"2","Q03":"4","Q05":"3","Q06":"4","Q02":"3"},"rt":44618.199999809265,"item_order":[0,3,6,2,4,5,1],"radio_events":[7656,10634.400000095367,12757.099999904633,14048.900000095367,14629.400000095367,34590.40000009537,40676.40000009537,43855.7999997139],"key_events":[],"mouse_events":[6974.5,7656,10634.400000095367,12757.099999904633,14048.900000095367,14397.199999809265,14629.400000095367,34590.40000009537,40676.40000009537,43032.59999990463,43855.7999997139,44340.40000009537,44617.5],"straightlining":0.42857142857142855,"zigzagging":0.3333333333333333,"honeypot":0,"survey":"nfc6","trial_type":"survey-template","trial_index":2,"time_elapsed":60441,"internal_node_id":"0.0-2.0","experiment":"validation","task_version":"1.1","jspsych_version":"6.3.1","infrequency":0},{"responses":{"Q07":"3","Q11":"4","Q01":"3","Q06":"3","Q02":"0","Q05":"0","Q03":"1","Q04":"0","Q10":"1","Q09":"0","Q08":"1"},"rt":28640,"item_order":[6,10,0,5,1,4,2,3,9,8,7],"radio_events":[7343.300000190735,10080.200000286102,11945,15596,16541.300000190735,17459.200000286102,18903.400000095367,20631.300000190735,21861.099999904633,26035.400000095367,26776.5,28318.300000190735],"key_events":[],"mouse_events":[199,7343.300000190735,10080.200000286102,11945,14929.300000190735,15596,16541.300000190735,17459.200000286102,18318,18903.400000095367,20631.300000190735,21861.099999904633,23654.099999904633,25008.900000095367,26035.400000095367,26776.5,28318.300000190735,28639.200000286102],"straightlining":0.2727272727272727,"zigzagging":0.6,"honeypot":0,"survey":"neuroticism","trial_type":"survey-template","trial_index":3,"time_elapsed":89083,"internal_node_id":"0.0-3.0","experiment":"validation","task_version":"1.1","jspsych_version":"6.3.1","infrequency":0},{"responses":{"Q07":"3","Q01":"4","Q04":"1","Q05":"1","Q08":"3","Q06":"3","Q03":"3","Q09":"3","Q11":"0","Q02":"3","Q10":"3"},"rt":21554.099999904633,"item_order":[6,0,3,4,7,5,2,8,10,1,9],"radio_events":[1967.4000000953674,2341.5999999046326,3879.5999999046326,5530.599999904633,6922.299999713898,9086.699999809265,10385.5,13317.400000095367,15352.799999713898,16260.199999809265,18188.199999809265,20802.5],"key_events":[],"mouse_events":[1967.4000000953674,2341.5999999046326,3879.5999999046326,5530.599999904633,6922.299999713898,8357.599999904633,9086.699999809265,9993.5,10385.5,12114,13317.400000095367,14831.400000095367,15352.799999713898,16260.199999809265,18188.199999809265,18840.099999904633,19745.199999809265,20802.5,21553.299999713898],"straightlining":0.45454545454545453,"zigzagging":0.2,"honeypot":0,"survey":"openness","trial_type":"survey-template","trial_index":4,"time_elapsed":110639,"internal_node_id":"0.0-4.0","experiment":"validation","task_version":"1.1","jspsych_version":"6.3.1","infrequency":0},{"value":[0,1.155844155844156,1.1333333333333333],"trial_type":"call-function","trial_index":5,"time_elapsed":110640,"internal_node_id":"0.0-5.0","experiment":"validation","task_version":"1.1","jspsych_version":"6.3.1","interactions":"[]"}]