[{"view_history":[{"page_index":0,"viewing_time":4081.7999999970198}],"rt":4083,"trial_type":"instructions","trial_index":0,"time_elapsed":4097,"internal_node_id":"0.0-0.0","experiment":"validation","task_version":"1.1","jspsych_version":"6.3.1"},{"rt":14446.09999999404,"responses":{"age":"27","gender-categorical":"Female","gender-free-response":"","ethnicity":"Not Hispanic or Latino","race":["Black or African American"],"education":"Master degree or higher"},"survey":"demographics","trial_type":"survey-demo","trial_index":1,"time_elapsed":18549,"internal_node_id":"0.0-1.0","experiment":"validation","task_version":"1.1","jspsych_version":"6.3.1"},{"responses":{"Q05":"1","Q06":"1","Q04":"0","Q01":"0","Q07":"2","Q03":"1","Q02":"0"},"rt":57466.30000001192,"item_order":[4,5,3,0,6,2,1],"radio_events":[11133.300000011921,25776.20000000298,32584.30000001192,39076.10000000894,42666.80000001192,49065.20000000298,55850],"key_events":[],"mouse_events":[11133.300000011921,25776.20000000298,32584.30000001192,39076.10000000894,42666.80000001192,49065.20000000298,55850,57463.10000000894],"straightlining":0.2857142857142857,"zigzagging":0.3333333333333333,"honeypot":0,"survey":"nfc6","trial_type":"survey-template","trial_index":2,"time_elapsed":76023,"internal_node_id":"0.0-2.0","experiment":"validation","task_version":"1.1","jspsych_version":"6.3.1","infrequency":0},{"responses":{"Q04":"1","Q08":"0","Q11":"4","Q07":"0","Q02":"0","Q09":"0","Q10":"0","Q03":"0","Q01":"0","Q05":"0","Q06":"1"},"rt":33714.5,"item_order":[3,7,10,6,1,8,9,2,0,4,5],"radio_events":[3704.8999999910593,6318.29999999702,8184.70000000298,10619.79999999702,16157.59999999404,17070,21670.79999999702,23988.29999999702,26453.20000000298,27359,32732.39999999106],"key_events":[],"mouse_events":[3704.8999999910593,6318.29999999702,8184.70000000298,10619.79999999702,12684.20000000298,16157.59999999404,17070,21670.79999999702,23988.29999999702,26453.20000000298,27359,30423.09999999404,32732.39999999106,33708.70000000298],"straightlining":0.45454545454545453,"zigzagging":0.3,"honeypot":0,"survey":"neuroticism","trial_type":"survey-template","trial_index":3,"time_elapsed":109744,"internal_node_id":"0.0-3.0","experiment":"validation","task_version":"1.1","jspsych_version":"6.3.1","infrequency":0},{"responses":{"Q03":"4","Q07":"4","Q10":"4","Q11":"0","Q08":"1","Q09":"4","Q05":"2","Q02":"4","Q06":"2","Q01":"4","Q04":"2"},"rt":55091,"item_order":[2,6,9,10,7,8,4,1,5,0,3],"radio_events":[4692.0999999940395,6747.79999999702,9427.29999999702,14896.89999999106,20190.89999999106,23996,33261.79999999702,37516.69999998808,39603.59999999404,42590.79999999702,45725.5,53193.19999998808,54052.89999999106],"key_events":[],"mouse_events":[4692.0999999940395,6747.79999999702,9427.29999999702,14896.89999999106,20190.89999999106,23996,33261.79999999702,37516.69999998808,39603.59999999404,42590.79999999702,45725.5,53193.19999998808,54052.89999999106,55085.39999999106],"straightlining":0.36363636363636365,"zigzagging":0.1,"honeypot":0,"survey":"openness","trial_type":"survey-template","trial_index":4,"time_elapsed":164840,"internal_node_id":"0.0-4.0","experiment":"validation","task_version":"1.1","jspsych_version":"6.3.1","infrequency":0},{"value":[0,1.103896103896104,0.7333333333333333],"trial_type":"call-function","trial_index":5,"time_elapsed":164843,"internal_node_id":"0.0-5.0","experiment":"validation","task_version":"1.1","jspsych_version":"6.3.1","interactions":"[]"}]