[{"view_history":[{"page_index":0,"viewing_time":3260}],"rt":3260.600000143051,"trial_type":"instructions","trial_index":0,"time_elapsed":3345,"internal_node_id":"0.0-0.0","experiment":"validation","task_version":"2.0","jspsych_version":"6.3.1"},{"rt":19828.900000095367,"responses":{"age":"22","gender-categorical":"Other","gender-free-response":"non-binary","ethnicity":"Not Hispanic or Latino","race":["White"],"education":"Bachelor degree"},"survey":"demographics","trial_type":"survey-demo","trial_index":1,"time_elapsed":23177,"internal_node_id":"0.0-1.0","experiment":"validation","task_version":"2.0","jspsych_version":"6.3.1"},{"responses":{"Q02":"1","Q01":"2","Q08":"4","Q07":"2","Q06":"3","Q05":"3","Q03":"2","Q04":"4","Q09":"4"},"rt":121493.70000004768,"item_order":[1,0,7,6,5,4,2,3,8],"radio_events":[47069.799999952316,50035.60000014305,51996,101125.60000014305,106074.5,111656.5,114902.60000014305,119308.40000009537,120772.40000009537],"key_events":[],"mouse_events":[47069.799999952316,49004.40000009537,50035.60000014305,51107.700000047684,51996,101125.60000014305,104715.40000009537,105331.5,106074.5,110336.5,111656.5,114902.60000014305,117669.40000009537,118925.70000004768,119308.40000009537,120772.40000009537,121492.40000009537],"straightlining":0.3333333333333333,"zigzagging":0.5,"honeypot":0,"survey":"pcf","trial_type":"survey-template","trial_index":2,"time_elapsed":144676,"internal_node_id":"0.0-2.0","experiment":"validation","task_version":"2.0","jspsych_version":"6.3.1","infrequency":0},{"responses":{"Q07":"3","Q05":"4","Q09":"3","Q08":"3","Q01":"3","Q06":"3","Q11":"0","Q03":"3","Q04":"3","Q02":"3","Q10":"3"},"rt":305019.7999999523,"item_order":[6,4,8,7,0,5,10,2,3,1,9],"radio_events":[8207.599999904633,64511.799999952316,84238.09999990463,89003.59999990463,89858.59999990463,93984.5,140444.79999995232,144034.59999990463,214738.70000004768,246924.59999990463,303379.59999990463],"key_events":[],"mouse_events":[8207.599999904633,63838.59999990463,64511.799999952316,84238.09999990463,86548.59999990463,87387.59999990463,88491.59999990463,89003.59999990463,89858.59999990463,92345.5,93984.5,139612.89999985695,140444.79999995232,143202.59999990463,144034.59999990463,213563.59999990463,214738.70000004768,246924.59999990463,303379.59999990463,305018.59999990463],"straightlining":0.6363636363636364,"zigzagging":0.1,"honeypot":0,"survey":"nfc10","trial_type":"survey-template","trial_index":3,"time_elapsed":449699,"internal_node_id":"0.0-3.0","experiment":"validation","task_version":"2.0","jspsych_version":"6.3.1","infrequency":0},{"rt":67781.79999995232,"response":{"Q3":5,"Q5":3,"Q4":4,"Q6":3,"Q8":0,"Q0":4,"Q2":4,"Q1":1,"Q7":2},"question_order":[3,5,4,6,8,0,2,1,7],"survey":"sns","trial_type":"survey-likert","trial_index":4,"time_elapsed":517484,"internal_node_id":"0.0-4.0","experiment":"validation","task_version":"2.0","jspsych_version":"6.3.1","infrequency":0},{"value":0,"trial_type":"call-function","trial_index":5,"time_elapsed":517486,"internal_node_id":"0.0-5.0","experiment":"validation","task_version":"2.0","jspsych_version":"6.3.1","interactions":"[]"}]