[{"view_history":[{"page_index":0,"viewing_time":2048.2000002861023}],"rt":2048.9000000953674,"trial_type":"instructions","trial_index":0,"time_elapsed":2070,"internal_node_id":"0.0-0.0","experiment":"validation","task_version":"1.1","jspsych_version":"6.3.1"},{"rt":35193.7999997139,"responses":{"age":"27","gender-categorical":"Male","gender-free-response":"","ethnicity":"Not Hispanic or Latino","race":["White"],"education":"Bachelor degree"},"survey":"demographics","trial_type":"survey-demo","trial_index":1,"time_elapsed":37271,"internal_node_id":"0.0-1.0","experiment":"validation","task_version":"1.1","jspsych_version":"6.3.1"},{"responses":{"Q04":"1","Q02":"3","Q06":"2","Q01":"4","Q09":"2","Q07":"4","Q03":"4","Q08":"3","Q05":"1","Q11":"4","Q10":"4"},"rt":31980.5,"item_order":[3,1,5,0,8,6,2,7,4,10,9],"radio_events":[5917.400000095367,8459.300000190735,9940.800000190735,11124.800000190735,14013.800000190735,14905.800000190735,22104,23239,26831.800000190735,28391.800000190735,28572.599999904633,31108.199999809265],"key_events":[],"mouse_events":[5387.900000095367,5917.400000095367,7601.400000095367,8459.300000190735,9940.800000190735,11124.800000190735,13289.5,13679.400000095367,14013.800000190735,14905.800000190735,20531.300000190735,22104,23239,24591.300000190735,25175.900000095367,26831.800000190735,27974.199999809265,28391.800000190735,28572.599999904633,31108.199999809265,31978.5],"straightlining":0.2727272727272727,"zigzagging":0.3,"honeypot":0,"survey":"neuroticism","trial_type":"survey-template","trial_index":2,"time_elapsed":69265,"internal_node_id":"0.0-2.0","experiment":"validation","task_version":"1.1","jspsych_version":"6.3.1","infrequency":0},{"responses":{"Q03":"4","Q07":"2","Q01":"4","Q02":"4","Q05":"4","Q04":"4","Q06":"4"},"rt":17785,"item_order":[2,6,0,1,4,3,5],"radio_events":[3158.800000190735,4745.300000190735,7148.300000190735,7343.300000190735,8743.800000190735,10983.800000190735,14391.60000038147,16846.700000286102],"key_events":[],"mouse_events":[3158.800000190735,4745.300000190735,6604.60000038147,7148.300000190735,7343.300000190735,8743.800000190735,9739,10983.800000190735,14391.60000038147,16846.700000286102,17782.60000038147],"straightlining":0.5714285714285714,"zigzagging":0.3333333333333333,"honeypot":0,"survey":"nfc6","trial_type":"survey-template","trial_index":3,"time_elapsed":87057,"internal_node_id":"0.0-3.0","experiment":"validation","task_version":"1.1","jspsych_version":"6.3.1","infrequency":0},{"responses":{"Q10":"4","Q06":"4","Q08":"4","Q04":"1","Q11":"0","Q02":"4","Q09":"4","Q07":"4","Q03":"4","Q01":"4","Q05":"0"},"rt":54651.5,"item_order":[9,5,7,3,10,1,8,6,2,0,4],"radio_events":[36505.199999809265,37633.90000009537,40016.7999997139,41338.7999997139,42991.199999809265,44573.90000009537,47810.199999809265,48562.40000009537,50631.199999809265,52261.09999990463,53383.59999990463],"key_events":[],"mouse_events":[36505.199999809265,37633.90000009537,39000.2999997139,40016.7999997139,41338.7999997139,42991.199999809265,44252,44573.90000009537,47810.199999809265,48562.40000009537,50631.199999809265,51891.7999997139,52261.09999990463,53383.59999990463,54649.09999990463],"straightlining":0.5454545454545454,"zigzagging":0.3,"honeypot":0,"survey":"openness","trial_type":"survey-template","trial_index":4,"time_elapsed":141718,"internal_node_id":"0.0-4.0","experiment":"validation","task_version":"1.1","jspsych_version":"6.3.1","infrequency":0},{"value":[0,1.3896103896103895,0.9333333333333333],"trial_type":"call-function","trial_index":5,"time_elapsed":141726,"internal_node_id":"0.0-5.0","experiment":"validation","task_version":"1.1","jspsych_version":"6.3.1","interactions":"[{\"event\":\"blur\",\"trial\":1,\"time\":9013},{\"event\":\"focus\",\"trial\":1,\"time\":11830},{\"event\":\"blur\",\"trial\":1,\"time\":11834},{\"event\":\"focus\",\"trial\":1,\"time\":12954},{\"event\":\"blur\",\"trial\":1,\"time\":15461},{\"event\":\"focus\",\"trial\":1,\"time\":18330},{\"event\":\"blur\",\"trial\":1,\"time\":18351},{\"event\":\"focus\",\"trial\":1,\"time\":19105},{\"event\":\"blur\",\"trial\":1,\"time\":19554},{\"event\":\"focus\",\"trial\":1,\"time\":23708},{\"event\":\"blur\",\"trial\":1,\"time\":24701},{\"event\":\"focus\",\"trial\":1,\"time\":31106},{\"event\":\"blur\",\"trial\":2,\"time\":54354},{\"event\":\"focus\",\"trial\":2,\"time\":55285}]"}]