[{"view_history":[{"page_index":0,"viewing_time":2394.099999964237}],"rt":2395.099999964237,"trial_type":"instructions","trial_index":0,"time_elapsed":2397,"internal_node_id":"0.0-0.0","experiment":"validation","task_version":"1.1","jspsych_version":"6.3.1"},{"rt":22497.69999998808,"responses":{"age":"47","gender-categorical":"Male","gender-free-response":"","ethnicity":"Not Hispanic or Latino","race":["White"],"education":"Bachelor degree"},"survey":"demographics","trial_type":"survey-demo","trial_index":1,"time_elapsed":24901,"internal_node_id":"0.0-1.0","experiment":"validation","task_version":"1.1","jspsych_version":"6.3.1"},{"responses":{"Q07":"4","Q01":"4","Q10":"4","Q09":"3","Q11":"0","Q08":"4","Q03":"4","Q06":"4","Q02":"3","Q05":"1","Q04":"1"},"rt":51416,"item_order":[6,0,9,8,10,7,2,5,1,4,3],"radio_events":[10154.5,12284.5,15822.300000011921,21166.5,25795.899999976158,28097.399999976158,30413.099999964237,33390.39999997616,36837.80000001192,40587.5,45456.80000001192,47945,50613.19999998808],"key_events":[],"mouse_events":[1281,10154.5,12284.5,15822.300000011921,21166.5,25795.899999976158,28097.399999976158,30413.099999964237,33390.39999997616,36837.80000001192,40587.5,45456.80000001192,47945,50613.19999998808,51411.5],"straightlining":0.45454545454545453,"zigzagging":0.6,"honeypot":0,"survey":"openness","trial_type":"survey-template","trial_index":2,"time_elapsed":76325,"internal_node_id":"0.0-2.0","experiment":"validation","task_version":"1.1","jspsych_version":"6.3.1","infrequency":0},{"responses":{"Q06":"3","Q03":"3","Q04":"1","Q05":"1","Q08":"2","Q02":"1","Q11":"4","Q07":"3","Q10":"2","Q09":"2","Q01":"3"},"rt":30400.100000023842,"item_order":[5,2,3,4,7,1,10,6,9,8,0],"radio_events":[3222,5670.100000023842,8337.5,9462.699999988079,12114.5,14701.199999988079,17441.69999998808,20933.899999976158,23399.399999976158,27101.80000001192,29557.399999976158],"key_events":[],"mouse_events":[3222,5670.100000023842,7505.399999976158,8337.5,9462.699999988079,12114.5,14701.199999988079,17441.69999998808,20933.899999976158,23399.399999976158,27101.80000001192,29557.399999976158,30397.30000001192],"straightlining":0.45454545454545453,"zigzagging":0.4,"honeypot":0,"survey":"neuroticism","trial_type":"survey-template","trial_index":3,"time_elapsed":106728,"internal_node_id":"0.0-3.0","experiment":"validation","task_version":"1.1","jspsych_version":"6.3.1","infrequency":0},{"responses":{"Q06":"3","Q01":"2","Q02":"3","Q05":"3","Q03":"3","Q07":"2","Q04":"3"},"rt":34643.19999998808,"item_order":[5,0,1,4,2,6,3],"radio_events":[14031.199999988079,16781.099999964237,20526.69999998808,24054.299999952316,26156.299999952316,29012,33646.69999998808],"key_events":[],"mouse_events":[14031.199999988079,16781.099999964237,20526.69999998808,24054.299999952316,26156.299999952316,29012,33646.69999998808,34640.5],"straightlining":0.42857142857142855,"zigzagging":0.6666666666666666,"honeypot":0,"survey":"nfc6","trial_type":"survey-template","trial_index":4,"time_elapsed":141374,"internal_node_id":"0.0-4.0","experiment":"validation","task_version":"1.1","jspsych_version":"6.3.1","infrequency":0},{"value":[0,1.3376623376623376,1.6666666666666665],"trial_type":"call-function","trial_index":5,"time_elapsed":141378,"internal_node_id":"0.0-5.0","experiment":"validation","task_version":"1.1","jspsych_version":"6.3.1","interactions":"[]"}]