[{"view_history":[{"page_index":0,"viewing_time":3863.9000000059605}],"rt":3865.6000000089407,"trial_type":"instructions","trial_index":0,"time_elapsed":3890,"internal_node_id":"0.0-0.0","experiment":"validation","task_version":"1.1","jspsych_version":"6.3.1"},{"rt":16380.79999999702,"responses":{"age":"26","gender-categorical":"Rather not say","gender-free-response":"","ethnicity":"Rather not say","race":["Black or African American"],"education":"Bachelor degree"},"survey":"demographics","trial_type":"survey-demo","trial_index":1,"time_elapsed":20280,"internal_node_id":"0.0-1.0","experiment":"validation","task_version":"1.1","jspsych_version":"6.3.1"},{"responses":{"Q03":"3","Q04":"2","Q06":"3","Q05":"3","Q01":"2","Q02":"2","Q07":"2"},"rt":45014.20000000298,"item_order":[2,3,5,4,0,1,6],"radio_events":[3970,9171.20000000298,20612.20000000298,27602.79999999702,29665.79999999702,42249.09999999404,43840.79999999702],"key_events":[],"mouse_events":[3970,9171.20000000298,20612.20000000298,24724.5,27602.79999999702,29665.79999999702,42249.09999999404,43840.79999999702,45011.09999999404],"straightlining":0.5714285714285714,"zigzagging":0.5,"honeypot":0,"survey":"nfc6","trial_type":"survey-template","trial_index":2,"time_elapsed":65319,"internal_node_id":"0.0-2.0","experiment":"validation","task_version":"1.1","jspsych_version":"6.3.1","infrequency":0},{"responses":{"Q10":"1","Q03":"1","Q06":"1","Q01":"1","Q07":"1","Q11":"4","Q09":"1","Q02":"0","Q05":"1","Q04":"1","Q08":"1"},"rt":64710.70000000298,"item_order":[9,2,5,0,6,10,8,1,4,3,7],"radio_events":[8724.70000000298,10974.79999999702,12963.20000000298,21816.29999999702,23015.90000000596,25847.70000000298,42362.20000000298,45287.70000000298,49116.20000000298,51771.20000000298,53880.79999999702],"key_events":[],"mouse_events":[8724.70000000298,10974.79999999702,12963.20000000298,21816.29999999702,23015.90000000596,25847.70000000298,42362.20000000298,44506.29999999702,45287.70000000298,49116.20000000298,51771.20000000298,53880.79999999702,64705.5],"straightlining":0.45454545454545453,"zigzagging":0.3,"honeypot":0,"survey":"neuroticism","trial_type":"survey-template","trial_index":3,"time_elapsed":130048,"internal_node_id":"0.0-3.0","experiment":"validation","task_version":"1.1","jspsych_version":"6.3.1","infrequency":0},{"responses":{"Q04":"0","Q05":"0","Q01":"4","Q11":"0","Q07":"4","Q06":"4","Q10":"4","Q09":"4","Q02":"3","Q08":"4","Q03":"4"},"rt":25622.5,"item_order":[3,4,0,10,6,5,9,8,1,7,2],"radio_events":[7333.9000000059605,8434,9602.5,11101.800000011921,12861.5,14770.20000000298,17355.30000001192,18837.90000000596,21153.60000000894,23050.90000000596,24798.60000000894],"key_events":[],"mouse_events":[7333.9000000059605,8434,9602.5,11101.800000011921,12861.5,14770.20000000298,17355.30000001192,18837.90000000596,20331.5,21153.60000000894,23050.90000000596,24798.60000000894,25619.5],"straightlining":0.5454545454545454,"zigzagging":0.2,"honeypot":0,"survey":"openness","trial_type":"survey-template","trial_index":4,"time_elapsed":155687,"internal_node_id":"0.0-4.0","experiment":"validation","task_version":"1.1","jspsych_version":"6.3.1","infrequency":0},{"value":[0,1.5714285714285714,1],"trial_type":"call-function","trial_index":5,"time_elapsed":155698,"internal_node_id":"0.0-5.0","experiment":"validation","task_version":"1.1","jspsych_version":"6.3.1","interactions":"[{\"event\":\"blur\",\"trial\":2,\"time\":33079},{\"event\":\"focus\",\"trial\":2,\"time\":34186}]"}]