[{"view_history":[{"page_index":0,"viewing_time":6452.10000038147}],"rt":6452.900000572205,"trial_type":"instructions","trial_index":0,"time_elapsed":6481,"internal_node_id":"0.0-0.0","experiment":"validation","task_version":"2.0","jspsych_version":"6.3.1"},{"rt":10053.300000190735,"responses":{"age":"21","gender-categorical":"Female","gender-free-response":"","ethnicity":"Not Hispanic or Latino","race":["White"],"education":"Bachelor degree"},"survey":"demographics","trial_type":"survey-demo","trial_index":1,"time_elapsed":16537,"internal_node_id":"0.0-1.0","experiment":"validation","task_version":"2.0","jspsych_version":"6.3.1"},{"responses":{"Q08":"3","Q09":"4","Q05":"3","Q02":"3","Q04":"3","Q03":"3","Q06":"3","Q07":"3","Q01":"3"},"rt":40670.5,"item_order":[7,8,4,1,3,2,5,6,0],"radio_events":[5027.39999961853,7290.5,10554.39999961853,16667.89999961853,23288.89999961853,27575,29709.099999427795,33811.79999923706,36873.29999923706,38026.89999961853,40021.599999427795],"key_events":[],"mouse_events":[5027.39999961853,7290.5,9889.39999961853,10554.39999961853,16667.89999961853,23288.89999961853,27475.5,27575,29709.099999427795,33811.79999923706,36873.29999923706,38026.89999961853,39923.5,40021.599999427795,40666.199999809265],"straightlining":0.8888888888888888,"zigzagging":0,"honeypot":0,"survey":"pcf","trial_type":"survey-template","trial_index":2,"time_elapsed":57217,"internal_node_id":"0.0-2.0","experiment":"validation","task_version":"2.0","jspsych_version":"6.3.1","infrequency":0},{"rt":110094.4000005722,"response":{"Q1":2,"Q3":3,"Q8":0,"Q6":2,"Q5":3,"Q2":1,"Q0":3,"Q7":4,"Q4":3},"question_order":[1,3,8,6,5,2,0,7,4],"survey":"sns","trial_type":"survey-likert","trial_index":3,"time_elapsed":167326,"internal_node_id":"0.0-3.0","experiment":"validation","task_version":"2.0","jspsych_version":"6.3.1","infrequency":0},{"responses":{"Q10":"3","Q11":"0","Q07":"3","Q09":"3","Q01":"1","Q03":"1","Q02":"1","Q04":"1","Q06":"1","Q05":"3","Q08":"1"},"rt":102920,"item_order":[9,10,6,8,0,2,1,3,5,4,7],"radio_events":[39823.800000190735,48672.800000190735,55485.900000572205,60057,62955,64070,64885.800000190735,70454.19999980927,82446.4000005722,90268.4000005722,93150,99094.9000005722,102385.5],"key_events":[],"mouse_events":[39823.800000190735,48672.800000190735,55485.900000572205,60057,62955,64070,64885.800000190735,70454.19999980927,82446.4000005722,88668.9000005722,89419.9000005722,89820.80000019073,90268.4000005722,93150,99094.9000005722,102385.5,102915.80000019073],"straightlining":0.45454545454545453,"zigzagging":0,"honeypot":0,"survey":"nfc10","trial_type":"survey-template","trial_index":4,"time_elapsed":270254,"internal_node_id":"0.0-4.0","experiment":"validation","task_version":"2.0","jspsych_version":"6.3.1","infrequency":0},{"value":0,"trial_type":"call-function","trial_index":5,"time_elapsed":270259,"internal_node_id":"0.0-5.0","experiment":"validation","task_version":"2.0","jspsych_version":"6.3.1","interactions":"[{\"event\":\"blur\",\"trial\":3,\"time\":90516},{\"event\":\"focus\",\"trial\":3,\"time\":90909},{\"event\":\"blur\",\"trial\":3,\"time\":162092},{\"event\":\"focus\",\"trial\":3,\"time\":163795}]"}]