[{"view_history":[{"page_index":0,"viewing_time":9306.900000000373}],"rt":9307.5,"trial_type":"instructions","trial_index":0,"time_elapsed":9326,"internal_node_id":"0.0-0.0","experiment":"validation","task_version":"1.1","jspsych_version":"6.3.1"},{"rt":15462.900000000373,"responses":{"age":"30","gender-categorical":"Female","gender-free-response":"","ethnicity":"Not Hispanic or Latino","race":["White"],"education":"Some college"},"survey":"demographics","trial_type":"survey-demo","trial_index":1,"time_elapsed":24792,"internal_node_id":"0.0-1.0","experiment":"validation","task_version":"1.1","jspsych_version":"6.3.1"},{"responses":{"Q03":"3","Q02":"3","Q01":"3","Q10":"1","Q05":"1","Q08":"2","Q06":"1","Q04":"2","Q07":"2","Q11":"4","Q09":"1"},"rt":43563.40000000037,"item_order":[2,1,0,9,4,7,5,3,6,10,8],"radio_events":[7225.800000000745,10761.900000000373,15737.700000001118,17513.800000000745,19658.099999999627,24593.700000001118,26186.099999999627,28697.700000001118,30569.700000001118,34249.90000000037,40177.300000000745],"key_events":[],"mouse_events":[7225.800000000745,10761.900000000373,12617.800000000745,15737.700000001118,17513.800000000745,19658.099999999627,24593.700000001118,26186.099999999627,28697.700000001118,30569.700000001118,34249.90000000037,35274.09999999963,40177.300000000745,43561.90000000037],"straightlining":0.5454545454545454,"zigzagging":0.4,"honeypot":0,"survey":"neuroticism","trial_type":"survey-template","trial_index":2,"time_elapsed":68359,"internal_node_id":"0.0-2.0","experiment":"validation","task_version":"1.1","jspsych_version":"6.3.1","infrequency":0},{"responses":{"Q03":"4","Q10":"4","Q01":"4","Q11":"0","Q08":"4","Q04":"0","Q05":"0","Q06":"4","Q09":"4","Q02":"4","Q07":"4"},"rt":30556.800000000745,"item_order":[2,9,0,10,7,3,4,5,8,1,6],"radio_events":[4995.0999999996275,6571.4000000003725,9643.400000000373,11971.099999999627,15819.5,17147.599999999627,22187.800000000745,23747.699999999255,26315.800000000745,27787.400000000373,29099.599999999627],"key_events":[],"mouse_events":[4995.0999999996275,6571.4000000003725,9643.400000000373,11971.099999999627,15819.5,17147.599999999627,21395.300000000745,22187.800000000745,23747.699999999255,26315.800000000745,27787.400000000373,29099.599999999627,30555.599999999627],"straightlining":0.5454545454545454,"zigzagging":0.7,"honeypot":0,"survey":"openness","trial_type":"survey-template","trial_index":3,"time_elapsed":98918,"internal_node_id":"0.0-3.0","experiment":"validation","task_version":"1.1","jspsych_version":"6.3.1","infrequency":0},{"responses":{"Q04":"3","Q06":"3","Q05":"3","Q07":"2","Q02":"3","Q03":"4","Q01":"3"},"rt":35668.89999999851,"item_order":[3,5,4,6,1,2,0],"radio_events":[8436.299999998882,15772.099999999627,21380.299999998882,23228.099999999627,26852.599999999627,31108.099999999627,34548.09999999963],"key_events":[],"mouse_events":[8436.299999998882,15772.099999999627,21380.299999998882,23228.099999999627,26852.599999999627,30476.099999999627,31108.099999999627,34548.09999999963,35668.09999999963],"straightlining":0.5714285714285714,"zigzagging":0.3333333333333333,"honeypot":0,"survey":"nfc6","trial_type":"survey-template","trial_index":4,"time_elapsed":134590,"internal_node_id":"0.0-4.0","experiment":"validation","task_version":"1.1","jspsych_version":"6.3.1","infrequency":0},{"value":[0,1.6623376623376622,1.4333333333333333],"trial_type":"call-function","trial_index":5,"time_elapsed":134591,"internal_node_id":"0.0-5.0","experiment":"validation","task_version":"1.1","jspsych_version":"6.3.1","interactions":"[]"}]