[{"view_history":[{"page_index":0,"viewing_time":2030.1000000238419}],"rt":2030.2000000476837,"trial_type":"instructions","trial_index":0,"time_elapsed":2058,"internal_node_id":"0.0-0.0","experiment":"validation","task_version":"1.1","jspsych_version":"6.3.1"},{"rt":34194,"responses":{"age":"40","gender-categorical":"Male","gender-free-response":"","ethnicity":"Not Hispanic or Latino","race":["White"],"education":"Bachelor degree"},"survey":"demographics","trial_type":"survey-demo","trial_index":1,"time_elapsed":36254,"internal_node_id":"0.0-1.0","experiment":"validation","task_version":"1.1","jspsych_version":"6.3.1"},{"responses":{"Q01":"3","Q06":"3","Q03":"3","Q02":"3","Q05":"3","Q07":"2","Q04":"3"},"rt":52283.10000002384,"item_order":[0,5,2,1,4,6,3],"radio_events":[5242.5,8494.199999988079,14224.199999988079,19444,24936.19999998808,31546.30000001192,39668.10000002384,47092],"key_events":[],"mouse_events":[5242.5,8494.199999988079,14224.199999988079,19444,24016.600000023842,24936.19999998808,31546.30000001192,39668.10000002384,47092,52282],"straightlining":0.5714285714285714,"zigzagging":0.3333333333333333,"honeypot":0,"survey":"nfc6","trial_type":"survey-template","trial_index":2,"time_elapsed":88541,"internal_node_id":"0.0-2.0","experiment":"validation","task_version":"1.1","jspsych_version":"6.3.1","infrequency":0},{"responses":{"Q09":"4","Q03":"4","Q04":"1","Q02":"3","Q10":"4","Q11":"0","Q05":"1","Q08":"3","Q06":"4","Q01":"4","Q07":"4"},"rt":44619,"item_order":[8,2,3,1,9,10,4,7,5,0,6],"radio_events":[6182,9345.5,13655.599999964237,17965.69999998808,21001.69999998808,23499.80000001192,31125.69999998808,33569.89999997616,36173.69999998808,38827.69999998808,43065.69999998808],"key_events":[],"mouse_events":[6182,9345.5,13655.599999964237,17965.69999998808,21001.69999998808,23499.80000001192,31125.69999998808,33569.89999997616,36173.69999998808,38827.69999998808,41549.69999998808,43065.69999998808,44618],"straightlining":0.45454545454545453,"zigzagging":0.5,"honeypot":0,"survey":"openness","trial_type":"survey-template","trial_index":3,"time_elapsed":133163,"internal_node_id":"0.0-3.0","experiment":"validation","task_version":"1.1","jspsych_version":"6.3.1","infrequency":0},{"responses":{"Q08":"1","Q05":"1","Q02":"1","Q03":"0","Q01":"0","Q07":"1","Q10":"2","Q06":"3","Q11":"4","Q09":"3","Q04":"0"},"rt":55851.5,"item_order":[7,4,1,2,0,6,9,5,10,8,3],"radio_events":[3274.5,7274.299999952316,8212.399999976158,10922.5,13832.5,16032.299999952316,21716.299999952316,36016.5,39685.69999998808,43728.39999997616,49572.299999952316,54398.89999997616],"key_events":[],"mouse_events":[3274.5,7274.299999952316,8212.399999976158,10922.5,13832.5,16032.299999952316,21716.299999952316,36016.5,39685.69999998808,43728.39999997616,45906.299999952316,49572.299999952316,51412.39999997616,52430.299999952316,54398.89999997616,55850.39999997616],"straightlining":0.36363636363636365,"zigzagging":0.4,"honeypot":0,"survey":"neuroticism","trial_type":"survey-template","trial_index":4,"time_elapsed":189017,"internal_node_id":"0.0-4.0","experiment":"validation","task_version":"1.1","jspsych_version":"6.3.1","infrequency":0},{"value":[0,1.3896103896103895,1.2333333333333334],"trial_type":"call-function","trial_index":5,"time_elapsed":189018,"internal_node_id":"0.0-5.0","experiment":"validation","task_version":"1.1","jspsych_version":"6.3.1","interactions":"[]"}]