[{"view_history":[{"page_index":0,"viewing_time":3257.2000000476837}],"rt":3257.7000000476837,"trial_type":"instructions","trial_index":0,"time_elapsed":3293,"internal_node_id":"0.0-0.0","experiment":"validation","task_version":"1.1","jspsych_version":"6.3.1"},{"rt":10222.399999976158,"responses":{"age":"22","gender-categorical":"Female","gender-free-response":"","ethnicity":"Not Hispanic or Latino","race":["White"],"education":"Bachelor degree"},"survey":"demographics","trial_type":"survey-demo","trial_index":1,"time_elapsed":13520,"internal_node_id":"0.0-1.0","experiment":"validation","task_version":"1.1","jspsych_version":"6.3.1"},{"responses":{"Q08":"1","Q02":"1","Q05":"3","Q11":"4","Q01":"1","Q06":"3","Q10":"3","Q04":"3","Q07":"3","Q03":"1","Q09":"3"},"rt":27885.899999976158,"item_order":[7,1,4,10,0,5,9,3,6,2,8],"radio_events":[4190.5,6482,8066.899999976158,9567.100000023842,15238,16887.100000023842,19232.800000071526,21024,22470.100000023842,24349.5,26576.600000023842],"key_events":[],"mouse_events":[4190.5,6482,8066.899999976158,9567.100000023842,14307,15238,16887.100000023842,19232.800000071526,21024,22470.100000023842,24349.5,26576.600000023842,27883.399999976158],"straightlining":0.6363636363636364,"zigzagging":0.1,"honeypot":0,"survey":"neuroticism","trial_type":"survey-template","trial_index":2,"time_elapsed":41415,"internal_node_id":"0.0-2.0","experiment":"validation","task_version":"1.1","jspsych_version":"6.3.1","infrequency":0},{"responses":{"Q01":"1","Q06":"3","Q07":"2","Q02":"1","Q05":"1","Q03":"1","Q04":"1"},"rt":26484.399999976158,"item_order":[0,5,6,1,4,2,3],"radio_events":[5718.899999976158,7162.5,11734.5,14051.5,17713.100000023842,19977.199999928474,22411.799999952316,24994.399999976158],"key_events":[],"mouse_events":[5718.899999976158,7162.5,11734.5,14051.5,17713.100000023842,19977.199999928474,22411.799999952316,24994.399999976158,26482.600000023842],"straightlining":0.42857142857142855,"zigzagging":0.3333333333333333,"honeypot":0,"survey":"nfc6","trial_type":"survey-template","trial_index":3,"time_elapsed":67908,"internal_node_id":"0.0-3.0","experiment":"validation","task_version":"1.1","jspsych_version":"6.3.1","infrequency":0},{"responses":{"Q08":"0","Q10":"3","Q11":"0","Q01":"1","Q06":"1","Q09":"0","Q07":"3","Q05":"1","Q03":"3","Q02":"1","Q04":"3"},"rt":80211.40000009537,"item_order":[7,9,10,0,5,8,6,4,2,1,3],"radio_events":[50405.10000002384,52203.700000047684,53906,57092.90000009537,58654.300000071526,60512.10000002384,63594.300000071526,66839.30000007153,72794.70000004768,73751.5,78942.10000002384],"key_events":[],"mouse_events":[50405.10000002384,52203.700000047684,53906,55861.700000047684,57092.90000009537,58654.300000071526,60512.10000002384,63594.300000071526,65251.90000009537,66839.30000007153,69151.70000004768,71678.10000002384,72794.70000004768,73751.5,75060,78942.10000002384,80209],"straightlining":0.45454545454545453,"zigzagging":0.3,"honeypot":0,"survey":"openness","trial_type":"survey-template","trial_index":4,"time_elapsed":148126,"internal_node_id":"0.0-4.0","experiment":"validation","task_version":"1.1","jspsych_version":"6.3.1","infrequency":0},{"value":[0,1.5194805194805194,0.7333333333333334],"trial_type":"call-function","trial_index":5,"time_elapsed":148131,"internal_node_id":"0.0-5.0","experiment":"validation","task_version":"1.1","jspsych_version":"6.3.1","interactions":"[]"}]