[{"view_history":[{"page_index":0,"viewing_time":3989.2000000029802}],"rt":3989.5,"trial_type":"instructions","trial_index":0,"time_elapsed":3998,"internal_node_id":"0.0-0.0","experiment":"validation","task_version":"1.1","jspsych_version":"6.3.1"},{"rt":14563.39999999106,"responses":{"age":"36","gender-categorical":"Male","gender-free-response":"","ethnicity":"Hispanic or Latino","race":["White"],"education":"Bachelor degree"},"survey":"demographics","trial_type":"survey-demo","trial_index":1,"time_elapsed":18563,"internal_node_id":"0.0-1.0","experiment":"validation","task_version":"1.1","jspsych_version":"6.3.1"},{"responses":{"Q08":"0","Q07":"1","Q04":"3","Q09":"2","Q03":"1","Q06":"3","Q01":"1","Q02":"0","Q10":"1","Q11":"4","Q05":"1"},"rt":46898.29999999702,"item_order":[7,6,3,8,2,5,0,1,9,10,4],"radio_events":[10209.29999999702,13541.5,14505.40000000596,16209.10000000894,19789.40000000596,22697.40000000596,26841,29053.40000000596,32425.29999999702,37653.40000000596,39817.40000000596,42077.29999999702,45297.40000000596],"key_events":[5373.100000008941,10209.29999999702,11973.40000000596,13541.5,14505.40000000596,16209.10000000894,19789.40000000596,21345.10000000894,22697.40000000596,25861.20000000298,26841,29053.40000000596,32425.29999999702,36133.90000000596,37653.40000000596,39817.40000000596,42077.29999999702,45297.40000000596,46897.40000000596],"mouse_events":[],"straightlining":0.36363636363636365,"zigzagging":0.5,"honeypot":0,"survey":"neuroticism","trial_type":"survey-template","trial_index":2,"time_elapsed":65464,"internal_node_id":"0.0-2.0","experiment":"validation","task_version":"1.1","jspsych_version":"6.3.1","infrequency":0},{"responses":{"Q02":"3","Q07":"2","Q03":"4","Q01":"3","Q04":"3","Q05":"3","Q06":"3"},"rt":35014.79999999702,"item_order":[1,6,2,0,3,4,5],"radio_events":[7849.5,10805.40000000596,16965.5,18201.20000000298,22501,29729.20000000298,33429.40000000596],"key_events":[5781.4000000059605,7849.5,9989.5,10805.40000000596,13081.5,14553.29999999702,15037.20000000298,16965.5,18201.20000000298,21597.40000000596,22501,27061.79999999702,28453.29999999702,29729.20000000298,33429.40000000596,34678.40000000596,35014.29999999702],"mouse_events":[],"straightlining":0.5714285714285714,"zigzagging":0.16666666666666666,"honeypot":0,"survey":"nfc6","trial_type":"survey-template","trial_index":3,"time_elapsed":100480,"internal_node_id":"0.0-3.0","experiment":"validation","task_version":"1.1","jspsych_version":"6.3.1","infrequency":0},{"responses":{"Q09":"3","Q01":"3","Q04":"1","Q02":"3","Q11":"0","Q07":"3","Q03":"2","Q08":"3","Q10":"2","Q05":"1","Q06":"3"},"rt":39181.70000000298,"item_order":[8,0,3,1,10,6,2,7,9,4,5],"radio_events":[3796.800000011921,7264.70000000298,10773.20000000298,13562.10000000894,15645.300000011921,21716.90000000596,25624.90000000596,28821.20000000298,31400.90000000596,35577.10000000894,38285.30000001192],"key_events":[3796.800000011921,7264.70000000298,10773.20000000298,12584.800000011921,13562.10000000894,15645.300000011921,21716.90000000596,24721.20000000298,25624.90000000596,28821.20000000298,31400.90000000596,35577.10000000894,38285.30000001192,39181],"mouse_events":[],"straightlining":0.36363636363636365,"zigzagging":0.5,"honeypot":0,"survey":"openness","trial_type":"survey-template","trial_index":4,"time_elapsed":139663,"internal_node_id":"0.0-4.0","experiment":"validation","task_version":"1.1","jspsych_version":"6.3.1","infrequency":0},{"value":[0,1.2987012987012987,1.1666666666666665],"trial_type":"call-function","trial_index":5,"time_elapsed":139665,"internal_node_id":"0.0-5.0","experiment":"validation","task_version":"1.1","jspsych_version":"6.3.1","interactions":"[{\"event\":\"blur\",\"trial\":1,\"time\":14475},{\"event\":\"focus\",\"trial\":1,\"time\":15491},{\"event\":\"blur\",\"trial\":2,\"time\":20642},{\"event\":\"focus\",\"trial\":2,\"time\":23794},{\"event\":\"focus\",\"trial\":2,\"time\":23794}]"}]