[{"view_history":[{"page_index":0,"viewing_time":1658.5}],"rt":1659.2999999998137,"trial_type":"instructions","trial_index":0,"time_elapsed":1689,"internal_node_id":"0.0-0.0","experiment":"validation","task_version":"1.1","jspsych_version":"6.3.1"},{"rt":11770,"responses":{"age":"19","gender-categorical":"Female","gender-free-response":"","ethnicity":"Not Hispanic or Latino","race":["Asian","White"],"education":"Some college"},"survey":"demographics","trial_type":"survey-demo","trial_index":1,"time_elapsed":13469,"internal_node_id":"0.0-1.0","experiment":"validation","task_version":"1.1","jspsych_version":"6.3.1"},{"responses":{"Q06":"4","Q05":"1","Q08":"1","Q07":"3","Q10":"2","Q01":"2","Q11":"4","Q09":"3","Q03":"2","Q02":"1","Q04":"3"},"rt":48518.799999999814,"item_order":[5,4,7,6,9,0,10,8,2,1,3],"radio_events":[2438.2999999998137,7667,8505.799999999814,10669.5,13818,21507.5,22955.60000000056,26967.400000000373,32395,34786.40000000037,35672.5,37665.5,41230.299999999814,46117,47930.40000000037],"key_events":[],"mouse_events":[2438.2999999998137,5434.4000000003725,6923.4000000003725,7667,8505.799999999814,10669.5,13818,20522.799999999814,21507.5,22955.60000000056,26967.400000000373,32395,34786.40000000037,35672.5,36992.299999999814,37665.5,40262.200000000186,41230.299999999814,44482.10000000056,45189.200000000186,46117,47930.40000000037,48514.60000000056],"straightlining":0.36363636363636365,"zigzagging":0.4,"honeypot":0,"survey":"neuroticism","trial_type":"survey-template","trial_index":2,"time_elapsed":62008,"internal_node_id":"0.0-2.0","experiment":"validation","task_version":"1.1","jspsych_version":"6.3.1","infrequency":0},{"responses":{"Q04":"3","Q01":"3","Q07":"2","Q03":"4","Q02":"3","Q05":"2","Q06":"1"},"rt":44583.200000000186,"item_order":[3,0,6,2,1,4,5],"radio_events":[5969.600000000559,10008.100000000559,11883.100000000559,13841.100000000559,17242.10000000056,22916.5,35051.5,43372],"key_events":[],"mouse_events":[5969.600000000559,10008.100000000559,11883.100000000559,13841.100000000559,17242.10000000056,21336.900000000373,22916.5,31203.200000000186,35051.5,43372,44581],"straightlining":0.2857142857142857,"zigzagging":0.5,"honeypot":0,"survey":"nfc6","trial_type":"survey-template","trial_index":3,"time_elapsed":106603,"internal_node_id":"0.0-3.0","experiment":"validation","task_version":"1.1","jspsych_version":"6.3.1","infrequency":0},{"responses":{"Q06":"4","Q05":"0","Q01":"4","Q04":"0","Q11":"0","Q02":"3","Q07":"4","Q09":"4","Q10":"4","Q03":"4","Q08":"4"},"rt":28835.599999999627,"item_order":[5,4,0,3,10,1,6,8,9,2,7],"radio_events":[1772.2999999998137,4857.0999999996275,5351.5999999996275,11080,13712.099999999627,16624.099999999627,18926.200000000186,22484.099999999627,23934,26022.099999999627,27952],"key_events":[],"mouse_events":[1772.2999999998137,3139,4074.2000000001863,4857.0999999996275,5351.5999999996275,9067.200000000186,11080,12076.299999999814,12853.700000000186,13712.099999999627,16624.099999999627,18926.200000000186,20609.299999999814,22484.099999999627,23934,26022.099999999627,27952,28832.5],"straightlining":0.5454545454545454,"zigzagging":0.4,"honeypot":0,"survey":"openness","trial_type":"survey-template","trial_index":4,"time_elapsed":135451,"internal_node_id":"0.0-4.0","experiment":"validation","task_version":"1.1","jspsych_version":"6.3.1","infrequency":0},{"value":[0,1.1948051948051948,1.3],"trial_type":"call-function","trial_index":5,"time_elapsed":135462,"internal_node_id":"0.0-5.0","experiment":"validation","task_version":"1.1","jspsych_version":"6.3.1","interactions":"[]"}]