[{"view_history":[{"page_index":0,"viewing_time":1822.2000000029802}],"rt":1822.6000000089407,"trial_type":"instructions","trial_index":0,"time_elapsed":1831,"internal_node_id":"0.0-0.0","experiment":"validation","task_version":"1.1","jspsych_version":"6.3.1"},{"rt":21332.40000000596,"responses":{"age":"18","gender-categorical":"Male","gender-free-response":"","ethnicity":"Hispanic or Latino","race":["Asian","Black or African American"],"education":"Some college"},"survey":"demographics","trial_type":"survey-demo","trial_index":1,"time_elapsed":23165,"internal_node_id":"0.0-1.0","experiment":"validation","task_version":"1.1","jspsych_version":"6.3.1"},{"responses":{"Q04":"0","Q11":"0","Q08":"3","Q03":"4","Q01":"4","Q07":"4","Q09":"4","Q02":"4","Q05":"0","Q06":"4","Q10":"4"},"rt":45747.70000000298,"item_order":[3,10,7,2,0,6,8,1,4,5,9],"radio_events":[8667.40000000596,14719.09999999404,19233.59999999404,20507,23068.5,25875,27772.79999999702,30733.59999999404,33623.59999999404,35197.09999999404,38146.09999999404,40376.79999999702],"key_events":[],"mouse_events":[8667.40000000596,14719.09999999404,19233.59999999404,20507,23068.5,25875,27772.79999999702,30733.59999999404,33623.59999999404,35197.09999999404,38146.09999999404,40376.79999999702,45744],"straightlining":0.45454545454545453,"zigzagging":0.5,"honeypot":0,"survey":"openness","trial_type":"survey-template","trial_index":2,"time_elapsed":68916,"internal_node_id":"0.0-2.0","experiment":"validation","task_version":"1.1","jspsych_version":"6.3.1","infrequency":0},{"responses":{"Q08":"0","Q01":"2","Q09":"1","Q04":"0","Q07":"1","Q11":"4","Q02":"0","Q10":"0","Q03":"1","Q06":"2","Q05":"2"},"rt":37419.29999999702,"item_order":[7,0,8,3,6,10,1,9,2,5,4],"radio_events":[6426.600000008941,8489.79999999702,11249.70000000298,14087.79999999702,15843.29999999702,18468.5,22280,24913.90000000596,26202.10000000894,31596.20000000298,33943.40000000596,36482.20000000298],"key_events":[],"mouse_events":[6426.600000008941,8489.79999999702,11249.70000000298,14087.79999999702,15843.29999999702,18468.5,22280,24913.90000000596,26202.10000000894,31596.20000000298,33943.40000000596,36482.20000000298,37415.90000000596],"straightlining":0.2727272727272727,"zigzagging":0.5,"honeypot":0,"survey":"neuroticism","trial_type":"survey-template","trial_index":3,"time_elapsed":106337,"internal_node_id":"0.0-3.0","experiment":"validation","task_version":"1.1","jspsych_version":"6.3.1","infrequency":0},{"responses":{"Q03":"4","Q02":"3","Q05":"3","Q06":"3","Q04":"4","Q07":"2","Q01":"3"},"rt":68768.60000000894,"item_order":[2,1,4,5,3,6,0],"radio_events":[35756.10000000894,42389.70000000298,48207.30000001192,50366.30000001192,56169.20000000298,60468.70000000298,64209.90000000596,67674.30000001192],"key_events":[],"mouse_events":[35756.10000000894,42389.70000000298,48207.30000001192,50366.30000001192,56169.20000000298,60468.70000000298,64209.90000000596,67674.30000001192,68765.80000001192],"straightlining":0.5714285714285714,"zigzagging":0.16666666666666666,"honeypot":0,"survey":"nfc6","trial_type":"survey-template","trial_index":4,"time_elapsed":175106,"internal_node_id":"0.0-4.0","experiment":"validation","task_version":"1.1","jspsych_version":"6.3.1","infrequency":0},{"value":[0,1.2987012987012987,1.1666666666666667],"trial_type":"call-function","trial_index":5,"time_elapsed":175109,"internal_node_id":"0.0-5.0","experiment":"validation","task_version":"1.1","jspsych_version":"6.3.1","interactions":"[]"}]