[{"view_history":[{"page_index":0,"viewing_time":3658.5}],"rt":3658.7999999523163,"trial_type":"instructions","trial_index":0,"time_elapsed":3680,"internal_node_id":"0.0-0.0","experiment":"validation","task_version":"2.0","jspsych_version":"6.3.1"},{"rt":7734.900000095367,"responses":{"age":"19","gender-categorical":"Male","gender-free-response":"","ethnicity":"Not Hispanic or Latino","race":["Asian"],"education":"Some college"},"survey":"demographics","trial_type":"survey-demo","trial_index":1,"time_elapsed":11416,"internal_node_id":"0.0-1.0","experiment":"validation","task_version":"2.0","jspsych_version":"6.3.1"},{"rt":127068.89999985695,"response":{"Q6":0,"Q7":5,"Q0":3,"Q1":3,"Q2":4,"Q4":4,"Q8":0,"Q3":2,"Q5":4},"question_order":[6,7,0,1,2,4,8,3,5],"survey":"sns","trial_type":"survey-likert","trial_index":2,"time_elapsed":138488,"internal_node_id":"0.0-2.0","experiment":"validation","task_version":"2.0","jspsych_version":"6.3.1","infrequency":0},{"responses":{"Q05":"0","Q06":"1","Q04":"0","Q07":"3","Q08":"2","Q03":"1","Q01":"0","Q02":"1","Q09":"4"},"rt":88116.60000014305,"item_order":[4,5,3,6,7,2,0,1,8],"radio_events":[7011.700000047684,7651.700000047684,26875.60000014305,28851.60000014305,30755.700000047684,32139.60000014305,51419.60000014305,54587.799999952316,56020,57923.60000014305],"key_events":[],"mouse_events":[2763.600000143051,4275.600000143051,7011.700000047684,7651.700000047684,25323.5,25883.5,26547.60000014305,26875.60000014305,28211.700000047684,28851.60000014305,29899.60000014305,30443.700000047684,30755.700000047684,31747.60000014305,32139.60000014305,51419.60000014305,52515.700000047684,53131.700000047684,54587.799999952316,56020,57923.60000014305,88115.70000004768],"straightlining":0.4444444444444444,"zigzagging":0.875,"honeypot":0,"survey":"pcf","trial_type":"survey-template","trial_index":3,"time_elapsed":226609,"internal_node_id":"0.0-3.0","experiment":"validation","task_version":"2.0","jspsych_version":"6.3.1","infrequency":0},{"responses":{"Q08":"1","Q02":"0","Q07":"3","Q09":"3","Q10":"4","Q03":"3","Q04":"3","Q11":"0","Q06":"3","Q05":"3","Q01":"4"},"rt":64837,"item_order":[7,1,6,8,9,2,3,10,5,4,0],"radio_events":[17044.099999904633,21572.099999904633,22588,25587.900000095367,28420,30036,30692.099999904633,52228,55380.09999990463,59140,62620.09999990463,64140.09999990463],"key_events":[],"mouse_events":[3620,17044.099999904633,19860.299999952316,20860,21572.099999904633,22588,24604.400000095367,25036,25587.900000095367,26052,27436,28068,28420,30036,30459.900000095367,30692.099999904633,51300.40000009537,51684,52228,53835.90000009537,54540.09999990463,55380.09999990463,59140,62620.09999990463,64140.09999990463,64836.200000047684],"straightlining":0.36363636363636365,"zigzagging":0.3,"honeypot":0,"survey":"nfc10","trial_type":"survey-template","trial_index":4,"time_elapsed":291449,"internal_node_id":"0.0-4.0","experiment":"validation","task_version":"2.0","jspsych_version":"6.3.1","infrequency":0},{"value":0,"trial_type":"call-function","trial_index":5,"time_elapsed":291451,"internal_node_id":"0.0-5.0","experiment":"validation","task_version":"2.0","jspsych_version":"6.3.1","interactions":"[{\"event\":\"blur\",\"trial\":2,\"time\":30225},{\"event\":\"focus\",\"trial\":2,\"time\":57459},{\"event\":\"blur\",\"trial\":2,\"time\":67896},{\"event\":\"focus\",\"trial\":2,\"time\":69495},{\"event\":\"blur\",\"trial\":2,\"time\":75400},{\"event\":\"focus\",\"trial\":2,\"time\":95146},{\"event\":\"blur\",\"trial\":2,\"time\":99008},{\"event\":\"focus\",\"trial\":2,\"time\":130242},{\"event\":\"blur\",\"trial\":2,\"time\":134553},{\"event\":\"focus\",\"trial\":2,\"time\":138371},{\"event\":\"blur\",\"trial\":3,\"time\":146897},{\"event\":\"focus\",\"trial\":3,\"time\":163731},{\"event\":\"blur\",\"trial\":3,\"time\":171425},{\"event\":\"focus\",\"trial\":3,\"time\":189763},{\"event\":\"blur\",\"trial\":3,\"time\":202561},{\"event\":\"focus\",\"trial\":3,\"time\":226515},{\"event\":\"blur\",\"trial\":4,\"time\":233249},{\"event\":\"focus\",\"trial\":4,\"time\":239946},{\"event\":\"blur\",\"trial\":4,\"time\":263281},{\"event\":\"focus\",\"trial\":4,\"time\":277747}]"}]