[{"view_history":[{"page_index":0,"viewing_time":2895.60000000149}],"rt":2896,"trial_type":"instructions","trial_index":0,"time_elapsed":2931,"internal_node_id":"0.0-0.0","experiment":"validation","task_version":"2.0","jspsych_version":"6.3.1"},{"rt":15197.79999999702,"responses":{"age":"37","gender-categorical":"Male","gender-free-response":"","ethnicity":"Not Hispanic or Latino","race":["White"],"education":"Bachelor degree"},"survey":"demographics","trial_type":"survey-demo","trial_index":1,"time_elapsed":18133,"internal_node_id":"0.0-1.0","experiment":"validation","task_version":"2.0","jspsych_version":"6.3.1"},{"responses":{"Q09":"4","Q07":"4","Q05":"3","Q04":"3","Q02":"3","Q01":"3","Q03":"3","Q08":"4","Q06":"4"},"rt":22115.79999999702,"item_order":[8,6,4,3,1,0,2,7,5],"radio_events":[5998.39999999851,7414.10000000149,9418.10000000149,10452.10000000149,14638.69999999553,15288.10000000149,15898.89999999851,20846.10000000149,21222.79999999702],"key_events":[],"mouse_events":[5998.39999999851,7414.10000000149,9418.10000000149,10452.10000000149,12824.19999999553,13566.19999999553,14638.69999999553,15288.10000000149,15898.89999999851,16980.10000000149,18310.10000000149,18936.10000000149,19977.10000000149,20846.10000000149,21222.79999999702,22114.10000000149],"straightlining":0.5555555555555556,"zigzagging":0.375,"honeypot":0,"survey":"pcf","trial_type":"survey-template","trial_index":2,"time_elapsed":40253,"internal_node_id":"0.0-2.0","experiment":"validation","task_version":"2.0","jspsych_version":"6.3.1","infrequency":0},{"rt":31496.09999999404,"response":{"Q7":5,"Q3":4,"Q8":0,"Q5":4,"Q2":4,"Q6":1,"Q1":4,"Q4":5,"Q0":4},"question_order":[7,3,8,5,2,6,1,4,0],"survey":"sns","trial_type":"survey-likert","trial_index":3,"time_elapsed":71755,"internal_node_id":"0.0-3.0","experiment":"validation","task_version":"2.0","jspsych_version":"6.3.1","infrequency":0},{"responses":{"Q09":"3","Q03":"3","Q08":"3","Q06":"2","Q02":"3","Q11":"0","Q05":"3","Q04":"3","Q07":"3","Q10":"3","Q01":"3"},"rt":39481.90000000596,"item_order":[8,2,7,5,1,10,4,3,6,9,0],"radio_events":[5894.4000000059605,6584.20000000298,8790.30000000447,12696.30000000447,14770.30000000447,20750.30000000447,27598.40000000596,30462.5,35354.20000000298,37344.20000000298,38228.20000000298],"key_events":[],"mouse_events":[5026.20000000298,5894.4000000059605,6584.20000000298,8790.30000000447,12696.30000000447,14770.30000000447,20750.30000000447,27598.40000000596,30462.5,35354.20000000298,37344.20000000298,38228.20000000298,39480.20000000298],"straightlining":0.5454545454545454,"zigzagging":0.3,"honeypot":0,"survey":"nfc10","trial_type":"survey-template","trial_index":4,"time_elapsed":111242,"internal_node_id":"0.0-4.0","experiment":"validation","task_version":"2.0","jspsych_version":"6.3.1","infrequency":0},{"value":0,"trial_type":"call-function","trial_index":5,"time_elapsed":111244,"internal_node_id":"0.0-5.0","experiment":"validation","task_version":"2.0","jspsych_version":"6.3.1","interactions":"[]"}]