[{"view_history":[{"page_index":0,"viewing_time":3211.300000000745}],"rt":3211.39999999851,"trial_type":"instructions","trial_index":0,"time_elapsed":3219,"internal_node_id":"0.0-0.0","experiment":"validation","task_version":"1.1","jspsych_version":"6.3.1"},{"rt":10020.89999999851,"responses":{"age":"47","gender-categorical":"Male","gender-free-response":"","ethnicity":"Not Hispanic or Latino","race":["White"],"education":"High school"},"survey":"demographics","trial_type":"survey-demo","trial_index":1,"time_elapsed":13242,"internal_node_id":"0.0-1.0","experiment":"validation","task_version":"1.1","jspsych_version":"6.3.1"},{"responses":{"Q09":"1","Q06":"3","Q03":"4","Q01":"3","Q07":"3","Q02":"4","Q04":"0","Q10":"4","Q08":"3","Q11":"0","Q05":"0"},"rt":34778.29999999702,"item_order":[8,5,2,0,6,1,3,9,7,10,4],"radio_events":[4507.599999997765,8923.5,13689.699999999255,17085.5,19279.599999997765,20107.29999999702,23555.39999999851,26885.5,29401.5,31701.39999999851,34185.5],"key_events":[],"mouse_events":[4507.599999997765,7313.599999997765,8923.5,12911.699999999255,13689.699999999255,16223.39999999851,17085.5,18331.5,19279.599999997765,20107.29999999702,23555.39999999851,26481.5,26885.5,29401.5,31701.39999999851,34185.5,34777.39999999851],"straightlining":0.36363636363636365,"zigzagging":0.5,"honeypot":0,"survey":"openness","trial_type":"survey-template","trial_index":2,"time_elapsed":48022,"internal_node_id":"0.0-2.0","experiment":"validation","task_version":"1.1","jspsych_version":"6.3.1","infrequency":0},{"responses":{"Q01":"2","Q02":"3","Q06":"3","Q04":"3","Q07":"2","Q03":"4","Q05":"3"},"rt":30501.70000000298,"item_order":[0,1,5,3,6,2,4],"radio_events":[6989.10000000149,15895.10000000149,16751.300000000745,21697.20000000298,24151.400000002235,26829.20000000298,29537.10000000149],"key_events":[],"mouse_events":[6989.10000000149,15421.20000000298,15895.10000000149,16751.300000000745,21697.20000000298,24151.400000002235,26829.20000000298,29537.10000000149,30085,30501.20000000298],"straightlining":0.42857142857142855,"zigzagging":0.3333333333333333,"honeypot":0,"survey":"nfc6","trial_type":"survey-template","trial_index":3,"time_elapsed":78526,"internal_node_id":"0.0-3.0","experiment":"validation","task_version":"1.1","jspsych_version":"6.3.1","infrequency":0},{"responses":{"Q05":"0","Q03":"1","Q09":"0","Q10":"0","Q11":"4","Q07":"0","Q08":"0","Q01":"0","Q06":"1","Q02":"0","Q04":"0"},"rt":30374.79999999702,"item_order":[4,2,8,9,10,6,7,0,5,1,3],"radio_events":[3756,8351.89999999851,11056.199999999255,13879.89999999851,14577.79999999702,17039.79999999702,19184,20925.89999999851,25003.89999999851,26277.79999999702,29488],"key_events":[],"mouse_events":[3756,8351.89999999851,11056.199999999255,12618,13879.89999999851,14577.79999999702,17039.79999999702,19184,20925.89999999851,25003.89999999851,26277.79999999702,28815.699999999255,29488,30373.89999999851],"straightlining":0.45454545454545453,"zigzagging":0.2,"honeypot":0,"survey":"neuroticism","trial_type":"survey-template","trial_index":4,"time_elapsed":108903,"internal_node_id":"0.0-4.0","experiment":"validation","task_version":"1.1","jspsych_version":"6.3.1","infrequency":0},{"value":[0,1.2467532467532467,1.0333333333333332],"trial_type":"call-function","trial_index":5,"time_elapsed":108904,"internal_node_id":"0.0-5.0","experiment":"validation","task_version":"1.1","jspsych_version":"6.3.1","interactions":"[]"}]