[{"view_history":[{"page_index":0,"viewing_time":60389.40000003576}],"rt":60390.30000001192,"trial_type":"instructions","trial_index":0,"time_elapsed":60397,"internal_node_id":"0.0-0.0","experiment":"validation","task_version":"1.1","jspsych_version":"6.3.1"},{"rt":16386,"responses":{"age":"53","gender-categorical":"Female","gender-free-response":"","ethnicity":"Not Hispanic or Latino","race":["White"],"education":"Bachelor degree"},"survey":"demographics","trial_type":"survey-demo","trial_index":1,"time_elapsed":76787,"internal_node_id":"0.0-1.0","experiment":"validation","task_version":"1.1","jspsych_version":"6.3.1"},{"responses":{"Q06":"3","Q02":"2","Q03":"3","Q05":"3","Q07":"2","Q01":"3","Q04":"3"},"rt":30877.600000023842,"item_order":[5,1,2,4,6,0,3],"radio_events":[8984.100000023842,13570.800000011921,15690.300000011921,20415.399999976158,22747.5,26268.5,29942.899999976158],"key_events":[],"mouse_events":[8984.100000023842,13570.800000011921,15690.300000011921,20415.399999976158,22747.5,26268.5,29942.899999976158,30875.100000023842],"straightlining":0.42857142857142855,"zigzagging":0.6666666666666666,"honeypot":0,"survey":"nfc6","trial_type":"survey-template","trial_index":2,"time_elapsed":107671,"internal_node_id":"0.0-2.0","experiment":"validation","task_version":"1.1","jspsych_version":"6.3.1","infrequency":0},{"responses":{"Q06":"4","Q10":"4","Q11":"0","Q07":"4","Q08":"4","Q05":"4","Q02":"4","Q03":"3","Q04":"0","Q01":"4","Q09":"2"},"rt":28792.799999952316,"item_order":[5,9,10,6,7,4,1,2,3,0,8],"radio_events":[2592.699999988079,4832.299999952316,6990.699999988079,9168.599999964237,11344.599999964237,13333.099999964237,15326.899999976158,19074.19999998808,21569.299999952316,22955.399999976158,27233.19999998808],"key_events":[],"mouse_events":[2592.699999988079,4832.299999952316,6990.699999988079,9168.599999964237,11344.599999964237,13333.099999964237,15326.899999976158,18336.69999998808,19074.19999998808,21569.299999952316,22955.399999976158,27233.19999998808,28789.799999952316],"straightlining":0.5454545454545454,"zigzagging":0.3,"honeypot":0,"survey":"openness","trial_type":"survey-template","trial_index":3,"time_elapsed":136469,"internal_node_id":"0.0-3.0","experiment":"validation","task_version":"1.1","jspsych_version":"6.3.1","infrequency":0},{"responses":{"Q09":"3","Q11":"4","Q08":"1","Q10":"3","Q02":"3","Q01":"4","Q07":"4","Q03":"4","Q06":"1","Q04":"3","Q05":"0"},"rt":37612.39999997616,"item_order":[8,10,7,9,1,0,6,2,5,3,4],"radio_events":[3924.5,8882.600000023842,14721.5,17136.69999998808,20030.30000001192,21624,24059.19999998808,26355,30606.399999976158,34040.5,36048.89999997616],"key_events":[],"mouse_events":[3924.5,5690.100000023842,8882.600000023842,14721.5,17136.69999998808,20030.30000001192,21624,24059.19999998808,26355,30606.399999976158,34040.5,36048.89999997616,37609.19999998808],"straightlining":0.36363636363636365,"zigzagging":0.5,"honeypot":0,"survey":"neuroticism","trial_type":"survey-template","trial_index":4,"time_elapsed":174087,"internal_node_id":"0.0-4.0","experiment":"validation","task_version":"1.1","jspsych_version":"6.3.1","infrequency":0},{"value":[0,1.3376623376623376,1.4666666666666666],"trial_type":"call-function","trial_index":5,"time_elapsed":174092,"internal_node_id":"0.0-5.0","experiment":"validation","task_version":"1.1","jspsych_version":"6.3.1","interactions":"[]"}]