[{"view_history":[{"page_index":0,"viewing_time":20112.30000001192}],"rt":20113.19999998808,"trial_type":"instructions","trial_index":0,"time_elapsed":20216,"internal_node_id":"0.0-0.0","experiment":"validation","task_version":"2.0","jspsych_version":"6.3.1"},{"rt":23742.299999952316,"responses":{"age":"19","gender-categorical":"Female","gender-free-response":"","ethnicity":"Not Hispanic or Latino","race":["Asian"],"education":"Some college"},"survey":"demographics","trial_type":"survey-demo","trial_index":1,"time_elapsed":43977,"internal_node_id":"0.0-1.0","experiment":"validation","task_version":"2.0","jspsych_version":"6.3.1"},{"responses":{"Q04":"2","Q07":"2","Q08":"4","Q03":"4","Q05":"4","Q06":"3","Q09":"4","Q02":"1","Q01":"1"},"rt":29515.19999998808,"item_order":[3,6,7,2,4,5,8,1,0],"radio_events":[5433.5,5953.300000011921,6474.900000035763,8417.400000035763,12041.400000035763,12609.400000035763,16985.100000023842,18681.400000035763,24706,25425.19999998808,26433.19999998808,28665.100000023842],"key_events":[],"mouse_events":[3706.199999988079,5433.5,5953.300000011921,6474.900000035763,8417.400000035763,10153.400000035763,11345.400000035763,12041.400000035763,12609.400000035763,16985.100000023842,18681.400000035763,22657.400000035763,24706,25425.19999998808,26433.19999998808,27473.30000001192,28665.100000023842,29513.19999998808],"straightlining":0.3333333333333333,"zigzagging":0.25,"honeypot":0,"survey":"pcf","trial_type":"survey-template","trial_index":2,"time_elapsed":73498,"internal_node_id":"0.0-2.0","experiment":"validation","task_version":"2.0","jspsych_version":"6.3.1","infrequency":0},{"responses":{"Q07":"3","Q08":"1","Q06":"1","Q10":"1","Q03":"1","Q11":"0","Q09":"3","Q04":"1","Q05":"1","Q02":"3","Q01":"1"},"rt":98339,"item_order":[6,7,5,9,2,10,8,3,4,1,0],"radio_events":[67009.5,67577.5,68369.5,73697.19999998808,76977.30000001192,80065.30000001192,82737.59999996424,87857.19999998808,90609.39999997616,94865,96081.09999996424,97385.59999996424],"key_events":[],"mouse_events":[58223.59999996424,62553.59999996424,63171.30000001192,63721.5,64249.69999998808,65865.30000001192,66305.39999997616,67009.5,67577.5,68369.5,73697.19999998808,74929.39999997616,75929.19999998808,76449.09999996424,76977.30000001192,78249.19999998808,78993.39999997616,80065.30000001192,82737.59999996424,87857.19999998808,90609.39999997616,92177.19999998808,93001.39999997616,93585.09999996424,94281,94865,96081.09999996424,97385.59999996424,98337.19999998808],"straightlining":0.5454545454545454,"zigzagging":0,"honeypot":0,"survey":"nfc10","trial_type":"survey-template","trial_index":3,"time_elapsed":171842,"internal_node_id":"0.0-3.0","experiment":"validation","task_version":"2.0","jspsych_version":"6.3.1","infrequency":0},{"rt":39145.89999997616,"response":{"Q4":5,"Q8":0,"Q1":4,"Q6":0,"Q5":5,"Q7":5,"Q2":4,"Q0":3,"Q3":4},"question_order":[4,8,1,6,5,7,2,0,3],"survey":"sns","trial_type":"survey-likert","trial_index":4,"time_elapsed":210994,"internal_node_id":"0.0-4.0","experiment":"validation","task_version":"2.0","jspsych_version":"6.3.1","infrequency":0},{"value":0,"trial_type":"call-function","trial_index":5,"time_elapsed":210996,"internal_node_id":"0.0-5.0","experiment":"validation","task_version":"2.0","jspsych_version":"6.3.1","interactions":"[{\"event\":\"blur\",\"trial\":0,\"time\":5814},{\"event\":\"focus\",\"trial\":0,\"time\":8164},{\"event\":\"blur\",\"trial\":0,\"time\":9238},{\"event\":\"focus\",\"trial\":0,\"time\":19188},{\"event\":\"blur\",\"trial\":1,\"time\":34108},{\"event\":\"focus\",\"trial\":1,\"time\":34875},{\"event\":\"blur\",\"trial\":1,\"time\":36097},{\"event\":\"focus\",\"trial\":1,\"time\":42461},{\"event\":\"blur\",\"trial\":3,\"time\":75155},{\"event\":\"focus\",\"trial\":3,\"time\":75776},{\"event\":\"blur\",\"trial\":3,\"time\":76423},{\"event\":\"focus\",\"trial\":3,\"time\":120641},{\"event\":\"blur\",\"trial\":3,\"time\":121525},{\"event\":\"focus\",\"trial\":3,\"time\":131722},{\"event\":\"blur\",\"trial\":4,\"time\":179834},{\"event\":\"focus\",\"trial\":4,\"time\":180483},{\"event\":\"blur\",\"trial\":4,\"time\":181194},{\"event\":\"focus\",\"trial\":4,\"time\":189678}]"}]