[{"view_history":[{"page_index":0,"viewing_time":1782.3999999761581}],"rt":1782.7000000476837,"trial_type":"instructions","trial_index":0,"time_elapsed":1796,"internal_node_id":"0.0-0.0","experiment":"validation","task_version":"1.1","jspsych_version":"6.3.1"},{"rt":10556,"responses":{"age":"48","gender-categorical":"Female","gender-free-response":"","ethnicity":"Not Hispanic or Latino","race":["White"],"education":"Bachelor degree"},"survey":"demographics","trial_type":"survey-demo","trial_index":1,"time_elapsed":12356,"internal_node_id":"0.0-1.0","experiment":"validation","task_version":"1.1","jspsych_version":"6.3.1"},{"responses":{"Q03":"0","Q04":"0","Q02":"0","Q01":"0","Q09":"1","Q08":"0","Q05":"0","Q06":"4","Q10":"1","Q11":"4","Q07":"0"},"rt":46211.89999997616,"item_order":[2,3,1,0,8,7,4,5,9,10,6],"radio_events":[9522.099999904633,10939.899999976158,14343.899999976158,15723.799999952316,18979.599999904633,25727.399999976158,31321.799999952316,33167.59999990463,35809.799999952316,38425.699999928474,40809.59999990463,42859.59999990463,45445.59999990463],"key_events":[],"mouse_events":[9522.099999904633,10939.899999976158,12575.699999928474,13751.899999976158,14343.899999976158,15723.799999952316,18979.599999904633,25103.699999928474,25727.399999976158,31321.799999952316,33167.59999990463,35809.799999952316,38425.699999928474,40809.59999990463,42859.59999990463,45445.59999990463,46209.799999952316],"straightlining":0.5454545454545454,"zigzagging":0.3,"honeypot":0,"survey":"neuroticism","trial_type":"survey-template","trial_index":2,"time_elapsed":58573,"internal_node_id":"0.0-2.0","experiment":"validation","task_version":"1.1","jspsych_version":"6.3.1","infrequency":0},{"responses":{"Q08":"4","Q04":"0","Q11":"0","Q02":"4","Q01":"4","Q07":"4","Q05":"0","Q03":"4","Q06":"4","Q10":"4","Q09":"4"},"rt":26989.199999928474,"item_order":[7,3,10,1,0,6,4,2,5,9,8],"radio_events":[6273.399999976158,8851.299999952316,10175.399999976158,12629.299999952316,13587.299999952316,14967.299999952316,18355.199999928474,19539.299999952316,23567.299999952316,24501.100000023842,25539.299999952316],"key_events":[],"mouse_events":[4177.299999952316,6273.399999976158,8851.299999952316,10175.399999976158,12629.299999952316,13587.299999952316,14967.299999952316,18355.199999928474,19539.299999952316,22001.100000023842,23567.299999952316,24501.100000023842,25539.299999952316,26987.299999952316],"straightlining":0.5454545454545454,"zigzagging":0.6,"honeypot":0,"survey":"openness","trial_type":"survey-template","trial_index":3,"time_elapsed":85566,"internal_node_id":"0.0-3.0","experiment":"validation","task_version":"1.1","jspsych_version":"6.3.1","infrequency":0},{"responses":{"Q02":"4","Q03":"4","Q05":"4","Q06":"4","Q04":"2","Q07":"2","Q01":"4"},"rt":38431.60000002384,"item_order":[1,2,4,5,3,6,0],"radio_events":[13814,16042.5,19056.399999976158,23442.300000071526,27134.399999976158,30166.300000071526,34746.300000071526,37730.200000047684],"key_events":[],"mouse_events":[13814,16042.5,19056.399999976158,23442.300000071526,27134.399999976158,30166.300000071526,34746.300000071526,37730.200000047684,38430.39999997616],"straightlining":0.5714285714285714,"zigzagging":0.3333333333333333,"honeypot":0,"survey":"nfc6","trial_type":"survey-template","trial_index":4,"time_elapsed":124001,"internal_node_id":"0.0-4.0","experiment":"validation","task_version":"1.1","jspsych_version":"6.3.1","infrequency":0},{"value":[0,1.6623376623376622,1.2333333333333332],"trial_type":"call-function","trial_index":5,"time_elapsed":124004,"internal_node_id":"0.0-5.0","experiment":"validation","task_version":"1.1","jspsych_version":"6.3.1","interactions":"[]"}]