[{"view_history":[{"page_index":0,"viewing_time":2698.100000143051}],"rt":2698.2999999523163,"trial_type":"instructions","trial_index":0,"time_elapsed":2734,"internal_node_id":"0.0-0.0","experiment":"validation","task_version":"1.1","jspsych_version":"6.3.1"},{"rt":10789.100000143051,"responses":{"age":"39","gender-categorical":"Male","gender-free-response":"","ethnicity":"Not Hispanic or Latino","race":["White"],"education":"Bachelor degree"},"survey":"demographics","trial_type":"survey-demo","trial_index":1,"time_elapsed":13525,"internal_node_id":"0.0-1.0","experiment":"validation","task_version":"1.1","jspsych_version":"6.3.1"},{"responses":{"Q06":"4","Q08":"4","Q01":"3","Q05":"0","Q11":"0","Q10":"3","Q07":"3","Q03":"3","Q04":"1","Q02":"4","Q09":"3"},"rt":33427.200000047684,"item_order":[5,7,0,4,10,9,6,2,3,1,8],"radio_events":[5401.5,6634.5,8473.799999952316,11157.299999952316,13876,16340.299999952316,18957.900000095367,22390,23627.799999952316,26038.299999952316,32117.900000095367],"key_events":[],"mouse_events":[5401.5,6634.5,8473.799999952316,9662.100000143051,11157.299999952316,13876,16340.299999952316,18957.900000095367,20041.60000014305,21436,22390,23627.799999952316,25232.10000014305,26038.299999952316,28067.60000014305,31009.400000095367,32117.900000095367,33426],"straightlining":0.2727272727272727,"zigzagging":0.4,"honeypot":0,"survey":"openness","trial_type":"survey-template","trial_index":2,"time_elapsed":46957,"internal_node_id":"0.0-2.0","experiment":"validation","task_version":"1.1","jspsych_version":"6.3.1","infrequency":0},{"responses":{"Q06":"4","Q07":"2","Q03":"3","Q04":"4","Q01":"4","Q02":"3","Q05":"4"},"rt":25427,"item_order":[5,6,2,3,0,1,4],"radio_events":[3101.899999856949,6620,9019.799999952316,13250.099999904633,15232.200000047684,20306,22794,24751.799999952316],"key_events":[],"mouse_events":[3101.899999856949,6620,9019.799999952316,13250.099999904633,15232.200000047684,20306,22794,24751.799999952316,25426.200000047684],"straightlining":0.42857142857142855,"zigzagging":0.8333333333333334,"honeypot":0,"survey":"nfc6","trial_type":"survey-template","trial_index":3,"time_elapsed":72386,"internal_node_id":"0.0-3.0","experiment":"validation","task_version":"1.1","jspsych_version":"6.3.1","infrequency":0},{"responses":{"Q09":"3","Q06":"1","Q05":"0","Q02":"1","Q10":"1","Q08":"1","Q01":"1","Q07":"1","Q04":"1","Q03":"1","Q11":"4"},"rt":30355.599999904633,"item_order":[8,5,4,1,9,7,0,6,3,2,10],"radio_events":[3118.2000000476837,7744.299999952316,9912.599999904633,11608.799999952316,13770.5,14954.299999952316,17906.39999985695,19686.599999904633,24614.5,26520.200000047684,29122.39999985695],"key_events":[],"mouse_events":[3118.2000000476837,7744.299999952316,9912.599999904633,11608.799999952316,13770.5,14954.299999952316,17906.39999985695,19686.599999904633,23816.599999904633,24614.5,26520.200000047684,29122.39999985695,30354.599999904633],"straightlining":0.45454545454545453,"zigzagging":0.1,"honeypot":0,"survey":"neuroticism","trial_type":"survey-template","trial_index":4,"time_elapsed":102744,"internal_node_id":"0.0-4.0","experiment":"validation","task_version":"1.1","jspsych_version":"6.3.1","infrequency":0},{"value":[0,1.155844155844156,1.3333333333333335],"trial_type":"call-function","trial_index":5,"time_elapsed":102746,"internal_node_id":"0.0-5.0","experiment":"validation","task_version":"1.1","jspsych_version":"6.3.1","interactions":"[]"}]