[{"view_history":[{"page_index":0,"viewing_time":3681}],"rt":3682,"trial_type":"instructions","trial_index":0,"time_elapsed":3686,"internal_node_id":"0.0-0.0","experiment":"validation","task_version":"2.0","jspsych_version":"6.3.1"},{"rt":32232,"responses":{"age":"25","gender-categorical":"Male","gender-free-response":"","ethnicity":"Not Hispanic or Latino","race":["White"],"education":"Master degree or higher"},"survey":"demographics","trial_type":"survey-demo","trial_index":1,"time_elapsed":35922,"internal_node_id":"0.0-1.0","experiment":"validation","task_version":"2.0","jspsych_version":"6.3.1"},{"responses":{"Q04":"3","Q06":"2","Q10":"3","Q09":"3","Q01":"3","Q05":"3","Q02":"3","Q11":"0","Q07":"2","Q08":"3","Q03":"4"},"rt":72153.00000000001,"item_order":[3,5,9,8,0,4,1,10,6,7,2],"radio_events":[9079.000000000007,9798,12920,13603,19115,19574,21890.000000000007,22660,27517,27782,32144,32428,38665,39631,46165,46473,52923,53082,67611.00000000001,67781.00000000001,70952,71131],"key_events":[],"mouse_events":[9079.000000000007,9798,12920,13603,19115,19574,21890.000000000007,22660,27517,27782,32144,32428,37623.000000000015,38147,38665,39631,46165,46473,52923,53082,67611.00000000001,67781.00000000001,70952,71131,72141.00000000001],"straightlining":0.45454545454545453,"zigzagging":0.3,"honeypot":0,"survey":"nfc10","trial_type":"survey-template","trial_index":2,"time_elapsed":108080,"internal_node_id":"0.0-2.0","experiment":"validation","task_version":"2.0","jspsych_version":"6.3.1","infrequency":0},{"rt":50856.999999999985,"response":{"Q6":1,"Q0":4,"Q8":0,"Q2":4,"Q1":4,"Q5":3,"Q7":5,"Q4":3,"Q3":5},"question_order":[6,0,8,2,1,5,7,4,3],"survey":"sns","trial_type":"survey-likert","trial_index":3,"time_elapsed":158944,"internal_node_id":"0.0-3.0","experiment":"validation","task_version":"2.0","jspsych_version":"6.3.1","infrequency":0},{"responses":{"Q05":"2","Q07":"3","Q01":"3","Q03":"3","Q08":"4","Q09":"4","Q02":"3","Q06":"3","Q04":"3"},"rt":33925,"item_order":[4,6,0,2,7,8,1,5,3],"radio_events":[5879,6169,8421,8608,11600,11786.00000000003,15220,15399,18000,18141,21608.00000000003,21774,25836,25999,28695,28858.00000000003,32849,32995.00000000003],"key_events":[],"mouse_events":[5879,6169,8421,8608,11600,11786.00000000003,15220,15399,18000,18141,21608.00000000003,21774,25836,25999,28695,28858.00000000003,32849,32995.00000000003,33916],"straightlining":0.6666666666666666,"zigzagging":0.375,"honeypot":0,"survey":"pcf","trial_type":"survey-template","trial_index":4,"time_elapsed":192875,"internal_node_id":"0.0-4.0","experiment":"validation","task_version":"2.0","jspsych_version":"6.3.1","infrequency":0},{"value":0,"trial_type":"call-function","trial_index":5,"time_elapsed":192878,"internal_node_id":"0.0-5.0","experiment":"validation","task_version":"2.0","jspsych_version":"6.3.1","interactions":"[{\"event\":\"blur\",\"trial\":1,\"time\":27983},{\"event\":\"focus\",\"trial\":1,\"time\":27985},{\"event\":\"blur\",\"trial\":1,\"time\":32300},{\"event\":\"focus\",\"trial\":1,\"time\":32304}]"}]