[{"view_history":[{"page_index":0,"viewing_time":1875.0999999996275}],"rt":1875.5,"trial_type":"instructions","trial_index":0,"time_elapsed":1889,"internal_node_id":"0.0-0.0","experiment":"validation","task_version":"2.0","jspsych_version":"6.3.1"},{"rt":9402.399999999907,"responses":{"age":"24","gender-categorical":"Female","gender-free-response":"","ethnicity":"Not Hispanic or Latino","race":["Asian"],"education":"Master degree or higher"},"survey":"demographics","trial_type":"survey-demo","trial_index":1,"time_elapsed":11297,"internal_node_id":"0.0-1.0","experiment":"validation","task_version":"2.0","jspsych_version":"6.3.1"},{"responses":{"Q09":"4","Q08":"3","Q06":"3","Q07":"4","Q02":"4","Q03":"3","Q04":"3","Q05":"1","Q01":"4"},"rt":37017.5,"item_order":[8,7,5,6,1,2,3,4,0],"radio_events":[1976.1000000000931,8699.30000000028,15000.900000000373,18503.80000000028,19684.700000000186,26075.5,27839.100000000093,30006.80000000028,36026.10000000009],"key_events":[],"mouse_events":[1976.1000000000931,7640.200000000186,8106.9000000003725,8699.30000000028,12230,13633.5,15000.900000000373,18503.80000000028,19684.700000000186,23729.600000000093,24918.600000000093,26075.5,27839.100000000093,30006.80000000028,35039.40000000037,36026.10000000009,37012.700000000186],"straightlining":0.4444444444444444,"zigzagging":0.25,"honeypot":0,"survey":"pcf","trial_type":"survey-template","trial_index":2,"time_elapsed":48321,"internal_node_id":"0.0-2.0","experiment":"validation","task_version":"2.0","jspsych_version":"6.3.1","infrequency":0},{"rt":39713,"response":{"Q7":5,"Q3":4,"Q1":2,"Q0":2,"Q6":1,"Q4":4,"Q5":4,"Q2":2,"Q8":0},"question_order":[7,3,1,0,6,4,5,2,8],"survey":"sns","trial_type":"survey-likert","trial_index":3,"time_elapsed":88039,"internal_node_id":"0.0-3.0","experiment":"validation","task_version":"2.0","jspsych_version":"6.3.1","infrequency":0},{"responses":{"Q04":"3","Q10":"2","Q07":"4","Q11":"0","Q08":"3","Q09":"3","Q01":"3","Q06":"1","Q05":"3","Q03":"3","Q02":"2"},"rt":52780,"item_order":[3,9,6,10,7,8,0,5,4,2,1],"radio_events":[10821.399999999907,14050.200000000186,17973.5,22299.899999999907,24242.100000000093,26862.80000000028,31587.5,33561.30000000028,37339.10000000009,40397,43090.89999999991,46472.39999999991,47710.5,50541.80000000028,52248.89999999991],"key_events":[],"mouse_events":[9519.100000000093,10821.399999999907,14050.200000000186,17973.5,21434.700000000186,22299.899999999907,24242.100000000093,26862.80000000028,31012.700000000186,31587.5,33561.30000000028,37339.10000000009,40397,43090.89999999991,46472.39999999991,47710.5,50541.80000000028,51310.5,52248.89999999991,52774.80000000028],"straightlining":0.36363636363636365,"zigzagging":0.3,"honeypot":0,"survey":"nfc10","trial_type":"survey-template","trial_index":4,"time_elapsed":140823,"internal_node_id":"0.0-4.0","experiment":"validation","task_version":"2.0","jspsych_version":"6.3.1","infrequency":0},{"value":0,"trial_type":"call-function","trial_index":5,"time_elapsed":140825,"internal_node_id":"0.0-5.0","experiment":"validation","task_version":"2.0","jspsych_version":"6.3.1","interactions":"[]"}]