[{"view_history":[{"page_index":0,"viewing_time":4953.600000023842}],"rt":4955.4000000059605,"trial_type":"instructions","trial_index":0,"time_elapsed":4979,"internal_node_id":"0.0-0.0","experiment":"validation","task_version":"1.1","jspsych_version":"6.3.1"},{"rt":14183.59999999404,"responses":{"age":"31","gender-categorical":"Male","gender-free-response":"","ethnicity":"Not Hispanic or Latino","race":["White"],"education":"Bachelor degree"},"survey":"demographics","trial_type":"survey-demo","trial_index":1,"time_elapsed":19179,"internal_node_id":"0.0-1.0","experiment":"validation","task_version":"1.1","jspsych_version":"6.3.1"},{"responses":{"Q04":"3","Q03":"3","Q01":"3","Q02":"3","Q06":"3","Q05":"3","Q07":"2"},"rt":28838.69999998808,"item_order":[3,2,0,1,5,4,6],"radio_events":[13215,16386.79999998212,18078.19999998808,21931.29999998212,24042,26264.40000000596,28188.69999998808],"key_events":[],"mouse_events":[12407.40000000596,13215,15544.59999999404,16386.79999998212,18078.19999998808,18608,19533.29999998212,19972,20615.79999998212,21249.79999998212,21931.29999998212,23119.5,24042,24663.79999998212,26264.40000000596,28188.69999998808,28834.5],"straightlining":0.5714285714285714,"zigzagging":0.16666666666666666,"honeypot":0,"survey":"nfc6","trial_type":"survey-template","trial_index":2,"time_elapsed":48027,"internal_node_id":"0.0-2.0","experiment":"validation","task_version":"1.1","jspsych_version":"6.3.1","infrequency":0},{"responses":{"Q10":"1","Q03":"1","Q04":"1","Q09":"3","Q08":"1","Q06":"3","Q02":"1","Q11":"4","Q01":"1","Q07":"1","Q05":"1"},"rt":46260.09999999404,"item_order":[9,2,3,8,7,5,1,10,0,6,4],"radio_events":[4466.300000011921,8105.0999999940395,10522.300000011921,11234.200000017881,14262.700000017881,15631.90000000596,19129.09999999404,20313.09999999404,39862,43025.59999999404,45173],"key_events":[],"mouse_events":[4466.300000011921,5115.5999999940395,8105.0999999940395,9421.800000011921,10522.300000011921,11234.200000017881,14262.700000017881,15631.90000000596,17936.70000001788,19129.09999999404,20313.09999999404,39862,41230.80000001192,43025.59999999404,45173,46257.70000001788],"straightlining":0.6363636363636364,"zigzagging":0,"honeypot":0,"survey":"neuroticism","trial_type":"survey-template","trial_index":3,"time_elapsed":94294,"internal_node_id":"0.0-3.0","experiment":"validation","task_version":"1.1","jspsych_version":"6.3.1","infrequency":0},{"responses":{"Q09":"1","Q05":"1","Q10":"1","Q03":"1","Q06":"1","Q02":"3","Q07":"2","Q04":"1","Q11":"0","Q01":"3","Q08":"3"},"rt":40662.89999997616,"item_order":[8,4,9,2,5,1,6,3,10,0,7],"radio_events":[3956,5717.799999982119,8256.399999976158,10261,12576.59999999404,14739.899999976158,17183.19999998808,23891.79999998212,25050.79999998212,29013.09999999404,32404.59999999404,34895.59999999404,39624.79999998212],"key_events":[],"mouse_events":[3956,5717.799999982119,8256.399999976158,10261,12576.59999999404,14739.899999976158,17183.19999998808,23891.79999998212,25050.79999998212,29013.09999999404,29798.399999976158,31444.09999999404,32404.59999999404,34895.59999999404,39624.79999998212,40661.39999997616],"straightlining":0.6363636363636364,"zigzagging":0.2,"honeypot":0,"survey":"openness","trial_type":"survey-template","trial_index":4,"time_elapsed":134960,"internal_node_id":"0.0-4.0","experiment":"validation","task_version":"1.1","jspsych_version":"6.3.1","infrequency":0},{"value":[0,1.844155844155844,0.3666666666666667],"trial_type":"call-function","trial_index":5,"time_elapsed":134962,"internal_node_id":"0.0-5.0","experiment":"validation","task_version":"1.1","jspsych_version":"6.3.1","interactions":"[{\"event\":\"blur\",\"trial\":3,\"time\":51178},{\"event\":\"focus\",\"trial\":3,\"time\":52353},{\"event\":\"focus\",\"trial\":3,\"time\":52353}]"}]