[{"view_history":[{"page_index":0,"viewing_time":5089.5}],"rt":5089.899999976158,"trial_type":"instructions","trial_index":0,"time_elapsed":5111,"internal_node_id":"0.0-0.0","experiment":"validation","task_version":"1.1","jspsych_version":"6.3.1"},{"rt":44177.80000001192,"responses":{"age":"42","gender-categorical":"Female","gender-free-response":"","ethnicity":"Not Hispanic or Latino","race":["Black or African American"],"education":"Less than high school"},"survey":"demographics","trial_type":"survey-demo","trial_index":1,"time_elapsed":49293,"internal_node_id":"0.0-1.0","experiment":"validation","task_version":"1.1","jspsych_version":"6.3.1"},{"responses":{"Q10":"4","Q02":"4","Q05":"0","Q04":"0","Q07":"4","Q01":"4","Q11":"0","Q08":"4","Q09":"4","Q03":"0","Q06":"4"},"rt":302649.8000000119,"item_order":[9,1,4,3,6,0,10,7,8,2,5],"radio_events":[273822.8000000119,276254.8000000119,277838.40000003576,279452.40000003576,282610.6999999881,284036.3000000119,287148.40000003576,289928.40000003576,293318.40000003576,295572.40000003576,301432.60000002384],"key_events":[],"mouse_events":[273822.8000000119,276254.8000000119,277838.40000003576,279452.40000003576,281132.5,282100.3000000119,282610.6999999881,284036.3000000119,287148.40000003576,289928.40000003576,292292.5,293318.40000003576,294497.90000003576,294886.3000000119,295572.40000003576,301432.60000002384,302648.1999999881],"straightlining":0.6363636363636364,"zigzagging":0.4,"honeypot":0,"survey":"openness","trial_type":"survey-template","trial_index":2,"time_elapsed":351950,"internal_node_id":"0.0-2.0","experiment":"validation","task_version":"1.1","jspsych_version":"6.3.1","infrequency":0},{"responses":{"Q04":"2","Q03":"2","Q07":"2","Q02":"2","Q01":"0","Q05":"3","Q06":"2"},"rt":36843.700000047684,"item_order":[3,2,6,1,0,4,5],"radio_events":[8900.800000011921,10772.600000023842,11816.600000023842,16472.700000047684,19528.80000001192,27790.600000023842,34574.60000002384],"key_events":[],"mouse_events":[8900.800000011921,10772.600000023842,11816.600000023842,16472.700000047684,19528.80000001192,27790.600000023842,33424.700000047684,33842.60000002384,34206.5,34574.60000002384,36842.700000047684],"straightlining":0.7142857142857143,"zigzagging":0.16666666666666666,"honeypot":0,"survey":"nfc6","trial_type":"survey-template","trial_index":3,"time_elapsed":388797,"internal_node_id":"0.0-3.0","experiment":"validation","task_version":"1.1","jspsych_version":"6.3.1","infrequency":0},{"responses":{"Q04":"0","Q01":"1","Q08":"0","Q07":"4","Q11":"0","Q09":"4","Q10":"0","Q06":"0","Q03":"0","Q02":"0","Q05":"0"},"rt":32900.30000001192,"item_order":[3,0,7,6,10,8,9,5,2,1,4],"radio_events":[9840.199999988079,10814.199999988079,11742.199999988079,14026.100000023842,15802,17547.80000001192,20004.100000023842,22454.100000023842,25230,27838.100000023842,29866,31908.100000023842],"key_events":[],"mouse_events":[9840.199999988079,10814.199999988079,11742.199999988079,14026.100000023842,15802,17547.80000001192,19096.19999998808,20004.100000023842,22454.100000023842,24504.19999998808,25230,27838.100000023842,29866,31506,31908.100000023842,32897.89999997616],"straightlining":0.6363636363636364,"zigzagging":0.4,"honeypot":0,"survey":"neuroticism","trial_type":"survey-template","trial_index":4,"time_elapsed":421701,"internal_node_id":"0.0-4.0","experiment":"validation","task_version":"1.1","jspsych_version":"6.3.1","infrequency":1},{"value":[1,1.987012987012987,0.9666666666666667],"trial_type":"call-function","trial_index":5,"time_elapsed":421704,"internal_node_id":"0.0-5.0","experiment":"validation","task_version":"1.1","jspsych_version":"6.3.1","interactions":"[{\"event\":\"blur\",\"trial\":0,\"time\":456},{\"event\":\"focus\",\"trial\":0,\"time\":5020},{\"event\":\"blur\",\"trial\":1,\"time\":7036},{\"event\":\"focus\",\"trial\":1,\"time\":24724},{\"event\":\"blur\",\"trial\":2,\"time\":62268},{\"event\":\"focus\",\"trial\":2,\"time\":314231}]"}]