[{"view_history":[{"page_index":0,"viewing_time":1555.2999999523163}],"rt":1555.5,"trial_type":"instructions","trial_index":0,"time_elapsed":1569,"internal_node_id":"0.0-0.0","experiment":"validation","task_version":"2.0","jspsych_version":"6.3.1"},{"rt":8593.100000143051,"responses":{"age":"33","gender-categorical":"Male","gender-free-response":"","ethnicity":"Not Hispanic or Latino","race":["White"],"education":"Master degree or higher"},"survey":"demographics","trial_type":"survey-demo","trial_index":1,"time_elapsed":10164,"internal_node_id":"0.0-1.0","experiment":"validation","task_version":"2.0","jspsych_version":"6.3.1"},{"rt":43765.59999990463,"response":{"Q3":5,"Q7":4,"Q8":0,"Q6":3,"Q0":5,"Q4":4,"Q1":5,"Q5":3,"Q2":5},"question_order":[3,7,8,6,0,4,1,5,2],"survey":"sns","trial_type":"survey-likert","trial_index":2,"time_elapsed":53934,"internal_node_id":"0.0-2.0","experiment":"validation","task_version":"2.0","jspsych_version":"6.3.1","infrequency":0},{"responses":{"Q04":"3","Q10":"2","Q01":"3","Q02":"1","Q09":"3","Q07":"2","Q03":"3","Q11":"0","Q05":"2","Q08":"1","Q06":"2"},"rt":64359.5,"item_order":[3,9,0,1,8,6,2,10,4,7,5],"radio_events":[8677.5,15319.799999952316,15398.299999952316,19613.099999904633,19628.799999952316,24390.299999952316,26382.099999904633,31009.599999904633,35111.799999952316,39167.5,49175.09999990463,56556.199999809265,63039.699999809265],"key_events":[],"mouse_events":[8677.5,15319.799999952316,15398.299999952316,19613.099999904633,19628.799999952316,24390.299999952316,26382.099999904633,31009.599999904633,34595.699999809265,35111.799999952316,39167.5,49175.09999990463,56556.199999809265,63039.699999809265,64358],"straightlining":0.36363636363636365,"zigzagging":0.7,"honeypot":0,"survey":"nfc10","trial_type":"survey-template","trial_index":3,"time_elapsed":118298,"internal_node_id":"0.0-3.0","experiment":"validation","task_version":"2.0","jspsych_version":"6.3.1","infrequency":0},{"responses":{"Q07":"3","Q01":"3","Q04":"3","Q09":"4","Q02":"2","Q05":"2","Q08":"4","Q06":"2","Q03":"3"},"rt":37400.200000047684,"item_order":[6,0,3,8,1,4,7,5,2],"radio_events":[4043.2999999523163,6050.399999856949,9264.399999856949,11740.899999856949,16336.099999904633,19312.299999952316,21272.599999904633,24502,26723.599999904633,29946.200000047684,32168.799999952316],"key_events":[],"mouse_events":[4043.2999999523163,6050.399999856949,9264.399999856949,11740.899999856949,16336.099999904633,19312.299999952316,21272.599999904633,24502,26723.599999904633,29946.200000047684,31446.39999985695,32168.799999952316,37399.200000047684],"straightlining":0.4444444444444444,"zigzagging":0.125,"honeypot":0,"survey":"pcf","trial_type":"survey-template","trial_index":4,"time_elapsed":155700,"internal_node_id":"0.0-4.0","experiment":"validation","task_version":"2.0","jspsych_version":"6.3.1","infrequency":0},{"value":0,"trial_type":"call-function","trial_index":5,"time_elapsed":155702,"internal_node_id":"0.0-5.0","experiment":"validation","task_version":"2.0","jspsych_version":"6.3.1","interactions":"[]"}]