[{"view_history":[{"page_index":0,"viewing_time":322831.200000003}],"rt":322831.40000000596,"trial_type":"instructions","trial_index":0,"time_elapsed":323448,"internal_node_id":"0.0-0.0","experiment":"validation","task_version":"2.0","jspsych_version":"6.3.1"},{"rt":10366.10000000894,"responses":{"age":"26","gender-categorical":"Male","gender-free-response":"","ethnicity":"Not Hispanic or Latino","race":["Black or African American"],"education":"Master degree or higher"},"survey":"demographics","trial_type":"survey-demo","trial_index":1,"time_elapsed":333816,"internal_node_id":"0.0-1.0","experiment":"validation","task_version":"2.0","jspsych_version":"6.3.1"},{"rt":30197.70000000298,"response":{"Q2":0,"Q3":1,"Q0":3,"Q7":4,"Q5":5,"Q4":4,"Q8":0,"Q6":0,"Q1":3},"question_order":[2,3,0,7,5,4,8,6,1],"survey":"sns","trial_type":"survey-likert","trial_index":2,"time_elapsed":364017,"internal_node_id":"0.0-2.0","experiment":"validation","task_version":"2.0","jspsych_version":"6.3.1","infrequency":0},{"responses":{"Q05":"1","Q06":"2","Q03":"1","Q07":"3","Q08":"3","Q01":"4","Q02":"1","Q04":"1","Q09":"4"},"rt":22349.40000000596,"item_order":[4,5,2,6,7,0,1,3,8],"radio_events":[3516.4000000059605,5508.20000000298,6604.4000000059605,8228.29999999702,8892.40000000596,11980.40000000596,13676.40000000596,16140.40000000596,17220.40000000596,18772.40000000596,20540.40000000596,21492.40000000596],"key_events":[],"mouse_events":[3148.5,3516.4000000059605,4380.4000000059605,4980.29999999702,5508.20000000298,6052.9000000059605,6604.4000000059605,7492.5,8228.29999999702,8892.40000000596,10340.29999999702,10788.20000000298,11284.70000000298,11980.40000000596,12780.40000000596,13676.40000000596,14292.59999999404,14748.29999999702,15660.40000000596,16140.40000000596,17220.40000000596,17668.20000000298,18268.40000000596,18772.40000000596,19252.5,20540.40000000596,21492.40000000596,22348.40000000596],"straightlining":0.4444444444444444,"zigzagging":0.5,"honeypot":0,"survey":"pcf","trial_type":"survey-template","trial_index":3,"time_elapsed":386369,"internal_node_id":"0.0-3.0","experiment":"validation","task_version":"2.0","jspsych_version":"6.3.1","infrequency":0},{"responses":{"Q07":"3","Q05":"0","Q06":"1","Q11":"0","Q08":"3","Q02":"3","Q01":"3","Q03":"4","Q04":"0","Q09":"3","Q10":"4"},"rt":295485.299999997,"item_order":[6,4,5,10,7,1,0,2,3,8,9],"radio_events":[258404.29999999702,260540.20000000298,261172.5,261836.29999999702,263148.39999999106,267628.5,269828.39999999106,272628.59999999404,273556.299999997,283588.700000003,285516.299999997,289524.299999997,291652.39999999106,294932.09999999404],"key_events":[],"mouse_events":[256660.39999999106,257644.5,258404.29999999702,258996.39999999106,259668.20000000298,260540.20000000298,261172.5,261836.29999999702,262685.299999997,263148.39999999106,267628.5,268876.299999997,269372.5,269828.39999999106,271420.299999997,271908.200000003,272628.59999999404,273204.700000003,273556.299999997,281748.299999997,282156.200000003,283028.200000003,283588.700000003,284612.299999997,285516.299999997,288852.299999997,289524.299999997,290172.09999999404,290860.299999997,291228.200000003,291652.39999999106,292708.39999999106,293332.39999999106,293892,294524.299999997,294932.09999999404,295484.299999997],"straightlining":0.45454545454545453,"zigzagging":0.5,"honeypot":0,"survey":"nfc10","trial_type":"survey-template","trial_index":4,"time_elapsed":681857,"internal_node_id":"0.0-4.0","experiment":"validation","task_version":"2.0","jspsych_version":"6.3.1","infrequency":0},{"value":0,"trial_type":"call-function","trial_index":5,"time_elapsed":681859,"internal_node_id":"0.0-5.0","experiment":"validation","task_version":"2.0","jspsych_version":"6.3.1","interactions":"[{\"event\":\"blur\",\"trial\":0,\"time\":10397},{\"event\":\"focus\",\"trial\":0,\"time\":321848},{\"event\":\"blur\",\"trial\":4,\"time\":455347},{\"event\":\"focus\",\"trial\":4,\"time\":517860},{\"event\":\"blur\",\"trial\":4,\"time\":541942},{\"event\":\"focus\",\"trial\":4,\"time\":642967},{\"event\":\"blur\",\"trial\":4,\"time\":663170},{\"event\":\"focus\",\"trial\":4,\"time\":665955}]"}]