[{"view_history":[{"page_index":0,"viewing_time":2908.300000011921}],"rt":2908.599999964237,"trial_type":"instructions","trial_index":0,"time_elapsed":3282,"internal_node_id":"0.0-0.0","experiment":"validation","task_version":"1.1","jspsych_version":"6.3.1"},{"rt":14399.899999976158,"responses":{"age":"31","gender-categorical":"Female","gender-free-response":"","ethnicity":"Not Hispanic or Latino","race":["Black or African American"],"education":"Some college"},"survey":"demographics","trial_type":"survey-demo","trial_index":1,"time_elapsed":17685,"internal_node_id":"0.0-1.0","experiment":"validation","task_version":"1.1","jspsych_version":"6.3.1"},{"responses":{"Q06":"3","Q03":"3","Q02":"3","Q05":"3","Q07":"2","Q01":"2","Q04":"2"},"rt":21130.899999976158,"item_order":[5,2,1,4,6,0,3],"radio_events":[6823.600000023842,7807.600000023842,10374.5,10742.600000023842,13436.5,15036.5,16395.5,20162.399999976158],"key_events":[],"mouse_events":[4464.899999976158,5512.600000023842,6032.600000023842,6823.600000023842,7807.600000023842,9526.600000023842,10374.5,10742.600000023842,13436.5,15036.5,16395.5,19578.30000001192,20162.399999976158,21129.5],"straightlining":0.42857142857142855,"zigzagging":0.16666666666666666,"honeypot":0,"survey":"nfc6","trial_type":"survey-template","trial_index":2,"time_elapsed":38820,"internal_node_id":"0.0-2.0","experiment":"validation","task_version":"1.1","jspsych_version":"6.3.1","infrequency":0},{"responses":{"Q04":"0","Q05":"1","Q03":"1","Q06":"0","Q11":"4","Q10":"2","Q02":"0","Q07":"1","Q01":"1","Q08":"2","Q09":"1"},"rt":27265.299999952316,"item_order":[3,4,2,5,10,9,1,6,0,7,8],"radio_events":[3457.899999976158,5616.799999952316,6568.799999952316,9486.799999952316,10998.599999964237,13165.699999988079,15668.599999964237,17507.599999964237,19146.599999964237,20706.599999964237,23816.599999964237],"key_events":[],"mouse_events":[2890,3457.899999976158,4784.899999976158,5616.799999952316,6568.799999952316,9486.799999952316,10998.599999964237,13165.699999988079,15668.599999964237,17507.599999964237,19146.599999964237,20706.599999964237,23065.69999998808,23816.599999964237,27263.69999998808],"straightlining":0.2727272727272727,"zigzagging":0.3,"honeypot":0,"survey":"neuroticism","trial_type":"survey-template","trial_index":3,"time_elapsed":66089,"internal_node_id":"0.0-3.0","experiment":"validation","task_version":"1.1","jspsych_version":"6.3.1","infrequency":0},{"responses":{"Q04":"1","Q11":"0","Q03":"3","Q10":"2","Q05":"0","Q06":"4","Q09":"3","Q02":"4","Q07":"4","Q01":"4","Q08":"3"},"rt":40307.19999998808,"item_order":[3,10,2,9,4,5,8,1,6,0,7],"radio_events":[9054.899999976158,12765.800000011921,14604.699999988079,15659.699999988079,16771.69999998808,18914.80000001192,21001.899999976158,23488.599999964237,24840.69999998808,28038.80000001192,29342.5,34540.59999996424],"key_events":[],"mouse_events":[6000.800000011921,9054.899999976158,12765.800000011921,14604.699999988079,15659.699999988079,16771.69999998808,18914.80000001192,21001.899999976158,23488.599999964237,24840.69999998808,26591.69999998808,27583.69999998808,28038.80000001192,29342.5,34540.59999996424,40305.69999998808],"straightlining":0.2727272727272727,"zigzagging":0.5,"honeypot":0,"survey":"openness","trial_type":"survey-template","trial_index":4,"time_elapsed":106400,"internal_node_id":"0.0-4.0","experiment":"validation","task_version":"1.1","jspsych_version":"6.3.1","infrequency":0},{"value":[0,0.974025974025974,0.9666666666666667],"trial_type":"call-function","trial_index":5,"time_elapsed":106402,"internal_node_id":"0.0-5.0","experiment":"validation","task_version":"1.1","jspsych_version":"6.3.1","interactions":"[{\"event\":\"blur\",\"trial\":4,\"time\":67377},{\"event\":\"focus\",\"trial\":4,\"time\":69897}]"}]