[{"view_history":[{"page_index":0,"viewing_time":2204}],"rt":2204.2999999970198,"trial_type":"instructions","trial_index":0,"time_elapsed":2209,"internal_node_id":"0.0-0.0","experiment":"validation","task_version":"1.1","jspsych_version":"6.3.1"},{"rt":17063.59999999404,"responses":{"age":"21","gender-categorical":"Female","gender-free-response":"","ethnicity":"Not Hispanic or Latino","race":["Rather not say"],"education":"Some college"},"survey":"demographics","trial_type":"survey-demo","trial_index":1,"time_elapsed":19276,"internal_node_id":"0.0-1.0","experiment":"validation","task_version":"1.1","jspsych_version":"6.3.1"},{"responses":{"Q04":"1","Q11":"0","Q03":"3","Q02":"4","Q07":"4","Q09":"3","Q10":"4","Q01":"3","Q05":"0","Q06":"4","Q08":"4"},"rt":52707.70000000298,"item_order":[3,10,2,1,6,8,9,0,4,5,7],"radio_events":[15818.29999999702,17083.60000000894,21223.90000000596,22314.70000000298,23930.90000000596,26359.5,29909,33780,34591.20000000298,36632,38146.20000000298,41560,48014.20000000298,50720.90000000596],"key_events":[],"mouse_events":[15818.29999999702,17083.60000000894,21223.90000000596,22314.70000000298,23930.90000000596,25312.90000000596,26359.5,29909,32356.29999999702,33780,34591.20000000298,36632,38146.20000000298,41560,48014.20000000298,50720.90000000596,52706.60000000894],"straightlining":0.45454545454545453,"zigzagging":0.6,"honeypot":0,"survey":"openness","trial_type":"survey-template","trial_index":2,"time_elapsed":71994,"internal_node_id":"0.0-2.0","experiment":"validation","task_version":"1.1","jspsych_version":"6.3.1","infrequency":0},{"responses":{"Q03":"1","Q11":"4","Q10":"0","Q05":"1","Q08":"0","Q09":"2","Q04":"3","Q07":"1","Q01":"1","Q06":"3","Q02":"0"},"rt":40135.89999999106,"item_order":[2,10,9,4,7,8,3,6,0,5,1],"radio_events":[2521.0999999940395,3748.5999999940395,5626.399999991059,7003.5999999940395,10540.29999999702,10755.09999999404,12417.79999999702,14353.09999999404,16398.59999999404,18957.89999999106,24315.89999999106,30198.09999999404,33715,33940.59999999404,36272.29999999702,37631.79999999702,39035.29999999702],"key_events":[],"mouse_events":[2521.0999999940395,3748.5999999940395,5626.399999991059,7003.5999999940395,9628.20000000298,10540.29999999702,10755.09999999404,12417.79999999702,14353.09999999404,16398.59999999404,18957.89999999106,23188.59999999404,24315.89999999106,30198.09999999404,33715,33940.59999999404,35081.79999999702,36272.29999999702,37631.79999999702,39035.29999999702,40133.39999999106],"straightlining":0.36363636363636365,"zigzagging":0.2,"honeypot":0,"survey":"neuroticism","trial_type":"survey-template","trial_index":3,"time_elapsed":112135,"internal_node_id":"0.0-3.0","experiment":"validation","task_version":"1.1","jspsych_version":"6.3.1","infrequency":0},{"responses":{"Q06":"1","Q07":"2","Q04":"3","Q03":"3","Q05":"3","Q02":"3","Q01":"3"},"rt":65269.5,"item_order":[5,6,3,2,4,1,0],"radio_events":[11397.90000000596,20086.5,31624.20000000298,33933.5,35528.60000000894,51214.40000000596,57965,60552.90000000596,61646.20000000298,63720.70000000298],"key_events":[],"mouse_events":[11397.90000000596,12222,19386.30000001192,20086.5,21196.10000000894,31624.20000000298,33933.5,35528.60000000894,51214.40000000596,57170.70000000298,57965,59789.80000001192,60552.90000000596,61646.20000000298,63720.70000000298,65266.90000000596],"straightlining":0.42857142857142855,"zigzagging":0.3333333333333333,"honeypot":0,"survey":"nfc6","trial_type":"survey-template","trial_index":4,"time_elapsed":177408,"internal_node_id":"0.0-4.0","experiment":"validation","task_version":"1.1","jspsych_version":"6.3.1","infrequency":0},{"value":[0,1.2467532467532467,1.1333333333333333],"trial_type":"call-function","trial_index":5,"time_elapsed":177409,"internal_node_id":"0.0-5.0","experiment":"validation","task_version":"1.1","jspsych_version":"6.3.1","interactions":"[]"}]