[{"success":true,"timeout":false,"failed_images":[],"failed_audio":[],"failed_video":[],"trial_type":"preload","trial_index":0,"time_elapsed":11835,"internal_node_id":"0.0-0.0","experiment":"validation","task_version":"2.0","jspsych_version":"6.3.1"},{"success":true,"trial_type":"fullscreen","trial_index":1,"time_elapsed":15685,"internal_node_id":"0.0-1.0","experiment":"validation","task_version":"2.0","jspsych_version":"6.3.1"},{"view_history":[{"page_index":0,"viewing_time":1935.8999999761581},{"page_index":1,"viewing_time":7511.200000047684},{"page_index":2,"viewing_time":4097.399999976158},{"page_index":3,"viewing_time":1430.6000000238419}],"rt":14976.100000023842,"trial_type":"instructions","trial_index":2,"time_elapsed":30663,"internal_node_id":"0.0-3.0","experiment":"validation","task_version":"2.0","jspsych_version":"6.3.1"},{"item":5,"shape_set":1,"distractor":"pd","choice_order":[0,2,1,3],"correct":0,"choice":0,"accuracy":1,"rt":3153.600000023842,"screen_resolution":[1366,768],"minimum_resolution":1,"all_loaded":true,"item_set":"practice","trial_type":"mars","trial_index":3,"time_elapsed":34571,"internal_node_id":"0.0-4.0-0.0","experiment":"validation","task_version":"2.0","jspsych_version":"6.3.1"},{"item":2,"shape_set":1,"distractor":"pd","choice_order":[1,2,3,0],"correct":0,"choice":0,"accuracy":1,"rt":3079.2999999523163,"screen_resolution":[1366,768],"minimum_resolution":1,"all_loaded":true,"item_set":"practice","trial_type":"mars","trial_index":4,"time_elapsed":38407,"internal_node_id":"0.0-5.0-0.0","experiment":"validation","task_version":"2.0","jspsych_version":"6.3.1"},{"item":8,"shape_set":1,"distractor":"pd","choice_order":[2,1,0,3],"correct":0,"choice":0,"accuracy":1,"rt":2273.6999999284744,"screen_resolution":[1366,768],"minimum_resolution":1,"all_loaded":true,"item_set":"practice","trial_type":"mars","trial_index":5,"time_elapsed":41435,"internal_node_id":"0.0-6.0-0.0","experiment":"validation","task_version":"2.0","jspsych_version":"6.3.1"},{"view_history":[{"page_index":0,"viewing_time":2214.9000000953674},{"page_index":1,"viewing_time":8178.599999904633}],"rt":10393.800000071526,"trial_type":"instructions","trial_index":6,"time_elapsed":51830,"internal_node_id":"0.0-7.0","experiment":"validation","task_version":"2.0","jspsych_version":"6.3.1"},{"rt":null,"stimulus":"<div style=\"font-size:24px;\">Loading puzzle:<br>1 / 12</div>","response":null,"trial_type":"html-keyboard-response","trial_index":7,"time_elapsed":53034,"internal_node_id":"0.0-8.0-1.0","experiment":"validation","task_version":"2.0","jspsych_version":"6.3.1"},{"item":45,"shape_set":1,"distractor":"pd","choice_order":[0,2,1,3],"correct":0,"choice":2,"accuracy":0,"rt":11862.599999904633,"screen_resolution":[1366,768],"minimum_resolution":1,"all_loaded":true,"item_set":3,"short_form":2,"trial_type":"mars","trial_index":8,"time_elapsed":64900,"internal_node_id":"0.0-8.0-2.0","experiment":"validation","task_version":"2.0","jspsych_version":"6.3.1","browser_interactions":0},{"rt":null,"stimulus":"<div style=\"font-size:24px;\">Loading puzzle:<br>2 / 12</div>","response":null,"trial_type":"html-keyboard-response","trial_index":9,"time_elapsed":66105,"internal_node_id":"0.0-9.0-1.0","experiment":"validation","task_version":"2.0","jspsych_version":"6.3.1"},{"item":30,"shape_set":2,"distractor":"pd","choice_order":[0,2,1,3],"correct":0,"choice":3,"accuracy":0,"rt":5596.300000071526,"screen_resolution":[1366,768],"minimum_resolution":1,"all_loaded":true,"item_set":3,"short_form":2,"trial_type":"mars","trial_index":10,"time_elapsed":71704,"internal_node_id":"0.0-9.0-2.0","experiment":"validation","task_version":"2.0","jspsych_version":"6.3.1","browser_interactions":0},{"rt":null,"stimulus":"<div style=\"font-size:24px;\">Loading puzzle:<br>3 / 12</div>","response":null,"trial_type":"html-keyboard-response","trial_index":11,"time_elapsed":72907,"internal_node_id":"0.0-10.0-1.0","experiment":"validation","task_version":"2.0","jspsych_version":"6.3.1"},{"item":55,"shape_set":3,"distractor":"pd","choice_order":[1,2,0,3],"correct":0,"choice":0,"accuracy":1,"rt":5691.799999952316,"screen_resolution":[1366,768],"minimum_resolution":1,"all_loaded":true,"item_set":3,"short_form":2,"trial_type":"mars","trial_index":12,"time_elapsed":78602,"internal_node_id":"0.0-10.0-2.0","experiment":"validation","task_version":"2.0","jspsych_version":"6.3.1","browser_interactions":0},{"rt":null,"stimulus":"<div style=\"font-size:24px;\">Loading puzzle:<br>4 / 12</div>","response":null,"trial_type":"html-keyboard-response","trial_index":13,"time_elapsed":79805,"internal_node_id":"0.0-11.0-1.0","experiment":"validation","task_version":"2.0","jspsych_version":"6.3.1"},{"item":29,"shape_set":1,"distractor":"pd","choice_order":[0,2,3,1],"correct":0,"choice":0,"accuracy":1,"rt":7049.300000071526,"screen_resolution":[1366,768],"minimum_resolution":1,"all_loaded":true,"item_set":3,"short_form":2,"trial_type":"mars","trial_index":14,"time_elapsed":86857,"internal_node_id":"0.0-11.0-2.0","experiment":"validation","task_version":"2.0","jspsych_version":"6.3.1","browser_interactions":0},{"rt":null,"stimulus":"<div style=\"font-size:24px;\">Loading puzzle:<br>5 / 12</div>","response":null,"trial_type":"html-keyboard-response","trial_index":15,"time_elapsed":88060,"internal_node_id":"0.0-12.0-1.0","experiment":"validation","task_version":"2.0","jspsych_version":"6.3.1"},{"item":64,"shape_set":1,"distractor":"pd","choice_order":[1,0,2,3],"correct":0,"choice":2,"accuracy":0,"rt":12042.299999952316,"screen_resolution":[1366,768],"minimum_resolution":1,"all_loaded":true,"item_set":3,"short_form":2,"trial_type":"mars","trial_index":16,"time_elapsed":100105,"internal_node_id":"0.0-12.0-2.0","experiment":"validation","task_version":"2.0","jspsych_version":"6.3.1","browser_interactions":0},{"rt":null,"stimulus":"<div style=\"font-size:24px;\">Loading puzzle:<br>6 / 12</div>","response":null,"trial_type":"html-keyboard-response","trial_index":17,"time_elapsed":101309,"internal_node_id":"0.0-13.0-1.0","experiment":"validation","task_version":"2.0","jspsych_version":"6.3.1"},{"item":35,"shape_set":1,"distractor":"pd","choice_order":[1,0,2,3],"correct":0,"choice":0,"accuracy":1,"rt":6549.199999928474,"screen_resolution":[1366,768],"minimum_resolution":1,"all_loaded":true,"item_set":3,"short_form":2,"trial_type":"mars","trial_index":18,"time_elapsed":107861,"internal_node_id":"0.0-13.0-2.0","experiment":"validation","task_version":"2.0","jspsych_version":"6.3.1","browser_interactions":0},{"rt":null,"stimulus":"<div style=\"font-size:24px;\">Loading puzzle:<br>7 / 12</div>","response":null,"trial_type":"html-keyboard-response","trial_index":19,"time_elapsed":109064,"internal_node_id":"0.0-14.0-1.0","experiment":"validation","task_version":"2.0","jspsych_version":"6.3.1"},{"item":24,"shape_set":1,"distractor":"pd","choice_order":[0,1,2,3],"correct":0,"choice":2,"accuracy":0,"rt":6610.100000023842,"screen_resolution":[1366,768],"minimum_resolution":1,"all_loaded":true,"item_set":3,"short_form":2,"trial_type":"mars","trial_index":20,"time_elapsed":115677,"internal_node_id":"0.0-14.0-2.0","experiment":"validation","task_version":"2.0","jspsych_version":"6.3.1","browser_interactions":0},{"rt":null,"stimulus":"<div style=\"font-size:24px;\">Loading puzzle:<br>8 / 12</div>","response":null,"trial_type":"html-keyboard-response","trial_index":21,"time_elapsed":116879,"internal_node_id":"0.0-15.0-1.0","experiment":"validation","task_version":"2.0","jspsych_version":"6.3.1"},{"item":17,"shape_set":3,"distractor":"pd","choice_order":[2,3,1,0],"correct":0,"choice":1,"accuracy":0,"rt":12948.100000023842,"screen_resolution":[1366,768],"minimum_resolution":1,"all_loaded":true,"item_set":3,"short_form":2,"trial_type":"mars","trial_index":22,"time_elapsed":129830,"internal_node_id":"0.0-15.0-2.0","experiment":"validation","task_version":"2.0","jspsych_version":"6.3.1","browser_interactions":0},{"rt":null,"stimulus":"<div style=\"font-size:24px;\">Loading puzzle:<br>9 / 12</div>","response":null,"trial_type":"html-keyboard-response","trial_index":23,"time_elapsed":131033,"internal_node_id":"0.0-16.0-1.0","experiment":"validation","task_version":"2.0","jspsych_version":"6.3.1"},{"item":58,"shape_set":3,"distractor":"md","choice_order":[1,0,3,2],"correct":0,"choice":1,"accuracy":0,"rt":8904.5,"screen_resolution":[1366,768],"minimum_resolution":1,"all_loaded":true,"item_set":3,"short_form":2,"trial_type":"mars","trial_index":24,"time_elapsed":139940,"internal_node_id":"0.0-16.0-2.0","experiment":"validation","task_version":"2.0","jspsych_version":"6.3.1","browser_interactions":0},{"rt":null,"stimulus":"<div style=\"font-size:24px;\">Loading puzzle:<br>10 / 12</div>","response":null,"trial_type":"html-keyboard-response","trial_index":25,"time_elapsed":141142,"internal_node_id":"0.0-17.0-1.0","experiment":"validation","task_version":"2.0","jspsych_version":"6.3.1"},{"item":76,"shape_set":1,"distractor":"pd","choice_order":[2,3,0,1],"correct":0,"choice":0,"accuracy":1,"rt":7989.899999976158,"screen_resolution":[1366,768],"minimum_resolution":1,"all_loaded":true,"item_set":3,"short_form":2,"trial_type":"mars","trial_index":26,"time_elapsed":149135,"internal_node_id":"0.0-17.0-2.0","experiment":"validation","task_version":"2.0","jspsych_version":"6.3.1","browser_interactions":0},{"rt":null,"stimulus":"<div style=\"font-size:24px;\">Loading puzzle:<br>11 / 12</div>","response":null,"trial_type":"html-keyboard-response","trial_index":27,"time_elapsed":150337,"internal_node_id":"0.0-18.0-1.0","experiment":"validation","task_version":"2.0","jspsych_version":"6.3.1"},{"item":72,"shape_set":3,"distractor":"pd","choice_order":[0,2,3,1],"correct":0,"choice":1,"accuracy":0,"rt":12244.299999952316,"screen_resolution":[1366,768],"minimum_resolution":1,"all_loaded":true,"item_set":3,"short_form":2,"trial_type":"mars","trial_index":28,"time_elapsed":162584,"internal_node_id":"0.0-18.0-2.0","experiment":"validation","task_version":"2.0","jspsych_version":"6.3.1","browser_interactions":0},{"rt":null,"stimulus":"<div style=\"font-size:24px;\">Loading puzzle:<br>12 / 12</div>","response":null,"trial_type":"html-keyboard-response","trial_index":29,"time_elapsed":163786,"internal_node_id":"0.0-19.0-1.0","experiment":"validation","task_version":"2.0","jspsych_version":"6.3.1"},{"item":66,"shape_set":2,"distractor":"pd","choice_order":[2,0,1,3],"correct":0,"choice":0,"accuracy":1,"rt":3670.100000023842,"screen_resolution":[1366,768],"minimum_resolution":1,"all_loaded":true,"item_set":3,"short_form":2,"trial_type":"mars","trial_index":30,"time_elapsed":167460,"internal_node_id":"0.0-19.0-2.0","experiment":"validation","task_version":"2.0","jspsych_version":"6.3.1","browser_interactions":0},{"value":[0,0,0],"trial_type":"call-function","trial_index":31,"time_elapsed":167464,"internal_node_id":"0.0-20.0","experiment":"validation","task_version":"2.0","jspsych_version":"6.3.1","interactions":"[{\"event\":\"fullscreenenter\",\"trial\":1,\"time\":14696}]"}]