[{"view_history":[{"page_index":0,"viewing_time":21948.5}],"rt":21948.69999998808,"trial_type":"instructions","trial_index":0,"time_elapsed":21964,"internal_node_id":"0.0-0.0","experiment":"validation","task_version":"2.0","jspsych_version":"6.3.1"},{"rt":7278.5,"responses":{"age":"41","gender-categorical":"Female","gender-free-response":"","ethnicity":"Not Hispanic or Latino","race":["White"],"education":"High school"},"survey":"demographics","trial_type":"survey-demo","trial_index":1,"time_elapsed":29244,"internal_node_id":"0.0-1.0","experiment":"validation","task_version":"2.0","jspsych_version":"6.3.1"},{"responses":{"Q04":"3","Q03":"4","Q06":"2","Q07":"1","Q09":"0","Q11":"0","Q05":"4","Q02":"2","Q01":"1","Q08":"0","Q10":"3"},"rt":27426.90000000596,"item_order":[3,2,5,6,8,10,4,1,0,7,9],"radio_events":[5329.5999999940395,7025.5999999940395,7697.5999999940395,11017.699999988079,11929.59999999404,14385.59999999404,18777.59999999404,21225.5,22505.5,24169.5,26961.5],"key_events":[],"mouse_events":[4193.9000000059605,5329.5999999940395,6225.5999999940395,7025.5999999940395,7697.5999999940395,11017.699999988079,11929.59999999404,14385.59999999404,18777.59999999404,21225.5,22505.5,24169.5,26425.59999999404,26961.5,27425.40000000596],"straightlining":0.45454545454545453,"zigzagging":0.5,"honeypot":0,"survey":"nfc10","trial_type":"survey-template","trial_index":2,"time_elapsed":56678,"internal_node_id":"0.0-2.0","experiment":"validation","task_version":"2.0","jspsych_version":"6.3.1","infrequency":0},{"responses":{"Q06":"2","Q08":"3","Q07":"1","Q09":"4","Q03":"2","Q05":"1","Q01":"2","Q04":"2","Q02":"1"},"rt":38131.09999999404,"item_order":[5,7,6,8,2,4,0,3,1],"radio_events":[20266.19999998808,22098.09999999404,23922.09999999404,26018.09999999404,30946.09999999404,32458.09999999404,33282.09999999404,35266.09999999404,37682],"key_events":[],"mouse_events":[20266.19999998808,22098.09999999404,23922.09999999404,26018.09999999404,30946.09999999404,32458.09999999404,33282.09999999404,35266.09999999404,36674.79999998212,37682,38130.19999998808],"straightlining":0.4444444444444444,"zigzagging":0.625,"honeypot":0,"survey":"pcf","trial_type":"survey-template","trial_index":3,"time_elapsed":94813,"internal_node_id":"0.0-3.0","experiment":"validation","task_version":"2.0","jspsych_version":"6.3.1","infrequency":0},{"rt":61275.19999998808,"response":{"Q5":5,"Q2":5,"Q4":5,"Q7":3,"Q6":0,"Q8":0,"Q1":3,"Q3":5,"Q0":3},"question_order":[5,2,4,7,6,8,1,3,0],"survey":"sns","trial_type":"survey-likert","trial_index":4,"time_elapsed":156094,"internal_node_id":"0.0-4.0","experiment":"validation","task_version":"2.0","jspsych_version":"6.3.1","infrequency":0},{"value":0,"trial_type":"call-function","trial_index":5,"time_elapsed":156098,"internal_node_id":"0.0-5.0","experiment":"validation","task_version":"2.0","jspsych_version":"6.3.1","interactions":"[{\"event\":\"focus\",\"trial\":0,\"time\":20365},{\"event\":\"blur\",\"trial\":3,\"time\":58536},{\"event\":\"focus\",\"trial\":3,\"time\":70268},{\"event\":\"blur\",\"trial\":4,\"time\":96375},{\"event\":\"focus\",\"trial\":4,\"time\":132050}]"}]