[{"view_history":[{"page_index":0,"viewing_time":118133.40000009537}],"rt":118133.70000004768,"trial_type":"instructions","trial_index":0,"time_elapsed":118148,"internal_node_id":"0.0-0.0","experiment":"validation","task_version":"1.1","jspsych_version":"6.3.1"},{"rt":24893,"responses":{"age":"22","gender-categorical":"Female","gender-free-response":"","ethnicity":"Not Hispanic or Latino","race":["White"],"education":"Bachelor degree"},"survey":"demographics","trial_type":"survey-demo","trial_index":1,"time_elapsed":143043,"internal_node_id":"0.0-1.0","experiment":"validation","task_version":"1.1","jspsych_version":"6.3.1"},{"responses":{"Q02":"1","Q01":"3","Q04":"1","Q07":"2","Q03":"3","Q05":"1","Q06":"3"},"rt":34119.700000047684,"item_order":[1,0,3,6,2,4,5],"radio_events":[8462.799999952316,13070.900000095367,15259,18052.700000047684,23030.60000014305,27751.700000047684,33344.90000009537],"key_events":[],"mouse_events":[4445.200000047684,8462.799999952316,13070.900000095367,15259,18052.700000047684,20979,22523.60000014305,23030.60000014305,23728.900000095367,27751.700000047684,28951.200000047684,33344.90000009537,34118.700000047684],"straightlining":0.42857142857142855,"zigzagging":0.3333333333333333,"honeypot":0,"survey":"nfc6","trial_type":"survey-template","trial_index":2,"time_elapsed":177165,"internal_node_id":"0.0-2.0","experiment":"validation","task_version":"1.1","jspsych_version":"6.3.1","infrequency":0},{"responses":{"Q08":"3","Q11":"4","Q06":"3","Q04":"3","Q10":"3","Q07":"3","Q05":"3","Q09":"3","Q03":"3","Q02":"3","Q01":"3"},"rt":20667.60000014305,"item_order":[7,10,5,3,9,6,4,8,2,1,0],"radio_events":[2791,4090.600000143051,6458.5,7880.400000095367,9512.600000143051,11050.700000047684,12984.600000143051,15502.5,18458.60000014305,19322.300000190735,20182.5],"key_events":[],"mouse_events":[2791,4090.600000143051,6458.5,7880.400000095367,9512.600000143051,11050.700000047684,12984.600000143051,15502.5,17198.5,18458.60000014305,19322.300000190735,20182.5,20666.5],"straightlining":0.45454545454545453,"zigzagging":0,"honeypot":0,"survey":"neuroticism","trial_type":"survey-template","trial_index":3,"time_elapsed":197834,"internal_node_id":"0.0-3.0","experiment":"validation","task_version":"1.1","jspsych_version":"6.3.1","infrequency":0},{"responses":{"Q07":"4","Q09":"3","Q06":"3","Q04":"3","Q11":"0","Q03":"0","Q10":"0","Q02":"3","Q01":"3","Q08":"1","Q05":"1"},"rt":25397.800000190735,"item_order":[6,8,5,3,10,2,9,1,0,7,4],"radio_events":[5707.300000190735,7678.900000095367,9812.700000047684,11924.300000190735,14752.5,16406.700000047684,18796.400000095367,20246,21694.60000014305,23782.300000190735,24854.60000014305],"key_events":[],"mouse_events":[5707.300000190735,7678.900000095367,9812.700000047684,11924.300000190735,14752.5,16406.700000047684,18796.400000095367,20246,21694.60000014305,23782.300000190735,24854.60000014305,25396.60000014305],"straightlining":0.36363636363636365,"zigzagging":0.4,"honeypot":0,"survey":"openness","trial_type":"survey-template","trial_index":4,"time_elapsed":223234,"internal_node_id":"0.0-4.0","experiment":"validation","task_version":"1.1","jspsych_version":"6.3.1","infrequency":0},{"value":[0,1.2467532467532467,0.7333333333333334],"trial_type":"call-function","trial_index":5,"time_elapsed":223236,"internal_node_id":"0.0-5.0","experiment":"validation","task_version":"1.1","jspsych_version":"6.3.1","interactions":"[{\"event\":\"blur\",\"trial\":0,\"time\":53565},{\"event\":\"focus\",\"trial\":0,\"time\":117222}]"}]