[{"view_history":[{"page_index":0,"viewing_time":5814.799999982119}],"rt":5815.5,"trial_type":"instructions","trial_index":0,"time_elapsed":5949,"internal_node_id":"0.0-0.0","experiment":"validation","task_version":"1.1","jspsych_version":"6.3.1"},{"rt":17423.59999999404,"responses":{"age":"35","gender-categorical":"Male","gender-free-response":"","ethnicity":"Hispanic or Latino","race":["White"],"education":"High school"},"survey":"demographics","trial_type":"survey-demo","trial_index":1,"time_elapsed":23393,"internal_node_id":"0.0-1.0","experiment":"validation","task_version":"1.1","jspsych_version":"6.3.1"},{"responses":{"Q04":"4","Q05":"3","Q07":"2","Q02":"3","Q01":"2","Q06":"3","Q03":"4"},"rt":50783.69999998808,"item_order":[3,4,6,1,0,5,2],"radio_events":[12428.299999982119,19372.09999999404,22452,28525,31644.90000000596,39006.79999998212,49855.59999999404],"key_events":[],"mouse_events":[12428.299999982119,19372.09999999404,22452,28525,31644.90000000596,39006.79999998212,48622.59999999404,49855.59999999404,50782.59999999404],"straightlining":0.42857142857142855,"zigzagging":0.6666666666666666,"honeypot":0,"survey":"nfc6","trial_type":"survey-template","trial_index":2,"time_elapsed":74181,"internal_node_id":"0.0-2.0","experiment":"validation","task_version":"1.1","jspsych_version":"6.3.1","infrequency":0},{"responses":{"Q04":"1","Q09":"0","Q05":"0","Q02":"0","Q11":"4","Q03":"0","Q08":"0","Q01":"0","Q06":"1","Q10":"0","Q07":"1"},"rt":37792.29999998212,"item_order":[3,8,4,1,10,2,7,0,5,9,6],"radio_events":[7860.5,11725.699999988079,13485.699999988079,15101.40000000596,18190.5,20574.40000000596,23318.40000000596,25918.40000000596,28495.29999998212,31671.29999998212,37232.19999998808],"key_events":[],"mouse_events":[7860.5,11725.699999988079,13485.699999988079,15101.40000000596,18190.5,20574.40000000596,23318.40000000596,25918.40000000596,28071.29999998212,28495.29999998212,31671.29999998212,37232.19999998808,37791.09999999404],"straightlining":0.36363636363636365,"zigzagging":0.7,"honeypot":0,"survey":"neuroticism","trial_type":"survey-template","trial_index":3,"time_elapsed":111977,"internal_node_id":"0.0-3.0","experiment":"validation","task_version":"1.1","jspsych_version":"6.3.1","infrequency":0},{"responses":{"Q09":"2","Q02":"3","Q05":"0","Q07":"1","Q01":"3","Q06":"3","Q11":"0","Q03":"0","Q10":"1","Q04":"1","Q08":"4"},"rt":43978.60000002384,"item_order":[8,1,4,6,0,5,10,2,9,3,7],"radio_events":[6084.9000000059605,9677.90000000596,14837.800000011921,16157.700000017881,20101.80000001192,23646.600000023842,27542.70000001788,30903.5,34447.5,39176.40000000596,43168.30000001192],"key_events":[],"mouse_events":[6084.9000000059605,9677.90000000596,12157.90000000596,13837.700000017881,14837.800000011921,16157.700000017881,20101.80000001192,23646.600000023842,27542.70000001788,30903.5,34447.5,39176.40000000596,42336.30000001192,43168.30000001192,43977.40000000596],"straightlining":0.45454545454545453,"zigzagging":0.4,"honeypot":0,"survey":"openness","trial_type":"survey-template","trial_index":4,"time_elapsed":155958,"internal_node_id":"0.0-4.0","experiment":"validation","task_version":"1.1","jspsych_version":"6.3.1","infrequency":0},{"value":[0,1.2467532467532467,1.7666666666666666],"trial_type":"call-function","trial_index":5,"time_elapsed":155960,"internal_node_id":"0.0-5.0","experiment":"validation","task_version":"1.1","jspsych_version":"6.3.1","interactions":"[]"}]