[{"view_history":[{"page_index":0,"viewing_time":5960.299999982119}],"rt":5961.5,"trial_type":"instructions","trial_index":0,"time_elapsed":5987,"internal_node_id":"0.0-0.0","experiment":"validation","task_version":"1.1","jspsych_version":"6.3.1"},{"rt":20834.20000001788,"responses":{"age":"20","gender-categorical":"Female","gender-free-response":"","ethnicity":"Not Hispanic or Latino","race":["White"],"education":"Some college"},"survey":"demographics","trial_type":"survey-demo","trial_index":1,"time_elapsed":26848,"internal_node_id":"0.0-1.0","experiment":"validation","task_version":"1.1","jspsych_version":"6.3.1"},{"responses":{"Q06":"3","Q01":"3","Q05":"4","Q07":"2","Q03":"3","Q04":"4","Q02":"3"},"rt":93229.59999999404,"item_order":[5,0,4,6,2,3,1],"radio_events":[51458.59999999404,56468.09999999404,66051.59999999404,79331.80000001192,81515,84534.69999998808,92202.09999999404],"key_events":[],"mouse_events":[51458.59999999404,56468.09999999404,66051.59999999404,73232.90000000596,74249.90000000596,79331.80000001192,81515,84534.69999998808,86036.69999998808,92202.09999999404,93219.09999999404],"straightlining":0.42857142857142855,"zigzagging":0.5,"honeypot":0,"survey":"nfc6","trial_type":"survey-template","trial_index":2,"time_elapsed":120088,"internal_node_id":"0.0-2.0","experiment":"validation","task_version":"1.1","jspsych_version":"6.3.1","infrequency":0},{"responses":{"Q06":"3","Q09":"2","Q02":"3","Q04":"3","Q10":"4","Q11":"4","Q03":"2","Q01":"0","Q08":"3","Q05":"1","Q07":"0"},"rt":48673.19999998808,"item_order":[5,8,1,3,9,10,2,0,7,4,6],"radio_events":[4664.199999988079,7816.0999999940395,11192.09999999404,13434.899999976158,18012.79999998212,20668.899999976158,24510.399999976158,29437.899999976158,33359.69999998808,36865,42509.39999997616,44284.09999999404,47184],"key_events":[],"mouse_events":[4664.199999988079,7816.0999999940395,11192.09999999404,13434.899999976158,18012.79999998212,20668.899999976158,24510.399999976158,29437.899999976158,33359.69999998808,36865,42509.39999997616,44284.09999999404,47184,48670.39999997616],"straightlining":0.2727272727272727,"zigzagging":0.4,"honeypot":0,"survey":"neuroticism","trial_type":"survey-template","trial_index":3,"time_elapsed":168769,"internal_node_id":"0.0-3.0","experiment":"validation","task_version":"1.1","jspsych_version":"6.3.1","infrequency":0},{"responses":{"Q04":"0","Q05":"0","Q09":"3","Q01":"2","Q07":"4","Q06":"4","Q08":"3","Q10":"2","Q03":"2","Q11":"0","Q02":"3"},"rt":58899.29999998212,"item_order":[3,4,8,0,6,5,7,9,2,10,1],"radio_events":[11892.59999999404,12905.90000000596,18606.5,22360.29999998212,24434.90000000596,28693.40000000596,33072.79999998212,45271.79999998212,46009,51204.90000000596,54653.69999998808,57349.69999998808],"key_events":[],"mouse_events":[10562.40000000596,11892.59999999404,12905.90000000596,18606.5,22360.29999998212,24434.90000000596,28693.40000000596,33072.79999998212,45271.79999998212,46009,51204.90000000596,54653.69999998808,57349.69999998808,58896.5],"straightlining":0.2727272727272727,"zigzagging":0.3,"honeypot":0,"survey":"openness","trial_type":"survey-template","trial_index":4,"time_elapsed":227675,"internal_node_id":"0.0-4.0","experiment":"validation","task_version":"1.1","jspsych_version":"6.3.1","infrequency":0},{"value":[0,0.974025974025974,1.2],"trial_type":"call-function","trial_index":5,"time_elapsed":227685,"internal_node_id":"0.0-5.0","experiment":"validation","task_version":"1.1","jspsych_version":"6.3.1","interactions":"[]"}]