[{"view_history":[{"page_index":0,"viewing_time":2938}],"rt":2939,"trial_type":"instructions","trial_index":0,"time_elapsed":2944,"internal_node_id":"0.0-0.0","experiment":"validation","task_version":"2.0","jspsych_version":"6.3.1"},{"rt":10693,"responses":{"age":"47","gender-categorical":"Male","gender-free-response":"","ethnicity":"Not Hispanic or Latino","race":["Asian"],"education":"Master degree or higher"},"survey":"demographics","trial_type":"survey-demo","trial_index":1,"time_elapsed":14131,"internal_node_id":"0.0-1.0","experiment":"validation","task_version":"2.0","jspsych_version":"6.3.1"},{"responses":{"Q05":"3","Q01":"4","Q09":"4","Q02":"4","Q04":"4","Q06":"3","Q07":"4","Q03":"3","Q08":"4"},"rt":26601,"item_order":[4,0,8,1,3,5,6,2,7],"radio_events":[2533,5709,7388,9397,11076,13748,15140,17260,18740],"key_events":[],"mouse_events":[2533,4564,5709,7388,9397,11076,13748,15140,17260,18740,26600],"straightlining":0.5555555555555556,"zigzagging":0.875,"honeypot":0,"survey":"pcf","trial_type":"survey-template","trial_index":2,"time_elapsed":40747,"internal_node_id":"0.0-2.0","experiment":"validation","task_version":"2.0","jspsych_version":"6.3.1","infrequency":0},{"responses":{"Q08":"3","Q06":"3","Q03":"3","Q05":"1","Q02":"3","Q09":"3","Q07":"3","Q01":"3","Q04":"3","Q11":"0","Q10":"3"},"rt":52795,"item_order":[7,5,2,4,1,8,6,0,3,10,9],"radio_events":[2919,6183,10174,12310,15046,16215,25974,27030,29030,34066,36733],"key_events":[],"mouse_events":[2919,5472,6183,7959,10174,12310,15046,16215,25974,27030,29030,34066,36733,52795],"straightlining":0.7272727272727273,"zigzagging":0.1,"honeypot":0,"survey":"nfc10","trial_type":"survey-template","trial_index":3,"time_elapsed":93555,"internal_node_id":"0.0-3.0","experiment":"validation","task_version":"2.0","jspsych_version":"6.3.1","infrequency":0},{"rt":41999,"response":{"Q8":0,"Q4":5,"Q0":3,"Q1":4,"Q3":4,"Q6":0,"Q7":5,"Q5":5,"Q2":3},"question_order":[8,4,0,1,3,6,7,5,2],"survey":"sns","trial_type":"survey-likert","trial_index":4,"time_elapsed":135566,"internal_node_id":"0.0-4.0","experiment":"validation","task_version":"2.0","jspsych_version":"6.3.1","infrequency":0},{"value":0,"trial_type":"call-function","trial_index":5,"time_elapsed":135574,"internal_node_id":"0.0-5.0","experiment":"validation","task_version":"2.0","jspsych_version":"6.3.1","interactions":"[{\"event\":\"focus\",\"trial\":0,\"time\":1},{\"event\":\"blur\",\"trial\":2,\"time\":33751},{\"event\":\"focus\",\"trial\":2,\"time\":35109},{\"event\":\"blur\",\"trial\":2,\"time\":35469},{\"event\":\"focus\",\"trial\":2,\"time\":37402},{\"event\":\"blur\",\"trial\":2,\"time\":37414},{\"event\":\"focus\",\"trial\":2,\"time\":39789},{\"event\":\"blur\",\"trial\":3,\"time\":58335},{\"event\":\"focus\",\"trial\":3,\"time\":59592},{\"event\":\"blur\",\"trial\":3,\"time\":59954},{\"event\":\"focus\",\"trial\":3,\"time\":61463},{\"event\":\"blur\",\"trial\":3,\"time\":61464},{\"event\":\"focus\",\"trial\":3,\"time\":63821},{\"event\":\"blur\",\"trial\":3,\"time\":79494},{\"event\":\"focus\",\"trial\":3,\"time\":80615},{\"event\":\"blur\",\"trial\":3,\"time\":80932},{\"event\":\"focus\",\"trial\":3,\"time\":84233},{\"event\":\"blur\",\"trial\":3,\"time\":84238},{\"event\":\"focus\",\"trial\":3,\"time\":86853},{\"event\":\"blur\",\"trial\":4,\"time\":103082},{\"event\":\"focus\",\"trial\":4,\"time\":104435},{\"event\":\"blur\",\"trial\":4,\"time\":104800},{\"event\":\"focus\",\"trial\":4,\"time\":106392},{\"event\":\"blur\",\"trial\":4,\"time\":106403},{\"event\":\"focus\",\"trial\":4,\"time\":109057},{\"event\":\"blur\",\"trial\":4,\"time\":118420},{\"event\":\"focus\",\"trial\":4,\"time\":119705},{\"event\":\"blur\",\"trial\":4,\"time\":120056},{\"event\":\"focus\",\"trial\":4,\"time\":121315},{\"event\":\"blur\",\"trial\":4,\"time\":121319},{\"event\":\"focus\",\"trial\":4,\"time\":123569},{\"event\":\"blur\",\"trial\":4,\"time\":129304},{\"event\":\"focus\",\"trial\":4,\"time\":130476},{\"event\":\"blur\",\"trial\":4,\"time\":130841},{\"event\":\"focus\",\"trial\":4,\"time\":132096},{\"event\":\"blur\",\"trial\":4,\"time\":132100},{\"event\":\"focus\",\"trial\":4,\"time\":134193}]"}]