[{"view_history":[{"page_index":0,"viewing_time":1917.199999988079}],"rt":1917.5999999940395,"trial_type":"instructions","trial_index":0,"time_elapsed":1935,"internal_node_id":"0.0-0.0","experiment":"validation","task_version":"2.0","jspsych_version":"6.3.1"},{"rt":10288.09999999404,"responses":{"age":"22","gender-categorical":"Female","gender-free-response":"","ethnicity":"Not Hispanic or Latino","race":["Asian"],"education":"Bachelor degree"},"survey":"demographics","trial_type":"survey-demo","trial_index":1,"time_elapsed":12226,"internal_node_id":"0.0-1.0","experiment":"validation","task_version":"2.0","jspsych_version":"6.3.1"},{"rt":32606.5,"response":{"Q6":1,"Q5":3,"Q7":4,"Q4":3,"Q3":3,"Q8":0,"Q1":3,"Q2":2,"Q0":2},"question_order":[6,5,7,4,3,8,1,2,0],"survey":"sns","trial_type":"survey-likert","trial_index":2,"time_elapsed":44840,"internal_node_id":"0.0-2.0","experiment":"validation","task_version":"2.0","jspsych_version":"6.3.1","infrequency":0},{"responses":{"Q01":"2","Q06":"2","Q08":"2","Q05":"2","Q03":"1","Q02":"2","Q07":"3","Q09":"4","Q04":"2"},"rt":23192.90000000596,"item_order":[0,5,7,4,2,1,6,8,3],"radio_events":[2879.5,5758.5999999940395,6186.300000011921,6949.199999988079,11057.800000011921,12752.09999999404,15517.40000000596,16650.59999999404,20521.19999998808,21927.69999998808],"key_events":[],"mouse_events":[2879.5,3460.800000011921,3715.5999999940395,3921.800000011921,4113.9000000059605,4518.4000000059605,5758.5999999940395,6186.300000011921,6949.199999988079,7733,11057.800000011921,12752.09999999404,15517.40000000596,16650.59999999404,20521.19999998808,21927.69999998808,23189.40000000596],"straightlining":0.6666666666666666,"zigzagging":0.375,"honeypot":0,"survey":"pcf","trial_type":"survey-template","trial_index":3,"time_elapsed":68039,"internal_node_id":"0.0-3.0","experiment":"validation","task_version":"2.0","jspsych_version":"6.3.1","infrequency":0},{"responses":{"Q10":"3","Q11":"0","Q08":"2","Q06":"2","Q01":"2","Q04":"2","Q09":"3","Q02":"3","Q07":"3","Q05":"1","Q03":"1"},"rt":31736,"item_order":[9,10,7,5,0,3,8,1,6,4,2],"radio_events":[3843.5,4321.0999999940395,9015.799999982119,12560.699999988079,13209.699999988079,13684.09999999404,18616.399999976158,22126.19999998808,23348,23811.5,27545.79999998212,29913.69999998808],"key_events":[],"mouse_events":[3843.5,4321.0999999940395,9015.799999982119,12560.699999988079,13209.699999988079,13684.09999999404,14384.299999982119,18616.399999976158,22126.19999998808,23348,23811.5,27545.79999998212,29913.69999998808,31734.59999999404],"straightlining":0.5454545454545454,"zigzagging":0.1,"honeypot":0,"survey":"nfc10","trial_type":"survey-template","trial_index":4,"time_elapsed":99787,"internal_node_id":"0.0-4.0","experiment":"validation","task_version":"2.0","jspsych_version":"6.3.1","infrequency":0},{"value":0,"trial_type":"call-function","trial_index":5,"time_elapsed":99792,"internal_node_id":"0.0-5.0","experiment":"validation","task_version":"2.0","jspsych_version":"6.3.1","interactions":"[]"}]