[{"view_history":[{"page_index":0,"viewing_time":2004.1000000014901}],"rt":2004.2000000029802,"trial_type":"instructions","trial_index":0,"time_elapsed":2013,"internal_node_id":"0.0-0.0","experiment":"validation","task_version":"2.0","jspsych_version":"6.3.1"},{"rt":8886,"responses":{"age":"23","gender-categorical":"Female","gender-free-response":"","ethnicity":"Not Hispanic or Latino","race":["White"],"education":"Bachelor degree"},"survey":"demographics","trial_type":"survey-demo","trial_index":1,"time_elapsed":10901,"internal_node_id":"0.0-1.0","experiment":"validation","task_version":"2.0","jspsych_version":"6.3.1"},{"responses":{"Q05":"1","Q08":"1","Q03":"0","Q02":"0","Q06":"0","Q04":"0","Q09":"4","Q07":"2","Q01":"2"},"rt":28072.60000000149,"item_order":[4,7,2,1,5,3,8,6,0],"radio_events":[4393.79999999702,9662.79999999702,12852.79999999702,13841.89999999851,16175.10000000149,18589.79999999702,20631.70000000298,23038,26019.5],"key_events":[],"mouse_events":[4393.79999999702,9662.79999999702,12852.79999999702,13841.89999999851,16175.10000000149,18589.79999999702,20631.70000000298,23038,25444.79999999702,26019.5,28068.10000000149],"straightlining":0.5555555555555556,"zigzagging":0.125,"honeypot":0,"survey":"pcf","trial_type":"survey-template","trial_index":2,"time_elapsed":38980,"internal_node_id":"0.0-2.0","experiment":"validation","task_version":"2.0","jspsych_version":"6.3.1","infrequency":0},{"rt":34705.60000000149,"response":{"Q8":0,"Q1":2,"Q6":4,"Q0":0,"Q4":2,"Q2":1,"Q7":1,"Q5":4,"Q3":2},"question_order":[8,1,6,0,4,2,7,5,3],"survey":"sns","trial_type":"survey-likert","trial_index":3,"time_elapsed":73694,"internal_node_id":"0.0-3.0","experiment":"validation","task_version":"2.0","jspsych_version":"6.3.1","infrequency":0},{"responses":{"Q05":"1","Q11":"0","Q09":"1","Q07":"1","Q02":"1","Q06":"0","Q04":"1","Q01":"1","Q08":"2","Q10":"1","Q03":"1"},"rt":57529.5,"item_order":[4,10,8,6,1,5,3,0,7,9,2],"radio_events":[17296.70000000298,22982.10000000149,28232.80000000447,32770.40000000596,35847.70000000298,38263.90000000596,42307.5,44302.60000000149,46813,50280.90000000596,52251.60000000149],"key_events":[],"mouse_events":[17296.70000000298,22982.10000000149,28232.80000000447,32770.40000000596,35847.70000000298,38263.90000000596,42307.5,44302.60000000149,46813,50280.90000000596,52251.60000000149,57525.10000000149],"straightlining":0.45454545454545453,"zigzagging":0.4,"honeypot":0,"survey":"nfc10","trial_type":"survey-template","trial_index":4,"time_elapsed":131231,"internal_node_id":"0.0-4.0","experiment":"validation","task_version":"2.0","jspsych_version":"6.3.1","infrequency":0},{"value":0,"trial_type":"call-function","trial_index":5,"time_elapsed":131237,"internal_node_id":"0.0-5.0","experiment":"validation","task_version":"2.0","jspsych_version":"6.3.1","interactions":"[{\"event\":\"blur\",\"trial\":4,\"time\":77208},{\"event\":\"focus\",\"trial\":4,\"time\":81404},{\"event\":\"blur\",\"trial\":4,\"time\":82289},{\"event\":\"focus\",\"trial\":4,\"time\":85699}]"}]