[{"view_history":[{"page_index":0,"viewing_time":1996.800000011921}],"rt":1997.2000000178814,"trial_type":"instructions","trial_index":0,"time_elapsed":2021,"internal_node_id":"0.0-0.0","experiment":"validation","task_version":"1.1","jspsych_version":"6.3.1"},{"rt":13737.399999976158,"responses":{"age":"26","gender-categorical":"Female","gender-free-response":"","ethnicity":"Not Hispanic or Latino","race":["Asian","White"],"education":"Bachelor degree"},"survey":"demographics","trial_type":"survey-demo","trial_index":1,"time_elapsed":15762,"internal_node_id":"0.0-1.0","experiment":"validation","task_version":"1.1","jspsych_version":"6.3.1"},{"responses":{"Q06":"1","Q07":"3","Q11":"0","Q05":"3","Q09":"1","Q04":"1","Q08":"1","Q01":"3","Q02":"0","Q03":"2","Q10":"3"},"rt":42735.80000001192,"item_order":[5,6,10,4,8,3,7,0,1,2,9],"radio_events":[4649.4000000059605,14661.40000000596,18739.40000000596,21893.70000001788,25589.30000001192,27858,30499.20000001788,33651.30000001192,35526.10000002384,38413.90000000596,42057.20000001788],"key_events":[],"mouse_events":[4183.800000011921,4649.4000000059605,9984.5,14661.40000000596,18739.40000000596,21893.70000001788,25589.30000001192,27858,30499.20000001788,33651.30000001192,35526.10000002384,38413.90000000596,42057.20000001788,42734],"straightlining":0.45454545454545453,"zigzagging":0.2,"honeypot":0,"survey":"neuroticism","trial_type":"survey-template","trial_index":2,"time_elapsed":58502,"internal_node_id":"0.0-2.0","experiment":"validation","task_version":"1.1","jspsych_version":"6.3.1","infrequency":1},{"responses":{"Q06":"4","Q08":"4","Q01":"4","Q02":"3","Q04":"1","Q05":"0","Q09":"4","Q07":"4","Q03":"4","Q11":"0","Q10":"4"},"rt":26503.20000001788,"item_order":[5,7,0,1,3,4,8,6,2,10,9],"radio_events":[4187,5779.0999999940395,7199.4000000059605,8402.90000000596,10064.800000011921,12225.800000011921,13755.5,16325.09999999404,19549.20000001788,21033.09999999404,24456.80000001192],"key_events":[],"mouse_events":[4187,5779.0999999940395,7199.4000000059605,8402.90000000596,10064.800000011921,12225.800000011921,13755.5,16325.09999999404,19549.20000001788,21033.09999999404,24456.80000001192,26501.5],"straightlining":0.5454545454545454,"zigzagging":0.6,"honeypot":0,"survey":"openness","trial_type":"survey-template","trial_index":3,"time_elapsed":85009,"internal_node_id":"0.0-3.0","experiment":"validation","task_version":"1.1","jspsych_version":"6.3.1","infrequency":0},{"responses":{"Q03":"3","Q07":"2","Q05":"1","Q04":"2","Q01":"3","Q02":"1","Q06":"1"},"rt":35242.30000001192,"item_order":[2,6,4,3,0,1,5],"radio_events":[6285.0999999940395,7265.199999988079,18138.59999999404,21462.59999999404,26232.59999999404,29260.5,33998.80000001192],"key_events":[],"mouse_events":[4577,6285.0999999940395,7265.199999988079,18138.59999999404,21462.59999999404,26232.59999999404,29260.5,33998.80000001192,35241.19999998808],"straightlining":0.5714285714285714,"zigzagging":0.6666666666666666,"honeypot":0,"survey":"nfc6","trial_type":"survey-template","trial_index":4,"time_elapsed":120254,"internal_node_id":"0.0-4.0","experiment":"validation","task_version":"1.1","jspsych_version":"6.3.1","infrequency":0},{"value":[1,1.5714285714285714,1.4666666666666668],"trial_type":"call-function","trial_index":5,"time_elapsed":120256,"internal_node_id":"0.0-5.0","experiment":"validation","task_version":"1.1","jspsych_version":"6.3.1","interactions":"[{\"event\":\"blur\",\"trial\":2,\"time\":23108},{\"event\":\"focus\",\"trial\":2,\"time\":25684}]"}]