[{"view_history":[{"page_index":0,"viewing_time":2141.2999999523163}],"rt":2141.5,"trial_type":"instructions","trial_index":0,"time_elapsed":2156,"internal_node_id":"0.0-0.0","experiment":"validation","task_version":"2.0","jspsych_version":"6.3.1"},{"rt":13679.299999952316,"responses":{"age":"23","gender-categorical":"Male","gender-free-response":"","ethnicity":"Not Hispanic or Latino","race":["White"],"education":"Bachelor degree"},"survey":"demographics","trial_type":"survey-demo","trial_index":1,"time_elapsed":15837,"internal_node_id":"0.0-1.0","experiment":"validation","task_version":"2.0","jspsych_version":"6.3.1"},{"responses":{"Q05":"3","Q10":"2","Q11":"0","Q02":"2","Q03":"3","Q04":"3","Q06":"3","Q08":"3","Q01":"2","Q07":"3","Q09":"3"},"rt":62818.200000047684,"item_order":[4,9,10,1,2,3,5,7,0,6,8],"radio_events":[10076.900000095367,11801.900000095367,17284.10000014305,28024.400000095367,28579.299999952316,35951.90000009537,39244.40000009537,45304.799999952316,48192.10000014305,50726.799999952316,53299.700000047684,58774.700000047684,59914.799999952316,62082.200000047684],"key_events":[],"mouse_events":[10076.900000095367,11801.900000095367,16601.799999952316,17284.10000014305,24484.200000047684,26247,28024.400000095367,28579.299999952316,35951.90000009537,37654.299999952316,38756.799999952316,39244.40000009537,43534.60000014305,44494.299999952316,45304.799999952316,48192.10000014305,50726.799999952316,53299.700000047684,58129.299999952316,58774.700000047684,59914.799999952316,62082.200000047684,62817.10000014305],"straightlining":0.36363636363636365,"zigzagging":0.4,"honeypot":0,"survey":"nfc10","trial_type":"survey-template","trial_index":2,"time_elapsed":78658,"internal_node_id":"0.0-2.0","experiment":"validation","task_version":"2.0","jspsych_version":"6.3.1","infrequency":0},{"responses":{"Q07":"3","Q08":"1","Q04":"2","Q06":"3","Q02":"3","Q09":"4","Q01":"3","Q03":"2","Q05":"2"},"rt":32825.799999952316,"item_order":[6,7,3,5,1,8,0,2,4],"radio_events":[3461.7999999523163,6679.200000047684,10024.5,12754.400000095367,19294.200000047684,23959.400000095367,25639.60000014305,29982.10000014305,32007.200000047684],"key_events":[],"mouse_events":[2711.600000143051,3461.7999999523163,5884.200000047684,6679.200000047684,10024.5,12754.400000095367,19294.200000047684,22849.5,23959.400000095367,25107,25639.60000014305,29982.10000014305,32007.200000047684,32825.10000014305],"straightlining":0.4444444444444444,"zigzagging":0.375,"honeypot":0,"survey":"pcf","trial_type":"survey-template","trial_index":3,"time_elapsed":111485,"internal_node_id":"0.0-3.0","experiment":"validation","task_version":"2.0","jspsych_version":"6.3.1","infrequency":0},{"rt":47233.300000190735,"response":{"Q1":3,"Q4":3,"Q8":0,"Q3":4,"Q5":3,"Q0":3,"Q7":4,"Q6":0,"Q2":2},"question_order":[1,4,8,3,5,0,7,6,2],"survey":"sns","trial_type":"survey-likert","trial_index":4,"time_elapsed":158721,"internal_node_id":"0.0-4.0","experiment":"validation","task_version":"2.0","jspsych_version":"6.3.1","infrequency":0},{"value":0,"trial_type":"call-function","trial_index":5,"time_elapsed":158722,"internal_node_id":"0.0-5.0","experiment":"validation","task_version":"2.0","jspsych_version":"6.3.1","interactions":"[]"}]