[{"view_history":[{"page_index":0,"viewing_time":1967.3999999985099}],"rt":1967.6999999955297,"trial_type":"instructions","trial_index":0,"time_elapsed":1988,"internal_node_id":"0.0-0.0","experiment":"validation","task_version":"2.0","jspsych_version":"6.3.1"},{"rt":15778.90000000596,"responses":{"age":"34","gender-categorical":"Male","gender-free-response":"","ethnicity":"Not Hispanic or Latino","race":["White"],"education":"Associate degree"},"survey":"demographics","trial_type":"survey-demo","trial_index":1,"time_elapsed":17770,"internal_node_id":"0.0-1.0","experiment":"validation","task_version":"2.0","jspsych_version":"6.3.1"},{"responses":{"Q05":"2","Q04":"3","Q01":"3","Q02":"3","Q03":"3","Q08":"4","Q06":"3","Q09":"0","Q07":"4"},"rt":23111.5,"item_order":[4,3,0,1,2,7,5,8,6],"radio_events":[3993.39999999851,7653.79999999702,7992.60000000149,8395.79999999702,10216.79999999702,12967.10000000149,13463.10000000149,15544.10000000149,18124.60000000149,20808.69999999553],"key_events":[],"mouse_events":[2431.2999999970198,3560.2999999970198,3993.39999999851,4614.60000000149,5175.29999999702,5593.39999999851,6183.5,7131.5,7653.79999999702,7992.60000000149,8395.79999999702,9300.89999999851,10216.79999999702,11635.10000000149,12071.89999999851,12967.10000000149,13463.10000000149,14430,15544.10000000149,18124.60000000149,18879.69999999553,20808.69999999553,22320.69999999553,23109.69999999553],"straightlining":0.5555555555555556,"zigzagging":0.5,"honeypot":0,"survey":"pcf","trial_type":"survey-template","trial_index":2,"time_elapsed":40887,"internal_node_id":"0.0-2.0","experiment":"validation","task_version":"2.0","jspsych_version":"6.3.1","infrequency":1},{"rt":39656.40000000596,"response":{"Q4":3,"Q5":2,"Q7":3,"Q6":1,"Q1":4,"Q3":4,"Q2":5,"Q8":0,"Q0":3},"question_order":[4,5,7,6,1,3,2,8,0],"survey":"sns","trial_type":"survey-likert","trial_index":3,"time_elapsed":80549,"internal_node_id":"0.0-3.0","experiment":"validation","task_version":"2.0","jspsych_version":"6.3.1","infrequency":0},{"responses":{"Q05":"1","Q08":"3","Q02":"3","Q10":"2","Q01":"1","Q06":"1","Q09":"1","Q07":"1","Q03":"3","Q04":"4","Q11":"0"},"rt":41392.10000000149,"item_order":[4,7,1,9,0,5,8,6,2,3,10],"radio_events":[9288.90000000596,10334.20000000298,10890.20000000298,12919.10000000149,14765.5,18205.80000000447,20133.90000000596,22392.10000000149,24408.30000000447,25387.30000000447,30671.70000000298,31750.80000000447,38010.20000000298],"key_events":[],"mouse_events":[3510.4000000059605,4802.60000000149,5310.5,6425.70000000298,7043.5,7728.10000000149,8041.80000000447,9288.90000000596,9967.20000000298,10334.20000000298,10890.20000000298,11467,11853.90000000596,12919.10000000149,13587.5,14765.5,17802.90000000596,18205.80000000447,20133.90000000596,22392.10000000149,23201.10000000149,24408.30000000447,25387.30000000447,27938.60000000149,30671.70000000298,31750.80000000447,33616.60000000149,38010.20000000298,41390.5],"straightlining":0.45454545454545453,"zigzagging":0.3,"honeypot":0,"survey":"nfc10","trial_type":"survey-template","trial_index":4,"time_elapsed":121945,"internal_node_id":"0.0-4.0","experiment":"validation","task_version":"2.0","jspsych_version":"6.3.1","infrequency":0},{"value":1,"trial_type":"call-function","trial_index":5,"time_elapsed":121947,"internal_node_id":"0.0-5.0","experiment":"validation","task_version":"2.0","jspsych_version":"6.3.1","interactions":"[{\"event\":\"blur\",\"trial\":1,\"time\":4388},{\"event\":\"focus\",\"trial\":1,\"time\":9292}]"}]