[{"view_history":[{"page_index":0,"viewing_time":2198.1000003814697}],"rt":2198.7000002861023,"trial_type":"instructions","trial_index":0,"time_elapsed":2203,"internal_node_id":"0.0-0.0","experiment":"validation","task_version":"1.1","jspsych_version":"6.3.1"},{"rt":12856.60000038147,"responses":{"age":"22","gender-categorical":"Female","gender-free-response":"","ethnicity":"Not Hispanic or Latino","race":["Asian"],"education":"Bachelor degree"},"survey":"demographics","trial_type":"survey-demo","trial_index":1,"time_elapsed":15063,"internal_node_id":"0.0-1.0","experiment":"validation","task_version":"1.1","jspsych_version":"6.3.1"},{"responses":{"Q05":"3","Q02":"2","Q08":"0","Q03":"3","Q06":"2","Q10":"1","Q01":"3","Q04":"2","Q11":"4","Q07":"3","Q09":"3"},"rt":44347.5,"item_order":[4,1,7,2,5,9,0,3,10,6,8],"radio_events":[8153.699999809265,11304.300000190735,13252.199999809265,15166.900000095367,18210.199999809265,19570.199999809265,20846.199999809265,24461,26176,29798.800000190735,31543.199999809265,33105.09999990463,36116.90000009537,41447.800000190735],"key_events":[],"mouse_events":[8153.699999809265,11304.300000190735,13252.199999809265,15166.900000095367,18210.199999809265,19570.199999809265,20846.199999809265,24461,26176,29798.800000190735,31543.199999809265,33105.09999990463,36116.90000009537,41447.800000190735,44343.300000190735],"straightlining":0.36363636363636365,"zigzagging":0.5,"honeypot":0,"survey":"neuroticism","trial_type":"survey-template","trial_index":2,"time_elapsed":59420,"internal_node_id":"0.0-2.0","experiment":"validation","task_version":"1.1","jspsych_version":"6.3.1","infrequency":0},{"responses":{"Q04":"3","Q01":"2","Q02":"3","Q03":"1","Q06":"2","Q07":"2","Q05":"3"},"rt":50870.7999997139,"item_order":[3,0,1,2,5,6,4],"radio_events":[8551,10970,17896.400000095367,21147.400000095367,28640.699999809265,32958.59999990463,46959.90000009537],"key_events":[],"mouse_events":[8551,10970,17896.400000095367,21147.400000095367,28640.699999809265,32958.59999990463,46959.90000009537,50866.59999990463],"straightlining":0.42857142857142855,"zigzagging":0.6666666666666666,"honeypot":0,"survey":"nfc6","trial_type":"survey-template","trial_index":3,"time_elapsed":110300,"internal_node_id":"0.0-3.0","experiment":"validation","task_version":"1.1","jspsych_version":"6.3.1","infrequency":0},{"responses":{"Q07":"3","Q11":"0","Q06":"3","Q08":"2","Q03":"3","Q01":"3","Q05":"0","Q10":"4","Q04":"1","Q09":"3","Q02":"4"},"rt":33917.59999990463,"item_order":[6,10,5,7,2,0,4,9,3,8,1],"radio_events":[6304.39999961853,10007.5,13294.299999713898,14358.099999904633,17151.89999961853,19748.699999809265,22924,25118.599999904633,28750,31689.099999904633,33124.699999809265],"key_events":[],"mouse_events":[6304.39999961853,10007.5,13294.299999713898,14358.099999904633,17151.89999961853,19748.699999809265,22924,25118.599999904633,28750,31689.099999904633,33124.699999809265,33913.59999990463],"straightlining":0.2727272727272727,"zigzagging":0.6,"honeypot":0,"survey":"openness","trial_type":"survey-template","trial_index":4,"time_elapsed":144226,"internal_node_id":"0.0-4.0","experiment":"validation","task_version":"1.1","jspsych_version":"6.3.1","infrequency":0},{"value":[0,1.0649350649350648,1.7666666666666666],"trial_type":"call-function","trial_index":5,"time_elapsed":144234,"internal_node_id":"0.0-5.0","experiment":"validation","task_version":"1.1","jspsych_version":"6.3.1","interactions":"[]"}]