[{"view_history":[{"page_index":0,"viewing_time":5477.5}],"rt":5477.79999999702,"trial_type":"instructions","trial_index":0,"time_elapsed":5487,"internal_node_id":"0.0-0.0","experiment":"validation","task_version":"2.0","jspsych_version":"6.3.1"},{"rt":16447.39999999851,"responses":{"age":"22","gender-categorical":"Female","gender-free-response":"","ethnicity":"Not Hispanic or Latino","race":["White"],"education":"Less than high school"},"survey":"demographics","trial_type":"survey-demo","trial_index":1,"time_elapsed":21936,"internal_node_id":"0.0-1.0","experiment":"validation","task_version":"2.0","jspsych_version":"6.3.1"},{"responses":{"Q08":"3","Q11":"0","Q05":"2","Q01":"3","Q09":"2","Q07":"3","Q10":"4","Q04":"3","Q06":"1","Q02":"2","Q03":"3"},"rt":97346.80000000447,"item_order":[7,10,4,0,8,6,9,3,5,1,2],"radio_events":[10616.90000000596,17231.60000000149,33842.60000000149,37713.40000000596,43500.30000000447,51286.80000000447,64899.80000000447,65896.10000000149,72805.10000000149,82649.80000000447,85260.90000000596,91507.5,94635.90000000596],"key_events":[10616.90000000596,17231.60000000149,33842.60000000149,37713.40000000596,43500.30000000447,51286.80000000447,64139.20000000298,64899.80000000447,65896.10000000149,72132.30000000447,72805.10000000149,82649.80000000447,85260.90000000596,91507.5,94635.90000000596,97346],"mouse_events":[],"straightlining":0.2727272727272727,"zigzagging":0.6,"honeypot":0,"survey":"nfc10","trial_type":"survey-template","trial_index":2,"time_elapsed":119287,"internal_node_id":"0.0-2.0","experiment":"validation","task_version":"2.0","jspsych_version":"6.3.1","infrequency":0},{"responses":{"Q05":"1","Q04":"2","Q01":"2","Q08":"2","Q03":"3","Q07":"3","Q06":"2","Q09":"4","Q02":"2"},"rt":62770.5,"item_order":[4,3,0,7,2,6,5,8,1],"radio_events":[4782.89999999851,12885,16800.79999999702,23545.29999999702,24747.29999999702,33935.5,37381.89999999851,44963.79999999702,51238.39999999851,61456.29999999702],"key_events":[4782.89999999851,11063.10000000149,12219,12885,16800.79999999702,23160.69999999553,23545.29999999702,23982.60000000149,24309.5,24747.29999999702,32902.69999999553,33218.29999999702,33525.60000000149,33935.5,37381.89999999851,44963.79999999702,51238.39999999851,61456.29999999702,62769.89999999851],"mouse_events":[],"straightlining":0.5555555555555556,"zigzagging":0.375,"honeypot":0,"survey":"pcf","trial_type":"survey-template","trial_index":3,"time_elapsed":182060,"internal_node_id":"0.0-3.0","experiment":"validation","task_version":"2.0","jspsych_version":"6.3.1","infrequency":0},{"rt":82864.20000000298,"response":{"Q6":1,"Q4":4,"Q2":2,"Q5":4,"Q0":2,"Q3":4,"Q7":4,"Q1":3,"Q8":0},"question_order":[6,4,2,5,0,3,7,1,8],"survey":"sns","trial_type":"survey-likert","trial_index":4,"time_elapsed":264929,"internal_node_id":"0.0-4.0","experiment":"validation","task_version":"2.0","jspsych_version":"6.3.1","infrequency":0},{"value":0,"trial_type":"call-function","trial_index":5,"time_elapsed":264931,"internal_node_id":"0.0-5.0","experiment":"validation","task_version":"2.0","jspsych_version":"6.3.1","interactions":"[]"}]