[{"view_history":[{"page_index":0,"viewing_time":1843.2999999988824}],"rt":1844.2999999988824,"trial_type":"instructions","trial_index":0,"time_elapsed":1862,"internal_node_id":"0.0-0.0","experiment":"validation","task_version":"1.1","jspsych_version":"6.3.1"},{"rt":11116.299999998882,"responses":{"age":"29","gender-categorical":"Female","gender-free-response":"","ethnicity":"Not Hispanic or Latino","race":["White"],"education":"Bachelor degree"},"survey":"demographics","trial_type":"survey-demo","trial_index":1,"time_elapsed":12987,"internal_node_id":"0.0-1.0","experiment":"validation","task_version":"1.1","jspsych_version":"6.3.1"},{"responses":{"Q04":"3","Q07":"2","Q05":"3","Q06":"3","Q01":"3","Q03":"3","Q02":"3"},"rt":39901.800000000745,"item_order":[3,6,4,5,0,2,1],"radio_events":[8207.10000000149,12465.400000000373,17035.10000000149,21362.300000000745,21584.400000000373,25482.60000000149,36909.800000000745,38617.800000000745],"key_events":[],"mouse_events":[8207.10000000149,12465.400000000373,16048.300000000745,17035.10000000149,21362.300000000745,21584.400000000373,25482.60000000149,32475.300000000745,36909.800000000745,38617.800000000745,39898.70000000112],"straightlining":0.5714285714285714,"zigzagging":0.3333333333333333,"honeypot":0,"survey":"nfc6","trial_type":"survey-template","trial_index":2,"time_elapsed":52900,"internal_node_id":"0.0-2.0","experiment":"validation","task_version":"1.1","jspsych_version":"6.3.1","infrequency":0},{"responses":{"Q05":"0","Q11":"0","Q02":"4","Q01":"4","Q06":"3","Q07":"4","Q04":"0","Q03":"3","Q08":"4","Q10":"4","Q09":"4"},"rt":30246.5,"item_order":[4,10,1,0,5,6,3,2,7,9,8],"radio_events":[4792.4000000003725,6676.699999999255,8511.900000000373,9964.299999998882,11716.900000000373,12883.699999999255,21973.699999999255,23011.400000000373,25038.400000000373,27607.199999999255,28534.299999998882,28734.900000000373],"key_events":[],"mouse_events":[4792.4000000003725,6676.699999999255,8511.900000000373,9964.299999998882,11716.900000000373,12883.699999999255,20239.799999998882,21973.699999999255,23011.400000000373,25038.400000000373,27607.199999999255,28534.299999998882,28734.900000000373,30242.5],"straightlining":0.45454545454545453,"zigzagging":0.5,"honeypot":0,"survey":"openness","trial_type":"survey-template","trial_index":3,"time_elapsed":83156,"internal_node_id":"0.0-3.0","experiment":"validation","task_version":"1.1","jspsych_version":"6.3.1","infrequency":0},{"responses":{"Q09":"3","Q04":"3","Q06":"4","Q11":"4","Q03":"2","Q01":"2","Q07":"4","Q05":"3","Q02":"2","Q08":"2","Q10":"2"},"rt":52533.5,"item_order":[8,3,5,10,2,0,6,4,1,7,9],"radio_events":[33806.199999999255,35718.5,37312.59999999963,39217.59999999963,40579.39999999851,42067.199999999255,44544.09999999963,47795.89999999851,49158.29999999888,50299,51194.5],"key_events":[],"mouse_events":[33806.199999999255,35718.5,37312.59999999963,39217.59999999963,40579.39999999851,42067.199999999255,44544.09999999963,47795.89999999851,49158.29999999888,50299,51194.5,52529.89999999851],"straightlining":0.45454545454545453,"zigzagging":0.2,"honeypot":0,"survey":"neuroticism","trial_type":"survey-template","trial_index":4,"time_elapsed":135698,"internal_node_id":"0.0-4.0","experiment":"validation","task_version":"1.1","jspsych_version":"6.3.1","infrequency":0},{"value":[0,1.4805194805194806,1.0333333333333332],"trial_type":"call-function","trial_index":5,"time_elapsed":135703,"internal_node_id":"0.0-5.0","experiment":"validation","task_version":"1.1","jspsych_version":"6.3.1","interactions":"[]"}]