[{"view_history":[{"page_index":0,"viewing_time":34730}],"rt":34732,"trial_type":"instructions","trial_index":0,"time_elapsed":34740,"internal_node_id":"0.0-0.0","experiment":"validation","task_version":"1.1","jspsych_version":"6.3.1"},{"rt":12800,"responses":{"age":"36","gender-categorical":"Male","gender-free-response":"","ethnicity":"Not Hispanic or Latino","race":["White"],"education":"Bachelor degree"},"survey":"demographics","trial_type":"survey-demo","trial_index":1,"time_elapsed":47555,"internal_node_id":"0.0-1.0","experiment":"validation","task_version":"1.1","jspsych_version":"6.3.1"},{"responses":{"Q09":"1","Q03":"2","Q04":"1","Q06":"3","Q05":"0","Q02":"2","Q11":"0","Q08":"2","Q10":"2","Q01":"3","Q07":"3"},"rt":67156,"item_order":[8,2,3,5,4,1,10,7,9,0,6],"radio_events":[6830,9626,13860,32445,35898,38500,41140,44984,50312,52436,66076],"key_events":[],"mouse_events":[6830,9626,13860,32445,35413,35898,38500,41140,44984,48256,50312,52436,53234,66076,67156],"straightlining":0.36363636363636365,"zigzagging":0.3,"honeypot":0,"survey":"openness","trial_type":"survey-template","trial_index":2,"time_elapsed":114720,"internal_node_id":"0.0-2.0","experiment":"validation","task_version":"1.1","jspsych_version":"6.3.1","infrequency":0},{"responses":{"Q02":"3","Q06":"4","Q07":"2","Q03":"3","Q04":"3","Q05":"4","Q01":"3"},"rt":43861,"item_order":[1,5,6,2,3,4,0],"radio_events":[6120,16281,18618,23688,30515,37524,43164],"key_events":[],"mouse_events":[6120,15540,16281,18618,21268,22510,23134,23688,30515,36313,36906,37524,43164,43860],"straightlining":0.2857142857142857,"zigzagging":0.5,"honeypot":0,"survey":"nfc6","trial_type":"survey-template","trial_index":3,"time_elapsed":158587,"internal_node_id":"0.0-3.0","experiment":"validation","task_version":"1.1","jspsych_version":"6.3.1","infrequency":0},{"responses":{"Q10":"0","Q11":"4","Q05":"1","Q01":"0","Q09":"1","Q06":"2","Q08":"1","Q03":"0","Q04":"0","Q02":"0","Q07":"1"},"rt":26644,"item_order":[9,10,4,0,8,5,7,2,3,1,6],"radio_events":[4345,6300,9510,10894,13644,16111,18072,20650,21854,23821,25886],"key_events":[],"mouse_events":[4345,5549,6300,9510,10894,13644,16111,18072,20650,21854,23080,23821,25886,26644],"straightlining":0.36363636363636365,"zigzagging":0.3,"honeypot":0,"survey":"neuroticism","trial_type":"survey-template","trial_index":4,"time_elapsed":185235,"internal_node_id":"0.0-4.0","experiment":"validation","task_version":"1.1","jspsych_version":"6.3.1","infrequency":0},{"value":[0,1.012987012987013,1.1],"trial_type":"call-function","trial_index":5,"time_elapsed":185237,"internal_node_id":"0.0-5.0","experiment":"validation","task_version":"1.1","jspsych_version":"6.3.1","interactions":"[{\"event\":\"focus\",\"trial\":0,\"time\":2},{\"event\":\"blur\",\"trial\":0,\"time\":6450},{\"event\":\"focus\",\"trial\":0,\"time\":23052},{\"event\":\"blur\",\"trial\":0,\"time\":25017},{\"event\":\"focus\",\"trial\":0,\"time\":28981},{\"event\":\"blur\",\"trial\":0,\"time\":30072},{\"event\":\"focus\",\"trial\":0,\"time\":34655}]"}]