[{"view_history":[{"page_index":0,"viewing_time":7848}],"rt":7850,"trial_type":"instructions","trial_index":0,"time_elapsed":7884,"internal_node_id":"0.0-0.0","experiment":"validation","task_version":"1.1","jspsych_version":"6.3.1"},{"rt":227110.90000009537,"responses":{"age":"26","gender-categorical":"Male","gender-free-response":"","ethnicity":"Not Hispanic or Latino","race":["White"],"education":"Master degree or higher"},"survey":"demographics","trial_type":"survey-demo","trial_index":1,"time_elapsed":235000,"internal_node_id":"0.0-1.0","experiment":"validation","task_version":"1.1","jspsych_version":"6.3.1"},{"responses":{"Q03":"0","Q11":"0","Q01":"3","Q09":"4","Q04":"4","Q02":"0","Q07":"4","Q06":"1","Q05":"0","Q08":"0","Q10":"0"},"rt":58430.300000071526,"item_order":[2,10,0,8,3,1,6,5,4,7,9],"radio_events":[11413.5,14028,17574.899999976158,21246.700000047684,24229.5,25855.600000023842,31832.700000047684,35775.700000047684,37500.89999997616,41235.200000047684,44500.300000071526,50342.5,51649,53682.300000071526,56209.5,57404.200000047684],"key_events":[],"mouse_events":[11413.5,14028,17574.899999976158,21246.700000047684,24229.5,25855.600000023842,31832.700000047684,35775.700000047684,37500.89999997616,41235.200000047684,44500.300000071526,50342.5,51649,53682.300000071526,56209.5,57404.200000047684,58427.5],"straightlining":0.5454545454545454,"zigzagging":0.1,"honeypot":0,"survey":"openness","trial_type":"survey-template","trial_index":2,"time_elapsed":293438,"internal_node_id":"0.0-2.0","experiment":"validation","task_version":"1.1","jspsych_version":"6.3.1","infrequency":0},{"responses":{"Q08":"0","Q10":"0","Q01":"0","Q03":"0","Q05":"0","Q06":"0","Q02":"4","Q07":"0","Q11":"4","Q04":"0","Q09":"0"},"rt":87672.10000002384,"item_order":[7,9,0,2,4,5,1,6,10,3,8],"radio_events":[11019.899999976158,14631.399999976158,16283.100000023842,20336.299999952316,24700.399999976158,26104.899999976158,28557.700000047684,33203.799999952316,41388.700000047684,47994.5,75032.70000004768,82564.29999995232,86287.39999997616],"key_events":[],"mouse_events":[11019.899999976158,14631.399999976158,16283.100000023842,20336.299999952316,24700.399999976158,26104.899999976158,28557.700000047684,33203.799999952316,41388.700000047684,47994.5,75032.70000004768,82564.29999995232,86287.39999997616,87668.20000004768],"straightlining":0.6363636363636364,"zigzagging":0.4,"honeypot":0,"survey":"neuroticism","trial_type":"survey-template","trial_index":3,"time_elapsed":381115,"internal_node_id":"0.0-3.0","experiment":"validation","task_version":"1.1","jspsych_version":"6.3.1","infrequency":0},{"responses":{"Q04":"1","Q01":"3","Q07":"2","Q05":"4","Q02":"4","Q06":"4","Q03":"0"},"rt":42498.89999997616,"item_order":[3,0,6,4,1,5,2],"radio_events":[9815.199999928474,13990.100000023842,17551.100000023842,24599.899999976158,28519.299999952316,35433.60000002384,38379],"key_events":[],"mouse_events":[9815.199999928474,13990.100000023842,17551.100000023842,24599.899999976158,28519.299999952316,35433.60000002384,38379,42496.60000002384],"straightlining":0.5714285714285714,"zigzagging":0.16666666666666666,"honeypot":0,"survey":"nfc6","trial_type":"survey-template","trial_index":4,"time_elapsed":423619,"internal_node_id":"0.0-4.0","experiment":"validation","task_version":"1.1","jspsych_version":"6.3.1","infrequency":0},{"value":[0,1.753246753246753,0.6666666666666666],"trial_type":"call-function","trial_index":5,"time_elapsed":423622,"internal_node_id":"0.0-5.0","experiment":"validation","task_version":"1.1","jspsych_version":"6.3.1","interactions":"[]"}]