[{"view_history":[{"page_index":0,"viewing_time":3273.60000000149}],"rt":3273.89999999851,"trial_type":"instructions","trial_index":0,"time_elapsed":3290,"internal_node_id":"0.0-0.0","experiment":"validation","task_version":"1.1","jspsych_version":"6.3.1"},{"rt":21172.80000000447,"responses":{"age":"21","gender-categorical":"Female","gender-free-response":"","ethnicity":"Hispanic or Latino","race":["White"],"education":"Some college"},"survey":"demographics","trial_type":"survey-demo","trial_index":1,"time_elapsed":24465,"internal_node_id":"0.0-1.0","experiment":"validation","task_version":"1.1","jspsych_version":"6.3.1"},{"responses":{"Q03":"3","Q01":"1","Q07":"2","Q04":"3","Q05":"3","Q06":"3","Q02":"0"},"rt":85355,"item_order":[2,0,6,3,4,5,1],"radio_events":[7498.30000000447,13116.30000000447,14744.10000000149,19799.70000000298,32206.80000000447,37923.30000000447,44314.30000000447,46474.30000000447,64161.80000000447,78421.80000000447],"key_events":[],"mouse_events":[7498.30000000447,13116.30000000447,14744.10000000149,19799.70000000298,32206.80000000447,37923.30000000447,42618.70000000298,44314.30000000447,46474.30000000447,64161.80000000447,78421.80000000447,85353.30000000447],"straightlining":0.42857142857142855,"zigzagging":0.3333333333333333,"honeypot":0,"survey":"nfc6","trial_type":"survey-template","trial_index":2,"time_elapsed":109825,"internal_node_id":"0.0-2.0","experiment":"validation","task_version":"1.1","jspsych_version":"6.3.1","infrequency":0},{"responses":{"Q04":"2","Q10":"1","Q08":"1","Q09":"3","Q01":"2","Q02":"2","Q03":"3","Q06":"1","Q07":"3","Q11":"4","Q05":"2"},"rt":34884,"item_order":[3,9,7,8,0,1,2,5,6,10,4],"radio_events":[4495.39999999851,6925.89999999851,9310.89999999851,11224,13587.20000000298,14667.30000000447,24253.80000000447,25671.39999999851,28124.10000000149,30712.10000000149,33457.39999999851],"key_events":[],"mouse_events":[4495.39999999851,6925.89999999851,9310.89999999851,11224,13587.20000000298,14667.30000000447,24253.80000000447,25671.39999999851,28124.10000000149,30712.10000000149,32647,33082.60000000149,33457.39999999851,34882.80000000447],"straightlining":0.36363636363636365,"zigzagging":0.3,"honeypot":0,"survey":"neuroticism","trial_type":"survey-template","trial_index":3,"time_elapsed":144712,"internal_node_id":"0.0-3.0","experiment":"validation","task_version":"1.1","jspsych_version":"6.3.1","infrequency":0},{"responses":{"Q05":"1","Q09":"1","Q10":"4","Q11":"0","Q06":"3","Q07":"4","Q02":"4","Q04":"4","Q01":"4","Q08":"1","Q03":"4"},"rt":50111.79999999702,"item_order":[4,8,9,10,5,6,1,3,0,7,2],"radio_events":[5815.5,10114.5,13512,16393.5,20533.5,25844.5,28552.69999999553,31252.89999999851,36248.5,40456.89999999851,45399.89999999851,48647.89999999851],"key_events":[],"mouse_events":[5815.5,10114.5,12552.5,13512,16393.5,20533.5,25844.5,28552.69999999553,31252.89999999851,35543.09999999404,36248.5,40456.89999999851,44544.5,45025.09999999404,45399.89999999851,48647.89999999851,50110.59999999404],"straightlining":0.36363636363636365,"zigzagging":0.7,"honeypot":0,"survey":"openness","trial_type":"survey-template","trial_index":4,"time_elapsed":194826,"internal_node_id":"0.0-4.0","experiment":"validation","task_version":"1.1","jspsych_version":"6.3.1","infrequency":0},{"value":[0,1.155844155844156,1.3333333333333333],"trial_type":"call-function","trial_index":5,"time_elapsed":194828,"internal_node_id":"0.0-5.0","experiment":"validation","task_version":"1.1","jspsych_version":"6.3.1","interactions":"[]"}]