[{"view_history":[{"page_index":0,"viewing_time":1596.699999988079}],"rt":1597.300000011921,"trial_type":"instructions","trial_index":0,"time_elapsed":1660,"internal_node_id":"0.0-0.0","experiment":"validation","task_version":"2.0","jspsych_version":"6.3.1"},{"rt":8536.600000023842,"responses":{"age":"36","gender-categorical":"Male","gender-free-response":"","ethnicity":"Hispanic or Latino","race":["American Indian/Alaska Native"],"education":"High school"},"survey":"demographics","trial_type":"survey-demo","trial_index":1,"time_elapsed":10200,"internal_node_id":"0.0-1.0","experiment":"validation","task_version":"2.0","jspsych_version":"6.3.1"},{"responses":{"Q03":"3","Q09":"3","Q10":"3","Q01":"1","Q04":"4","Q02":"3","Q11":"0","Q05":"3","Q08":"3","Q07":"4","Q06":"3"},"rt":28858.20000001788,"item_order":[2,8,9,0,3,1,10,4,7,6,5],"radio_events":[2996.9000000059605,4924,6641.200000017881,9780,13872.09999999404,15631.40000000596,20600.80000001192,22172.90000000596,24213.40000000596,26991.70000001788,28048.70000001788],"key_events":[],"mouse_events":[2996.9000000059605,4002.2000000178814,4924,6641.200000017881,9780,10982.800000011921,13872.09999999404,15631.40000000596,19698.59999999404,20600.80000001192,22172.90000000596,24213.40000000596,26991.70000001788,28048.70000001788,28850.30000001192],"straightlining":0.45454545454545453,"zigzagging":0.4,"honeypot":0,"survey":"nfc10","trial_type":"survey-template","trial_index":2,"time_elapsed":39071,"internal_node_id":"0.0-2.0","experiment":"validation","task_version":"2.0","jspsych_version":"6.3.1","infrequency":0},{"responses":{"Q05":"3","Q07":"3","Q02":"4","Q08":"3","Q04":"3","Q06":"4","Q03":"3","Q09":"4","Q01":"3"},"rt":19695.70000001788,"item_order":[4,6,1,7,3,5,2,8,0],"radio_events":[2356.800000011921,3304.7000000178814,5768.0999999940395,7501,9040.59999999404,12474.200000017881,14371.800000011921,17313.30000001192,18707.90000000596],"key_events":[],"mouse_events":[2356.800000011921,3304.7000000178814,4892.5999999940395,5768.0999999940395,6659.5,7501,9040.59999999404,12474.200000017881,14371.800000011921,17313.30000001192,18707.90000000596,19692.90000000596],"straightlining":0.6666666666666666,"zigzagging":0.5,"honeypot":0,"survey":"pcf","trial_type":"survey-template","trial_index":3,"time_elapsed":58779,"internal_node_id":"0.0-3.0","experiment":"validation","task_version":"2.0","jspsych_version":"6.3.1","infrequency":0},{"rt":181744.69999998808,"response":{"Q1":1,"Q2":2,"Q0":0,"Q4":2,"Q5":0,"Q3":2,"Q8":0,"Q6":5,"Q7":3},"question_order":[1,2,0,4,5,3,8,6,7],"survey":"sns","trial_type":"survey-likert","trial_index":4,"time_elapsed":240543,"internal_node_id":"0.0-4.0","experiment":"validation","task_version":"2.0","jspsych_version":"6.3.1","infrequency":0},{"value":0,"trial_type":"call-function","trial_index":5,"time_elapsed":240547,"internal_node_id":"0.0-5.0","experiment":"validation","task_version":"2.0","jspsych_version":"6.3.1","interactions":"[{\"event\":\"blur\",\"trial\":4,\"time\":85391},{\"event\":\"focus\",\"trial\":4,\"time\":148304},{\"event\":\"blur\",\"trial\":4,\"time\":152538},{\"event\":\"focus\",\"trial\":4,\"time\":238179}]"}]