[{"view_history":[{"page_index":0,"viewing_time":4724.300000000047}],"rt":4724.70000000007,"trial_type":"instructions","trial_index":0,"time_elapsed":4727,"internal_node_id":"0.0-0.0","experiment":"validation","task_version":"1.1","jspsych_version":"6.3.1"},{"rt":23560.599999999977,"responses":{"age":"58","gender-categorical":"Male","gender-free-response":"","ethnicity":"Not Hispanic or Latino","race":["White"],"education":"Master degree or higher"},"survey":"demographics","trial_type":"survey-demo","trial_index":1,"time_elapsed":28289,"internal_node_id":"0.0-1.0","experiment":"validation","task_version":"1.1","jspsych_version":"6.3.1"},{"responses":{"Q04":"0","Q06":"0","Q01":"0","Q02":"0","Q09":"1","Q07":"0","Q05":"1","Q10":"1","Q08":"0","Q03":"0","Q11":"4"},"rt":60686.5,"item_order":[3,5,0,1,8,6,4,9,7,2,10],"radio_events":[12251.599999999977,13804.70000000007,19210.70000000007,21425.599999999977,24450.5,28709,31850.5,33035.5,38078.5,41123.5,43449.5,46569.5,53219.5,54746.40000000002,58725.40000000002],"key_events":[],"mouse_events":[11395,12251.599999999977,13804.70000000007,19210.70000000007,21425.599999999977,24450.5,28709,31850.5,33035.5,38078.5,41123.5,43449.5,46569.5,53219.5,54746.40000000002,58725.40000000002,60685.5],"straightlining":0.36363636363636365,"zigzagging":0.6,"honeypot":0,"survey":"neuroticism","trial_type":"survey-template","trial_index":2,"time_elapsed":88978,"internal_node_id":"0.0-2.0","experiment":"validation","task_version":"1.1","jspsych_version":"6.3.1","infrequency":0},{"responses":{"Q01":"3","Q05":"3","Q07":"2","Q04":"3","Q03":"3","Q06":"3","Q02":"3"},"rt":48745.59999999998,"item_order":[0,4,6,3,2,5,1],"radio_events":[9230.29999999993,13407.29999999993,17924.199999999953,25658.199999999953,29367.199999999953,32295.199999999953,40300.09999999998,47767.19999999995],"key_events":[],"mouse_events":[9230.29999999993,13407.29999999993,17924.199999999953,25658.199999999953,28101.199999999953,29367.199999999953,32295.199999999953,40300.09999999998,45857.09999999998,47126.29999999993,47767.19999999995,48745.19999999995],"straightlining":0.5714285714285714,"zigzagging":0.3333333333333333,"honeypot":0,"survey":"nfc6","trial_type":"survey-template","trial_index":3,"time_elapsed":137726,"internal_node_id":"0.0-3.0","experiment":"validation","task_version":"1.1","jspsych_version":"6.3.1","infrequency":0},{"responses":{"Q06":"3","Q07":"3","Q05":"1","Q03":"0","Q11":"0","Q02":"2","Q01":"3","Q09":"1","Q08":"1","Q10":"0","Q04":"2"},"rt":78463.59999999998,"item_order":[5,6,4,2,10,1,0,8,7,9,3],"radio_events":[15861.199999999953,19439.199999999953,27747.199999999953,30094.099999999977,33502.09999999998,37206.09999999998,53317.29999999993,56883.79999999993,60982.09999999998,69526.09999999998,75800,77433],"key_events":[],"mouse_events":[15861.199999999953,19439.199999999953,22858.29999999993,27747.199999999953,30094.099999999977,33502.09999999998,37206.09999999998,46513.19999999995,53317.29999999993,56883.79999999993,60982.09999999998,62589.89999999991,68700.09999999998,69526.09999999998,71193,75800,77433,78462.8999999999],"straightlining":0.36363636363636365,"zigzagging":0.2,"honeypot":0,"survey":"openness","trial_type":"survey-template","trial_index":4,"time_elapsed":216191,"internal_node_id":"0.0-4.0","experiment":"validation","task_version":"1.1","jspsych_version":"6.3.1","infrequency":0},{"value":[0,1.2987012987012987,1.1333333333333333],"trial_type":"call-function","trial_index":5,"time_elapsed":216192,"internal_node_id":"0.0-5.0","experiment":"validation","task_version":"1.1","jspsych_version":"6.3.1","interactions":"[]"}]