[{"view_history":[{"page_index":0,"viewing_time":2462.1050000059768}],"rt":2463.0600000018603,"trial_type":"instructions","trial_index":0,"time_elapsed":2498,"internal_node_id":"0.0-0.0","experiment":"validation","task_version":"1.1","jspsych_version":"6.3.1"},{"rt":17307.389999994484,"responses":{"age":"25","gender-categorical":"Female","gender-free-response":"","ethnicity":"Not Hispanic or Latino","race":["White"],"education":"High school"},"survey":"demographics","trial_type":"survey-demo","trial_index":1,"time_elapsed":19823,"internal_node_id":"0.0-1.0","experiment":"validation","task_version":"1.1","jspsych_version":"6.3.1"},{"responses":{"Q04":"1","Q08":"4","Q05":"0","Q07":"4","Q01":"4","Q06":"4","Q11":"0","Q10":"4","Q02":"4","Q09":"0","Q03":"4"},"rt":53862.65500000445,"item_order":[3,7,4,6,0,5,10,9,1,8,2],"radio_events":[10181.290000000445,15349.910000004456,18696.295000001555,23280.6700000001,26261.335000002873,29584.475000003295,36675.600000002305,40220.345000001544,44164.27500000282,48300.609999998414,50759.89000000118],"key_events":[],"mouse_events":[10181.290000000445,15349.910000004456,18696.295000001555,23280.6700000001,26261.335000002873,29584.475000003295,36675.600000002305,40220.345000001544,44164.27500000282,48300.609999998414,50759.89000000118,51971.6350000017,53856.745000004594],"straightlining":0.45454545454545453,"zigzagging":0.5,"honeypot":0,"survey":"openness","trial_type":"survey-template","trial_index":2,"time_elapsed":73713,"internal_node_id":"0.0-2.0","experiment":"validation","task_version":"1.1","jspsych_version":"6.3.1","infrequency":0},{"responses":{"Q05":"1","Q07":"2","Q10":"2","Q06":"0","Q11":"4","Q03":"2","Q02":"1","Q04":"0","Q09":"1","Q01":"1","Q08":"0"},"rt":63033.80999999354,"item_order":[4,6,9,5,10,2,1,3,8,0,7],"radio_events":[8374.96999999712,11976.984999993874,14889.014999993378,21812.364999997953,25040.759999996226,31369.629999993776,37384.19499999873,43431.87499999476,46499.83499999507,56270.074999993085,58668.31999999704,61702.52999999502],"key_events":[],"mouse_events":[8374.96999999712,11976.984999993874,14889.014999993378,21812.364999997953,25040.759999996226,31369.629999993776,37384.19499999873,43431.87499999476,46499.83499999507,56270.074999993085,58668.31999999704,61702.52999999502,63028.25499999744],"straightlining":0.2727272727272727,"zigzagging":0.3,"honeypot":0,"survey":"neuroticism","trial_type":"survey-template","trial_index":3,"time_elapsed":136768,"internal_node_id":"0.0-3.0","experiment":"validation","task_version":"1.1","jspsych_version":"6.3.1","infrequency":0},{"responses":{"Q02":"3","Q03":"4","Q05":"3","Q04":"4","Q06":"3","Q01":"3","Q07":"2"},"rt":80466.0800000056,"item_order":[1,2,4,3,5,0,6],"radio_events":[8316.910000001371,11996.535000005679,50728.75500000373,52460.34500000678,67633.0350000062,70333.8700000022,73956.64000000397,78756.51000000653],"key_events":[],"mouse_events":[1905.4850000029546,8316.910000001371,11996.535000005679,44866.78000000393,50728.75500000373,52460.34500000678,67633.0350000062,70333.8700000022,73956.64000000397,78756.51000000653,80462.73000000656],"straightlining":0.5714285714285714,"zigzagging":0.16666666666666666,"honeypot":0,"survey":"nfc6","trial_type":"survey-template","trial_index":4,"time_elapsed":217253,"internal_node_id":"0.0-4.0","experiment":"validation","task_version":"1.1","jspsych_version":"6.3.1","infrequency":0},{"value":[0,1.2987012987012987,0.9666666666666667],"trial_type":"call-function","trial_index":5,"time_elapsed":217268,"internal_node_id":"0.0-5.0","experiment":"validation","task_version":"1.1","jspsych_version":"6.3.1","interactions":"[]"}]