[{"view_history":[{"page_index":0,"viewing_time":2851.599999964237}],"rt":2856.399999976158,"trial_type":"instructions","trial_index":0,"time_elapsed":2868,"internal_node_id":"0.0-0.0","experiment":"validation","task_version":"1.1","jspsych_version":"6.3.1"},{"rt":11716.199999988079,"responses":{"age":"36","gender-categorical":"Male","gender-free-response":"","ethnicity":"Not Hispanic or Latino","race":["Black or African American"],"education":"Master degree or higher"},"survey":"demographics","trial_type":"survey-demo","trial_index":1,"time_elapsed":14610,"internal_node_id":"0.0-1.0","experiment":"validation","task_version":"1.1","jspsych_version":"6.3.1"},{"responses":{"Q06":"3","Q07":"3","Q02":"1","Q04":"1","Q11":"3","Q10":"1","Q01":"2","Q05":"2","Q03":"3","Q09":"3","Q08":"1"},"rt":27498.399999976158,"item_order":[5,6,1,3,10,9,0,4,2,8,7],"radio_events":[6072.899999976158,7978.5,8835.5,13774.300000011921,16747.19999998808,17923.69999998808,18657.5,20561.600000023842,21731.30000001192,22750.100000023842,25408.30000001192,26796.5],"key_events":[],"mouse_events":[6072.899999976158,7978.5,8835.5,13774.300000011921,16747.19999998808,17923.69999998808,18657.5,20561.600000023842,21731.30000001192,22750.100000023842,25408.30000001192,26796.5,27489.80000001192],"straightlining":0.45454545454545453,"zigzagging":0.2,"honeypot":0,"survey":"neuroticism","trial_type":"survey-template","trial_index":2,"time_elapsed":42140,"internal_node_id":"0.0-2.0","experiment":"validation","task_version":"1.1","jspsych_version":"6.3.1","infrequency":0},{"responses":{"Q01":"3","Q04":"2","Q02":"2","Q03":"3","Q06":"2","Q05":"3","Q07":"2"},"rt":152222.19999998808,"item_order":[0,3,1,2,5,4,6],"radio_events":[133857.5,135636.59999996424,139550.19999998808,141096.19999998808,142945.39999997616,146737.29999995232,150034.39999997616],"key_events":[],"mouse_events":[133857.5,135636.59999996424,137849.19999998808,139550.19999998808,141096.19999998808,142945.39999997616,146737.29999995232,147569.19999998808,150034.39999997616,152216.79999995232],"straightlining":0.5714285714285714,"zigzagging":0.8333333333333334,"honeypot":0,"survey":"nfc6","trial_type":"survey-template","trial_index":3,"time_elapsed":194382,"internal_node_id":"0.0-3.0","experiment":"validation","task_version":"1.1","jspsych_version":"6.3.1","infrequency":0},{"responses":{"Q05":"1","Q11":"2","Q07":"1","Q04":"1","Q06":"2","Q08":"1","Q09":"3","Q03":"3","Q10":"1","Q02":"2","Q01":"3"},"rt":34961,"item_order":[4,10,6,3,5,7,8,2,9,1,0],"radio_events":[5701.299999952316,8805.899999976158,10799.199999988079,12441.399999976158,13359.299999952316,22899.69999998808,27693.799999952316,29413.599999964237,31319.19999998808,32728.899999976158,34099.59999996424],"key_events":[],"mouse_events":[5701.299999952316,8805.899999976158,10799.199999988079,12441.399999976158,13359.299999952316,22899.69999998808,27693.799999952316,29413.599999964237,31319.19999998808,32728.899999976158,34099.59999996424,34953.19999998808],"straightlining":0.6363636363636364,"zigzagging":0.6,"honeypot":0,"survey":"openness","trial_type":"survey-template","trial_index":4,"time_elapsed":229367,"internal_node_id":"0.0-4.0","experiment":"validation","task_version":"1.1","jspsych_version":"6.3.1","infrequency":1},{"value":[1,1.6623376623376624,1.6333333333333333],"trial_type":"call-function","trial_index":5,"time_elapsed":229374,"internal_node_id":"0.0-5.0","experiment":"validation","task_version":"1.1","jspsych_version":"6.3.1","interactions":"[{\"event\":\"blur\",\"trial\":3,\"time\":45217},{\"event\":\"focus\",\"trial\":3,\"time\":164006},{\"event\":\"blur\",\"trial\":3,\"time\":167546},{\"event\":\"focus\",\"trial\":3,\"time\":167815}]"}]