[{"view_history":[{"page_index":0,"viewing_time":3761.5}],"rt":3762.2000000029802,"trial_type":"instructions","trial_index":0,"time_elapsed":3768,"internal_node_id":"0.0-0.0","experiment":"validation","task_version":"1.1","jspsych_version":"6.3.1"},{"rt":18004.60000000894,"responses":{"age":"61","gender-categorical":"Female","gender-free-response":"","ethnicity":"Not Hispanic or Latino","race":["White"],"education":"Associate degree"},"survey":"demographics","trial_type":"survey-demo","trial_index":1,"time_elapsed":21779,"internal_node_id":"0.0-1.0","experiment":"validation","task_version":"1.1","jspsych_version":"6.3.1"},{"responses":{"Q05":"3","Q04":"1","Q02":"0","Q09":"2","Q08":"1","Q07":"3","Q11":"4","Q10":"2","Q03":"1","Q06":"1","Q01":"3"},"rt":63418.40000000596,"item_order":[4,3,1,8,7,6,10,9,2,5,0],"radio_events":[9484.70000000298,12778.70000000298,20532.5,25990.5,28780.80000001192,33040.80000001192,40362.90000000596,43586.40000000596,48190.60000000894,53978.60000000894,59990.5,62216.60000000894],"key_events":[],"mouse_events":[9484.70000000298,12778.70000000298,20532.5,25990.5,28780.80000001192,33040.80000001192,40362.90000000596,43586.40000000596,48190.60000000894,53978.60000000894,59990.5,62216.60000000894,63416.60000000894],"straightlining":0.36363636363636365,"zigzagging":0.3,"honeypot":0,"survey":"neuroticism","trial_type":"survey-template","trial_index":2,"time_elapsed":85203,"internal_node_id":"0.0-2.0","experiment":"validation","task_version":"1.1","jspsych_version":"6.3.1","infrequency":0},{"responses":{"Q01":"3","Q02":"2","Q03":"3","Q06":"3","Q07":"2","Q05":"3","Q04":"3"},"rt":34367.39999999106,"item_order":[0,1,2,5,6,4,3],"radio_events":[4252.5,9774.09999999404,14380.79999999702,20754.29999999702,24542.19999998808,29374.59999999404,33438.29999999702],"key_events":[],"mouse_events":[4252.5,9774.09999999404,14380.79999999702,20754.29999999702,24542.19999998808,29374.59999999404,33438.29999999702,34366.5],"straightlining":0.42857142857142855,"zigzagging":0.6666666666666666,"honeypot":0,"survey":"nfc6","trial_type":"survey-template","trial_index":3,"time_elapsed":119574,"internal_node_id":"0.0-3.0","experiment":"validation","task_version":"1.1","jspsych_version":"6.3.1","infrequency":0},{"responses":{"Q05":"0","Q02":"4","Q07":"4","Q10":"4","Q01":"4","Q03":"0","Q06":"4","Q09":"4","Q08":"4","Q11":"0","Q04":"1"},"rt":42209.20000000298,"item_order":[4,1,6,9,0,2,5,8,7,10,3],"radio_events":[8461.89999999106,10883.39999999106,13323.09999999404,16147.29999999702,20103.20000000298,22367.29999999702,27959.09999999404,30973.5,33278,36493.39999999106,40583.79999999702],"key_events":[],"mouse_events":[8461.89999999106,10883.39999999106,13323.09999999404,16147.29999999702,20103.20000000298,22367.29999999702,27959.09999999404,30973.5,33278,36493.39999999106,40583.79999999702,42207.79999999702],"straightlining":0.6363636363636364,"zigzagging":0.3,"honeypot":0,"survey":"openness","trial_type":"survey-template","trial_index":4,"time_elapsed":161787,"internal_node_id":"0.0-4.0","experiment":"validation","task_version":"1.1","jspsych_version":"6.3.1","infrequency":0},{"value":[0,1.4285714285714284,1.2666666666666666],"trial_type":"call-function","trial_index":5,"time_elapsed":161788,"internal_node_id":"0.0-5.0","experiment":"validation","task_version":"1.1","jspsych_version":"6.3.1","interactions":"[]"}]