[{"success":true,"timeout":false,"failed_images":[],"failed_audio":[],"failed_video":[],"trial_type":"preload","trial_index":0,"time_elapsed":5918,"internal_node_id":"0.0-0.0","experiment":"validation","task_version":"2.0","jspsych_version":"6.3.1"},{"success":true,"trial_type":"fullscreen","trial_index":1,"time_elapsed":10015,"internal_node_id":"0.0-1.0","experiment":"validation","task_version":"2.0","jspsych_version":"6.3.1"},{"view_history":[{"page_index":0,"viewing_time":3167.5},{"page_index":1,"viewing_time":10446.5},{"page_index":2,"viewing_time":8630.899999856949},{"page_index":3,"viewing_time":3176.4000000953674}],"rt":25422.200000047684,"trial_type":"instructions","trial_index":2,"time_elapsed":35439,"internal_node_id":"0.0-3.0","experiment":"validation","task_version":"2.0","jspsych_version":"6.3.1"},{"item":5,"shape_set":1,"distractor":"pd","choice_order":[2,3,0,1],"correct":0,"choice":0,"accuracy":1,"rt":5627.600000143051,"screen_resolution":[1366,768],"minimum_resolution":1,"all_loaded":true,"item_set":"practice","trial_type":"mars","trial_index":3,"time_elapsed":41821,"internal_node_id":"0.0-4.0-0.0","experiment":"validation","task_version":"2.0","jspsych_version":"6.3.1"},{"item":2,"shape_set":1,"distractor":"pd","choice_order":[0,2,1,3],"correct":0,"choice":0,"accuracy":1,"rt":4719.799999952316,"screen_resolution":[1366,768],"minimum_resolution":1,"all_loaded":true,"item_set":"practice","trial_type":"mars","trial_index":4,"time_elapsed":47298,"internal_node_id":"0.0-5.0-0.0","experiment":"validation","task_version":"2.0","jspsych_version":"6.3.1"},{"item":8,"shape_set":1,"distractor":"pd","choice_order":[0,2,1,3],"correct":0,"choice":0,"accuracy":1,"rt":8434,"screen_resolution":[1366,768],"minimum_resolution":1,"all_loaded":true,"item_set":"practice","trial_type":"mars","trial_index":5,"time_elapsed":56487,"internal_node_id":"0.0-6.0-0.0","experiment":"validation","task_version":"2.0","jspsych_version":"6.3.1"},{"view_history":[{"page_index":0,"viewing_time":2752.7000000476837},{"page_index":1,"viewing_time":15521.200000047684}],"rt":18274,"trial_type":"instructions","trial_index":6,"time_elapsed":74763,"internal_node_id":"0.0-7.0","experiment":"validation","task_version":"2.0","jspsych_version":"6.3.1"},{"rt":null,"stimulus":"<div style=\"font-size:24px;\">Loading puzzle:<br>1 / 12</div>","response":null,"trial_type":"html-keyboard-response","trial_index":7,"time_elapsed":75966,"internal_node_id":"0.0-8.0-1.0","experiment":"validation","task_version":"2.0","jspsych_version":"6.3.1"},{"item":45,"shape_set":1,"distractor":"pd","choice_order":[0,1,2,3],"correct":0,"choice":1,"accuracy":0,"rt":5798.800000190735,"screen_resolution":[1366,768],"minimum_resolution":1,"all_loaded":false,"item_set":3,"short_form":2,"trial_type":"mars","trial_index":8,"time_elapsed":81768,"internal_node_id":"0.0-8.0-2.0","experiment":"validation","task_version":"2.0","jspsych_version":"6.3.1","browser_interactions":0},{"rt":null,"stimulus":"<div style=\"font-size:24px;\">Loading puzzle:<br>2 / 12</div>","response":null,"trial_type":"html-keyboard-response","trial_index":9,"time_elapsed":82971,"internal_node_id":"0.0-9.0-1.0","experiment":"validation","task_version":"2.0","jspsych_version":"6.3.1"},{"item":30,"shape_set":2,"distractor":"pd","choice_order":[0,2,3,1],"correct":0,"choice":1,"accuracy":0,"rt":6383.199999809265,"screen_resolution":[1366,768],"minimum_resolution":1,"all_loaded":false,"item_set":3,"short_form":2,"trial_type":"mars","trial_index":10,"time_elapsed":89357,"internal_node_id":"0.0-9.0-2.0","experiment":"validation","task_version":"2.0","jspsych_version":"6.3.1","browser_interactions":0},{"rt":null,"stimulus":"<div style=\"font-size:24px;\">Loading puzzle:<br>3 / 12</div>","response":null,"trial_type":"html-keyboard-response","trial_index":11,"time_elapsed":90559,"internal_node_id":"0.0-10.0-1.0","experiment":"validation","task_version":"2.0","jspsych_version":"6.3.1"},{"item":55,"shape_set":3,"distractor":"pd","choice_order":[1,3,2,0],"correct":0,"choice":3,"accuracy":0,"rt":11271.299999952316,"screen_resolution":[1366,768],"minimum_resolution":1,"all_loaded":true,"item_set":3,"short_form":2,"trial_type":"mars","trial_index":12,"time_elapsed":101833,"internal_node_id":"0.0-10.0-2.0","experiment":"validation","task_version":"2.0","jspsych_version":"6.3.1","browser_interactions":0},{"rt":null,"stimulus":"<div style=\"font-size:24px;\">Loading puzzle:<br>4 / 12</div>","response":null,"trial_type":"html-keyboard-response","trial_index":13,"time_elapsed":103035,"internal_node_id":"0.0-11.0-1.0","experiment":"validation","task_version":"2.0","jspsych_version":"6.3.1"},{"item":29,"shape_set":1,"distractor":"pd","choice_order":[1,3,0,2],"correct":0,"choice":0,"accuracy":1,"rt":12313.5,"screen_resolution":[1366,768],"minimum_resolution":1,"all_loaded":true,"item_set":3,"short_form":2,"trial_type":"mars","trial_index":14,"time_elapsed":115351,"internal_node_id":"0.0-11.0-2.0","experiment":"validation","task_version":"2.0","jspsych_version":"6.3.1","browser_interactions":0},{"rt":null,"stimulus":"<div style=\"font-size:24px;\">Loading puzzle:<br>5 / 12</div>","response":null,"trial_type":"html-keyboard-response","trial_index":15,"time_elapsed":116553,"internal_node_id":"0.0-12.0-1.0","experiment":"validation","task_version":"2.0","jspsych_version":"6.3.1"},{"item":64,"shape_set":1,"distractor":"pd","choice_order":[3,0,2,1],"correct":0,"choice":1,"accuracy":0,"rt":11892.5,"screen_resolution":[1366,768],"minimum_resolution":1,"all_loaded":true,"item_set":3,"short_form":2,"trial_type":"mars","trial_index":16,"time_elapsed":128449,"internal_node_id":"0.0-12.0-2.0","experiment":"validation","task_version":"2.0","jspsych_version":"6.3.1","browser_interactions":0},{"rt":null,"stimulus":"<div style=\"font-size:24px;\">Loading puzzle:<br>6 / 12</div>","response":null,"trial_type":"html-keyboard-response","trial_index":17,"time_elapsed":129652,"internal_node_id":"0.0-13.0-1.0","experiment":"validation","task_version":"2.0","jspsych_version":"6.3.1"},{"item":35,"shape_set":1,"distractor":"pd","choice_order":[2,0,1,3],"correct":0,"choice":0,"accuracy":1,"rt":10841.5,"screen_resolution":[1366,768],"minimum_resolution":1,"all_loaded":true,"item_set":3,"short_form":2,"trial_type":"mars","trial_index":18,"time_elapsed":140498,"internal_node_id":"0.0-13.0-2.0","experiment":"validation","task_version":"2.0","jspsych_version":"6.3.1","browser_interactions":0},{"rt":null,"stimulus":"<div style=\"font-size:24px;\">Loading puzzle:<br>7 / 12</div>","response":null,"trial_type":"html-keyboard-response","trial_index":19,"time_elapsed":141700,"internal_node_id":"0.0-14.0-1.0","experiment":"validation","task_version":"2.0","jspsych_version":"6.3.1"},{"item":24,"shape_set":1,"distractor":"pd","choice_order":[3,0,2,1],"correct":0,"choice":3,"accuracy":0,"rt":11954.700000047684,"screen_resolution":[1366,768],"minimum_resolution":1,"all_loaded":true,"item_set":3,"short_form":2,"trial_type":"mars","trial_index":20,"time_elapsed":153658,"internal_node_id":"0.0-14.0-2.0","experiment":"validation","task_version":"2.0","jspsych_version":"6.3.1","browser_interactions":0},{"rt":null,"stimulus":"<div style=\"font-size:24px;\">Loading puzzle:<br>8 / 12</div>","response":null,"trial_type":"html-keyboard-response","trial_index":21,"time_elapsed":154860,"internal_node_id":"0.0-15.0-1.0","experiment":"validation","task_version":"2.0","jspsych_version":"6.3.1"},{"item":17,"shape_set":3,"distractor":"pd","choice_order":[3,2,1,0],"correct":0,"choice":1,"accuracy":0,"rt":16458,"screen_resolution":[1366,768],"minimum_resolution":1,"all_loaded":true,"item_set":3,"short_form":2,"trial_type":"mars","trial_index":22,"time_elapsed":171322,"internal_node_id":"0.0-15.0-2.0","experiment":"validation","task_version":"2.0","jspsych_version":"6.3.1","browser_interactions":0},{"rt":null,"stimulus":"<div style=\"font-size:24px;\">Loading puzzle:<br>9 / 12</div>","response":null,"trial_type":"html-keyboard-response","trial_index":23,"time_elapsed":172524,"internal_node_id":"0.0-16.0-1.0","experiment":"validation","task_version":"2.0","jspsych_version":"6.3.1"},{"item":58,"shape_set":3,"distractor":"md","choice_order":[3,0,1,2],"correct":0,"choice":0,"accuracy":1,"rt":13283.700000047684,"screen_resolution":[1366,768],"minimum_resolution":1,"all_loaded":true,"item_set":3,"short_form":2,"trial_type":"mars","trial_index":24,"time_elapsed":185810,"internal_node_id":"0.0-16.0-2.0","experiment":"validation","task_version":"2.0","jspsych_version":"6.3.1","browser_interactions":0},{"rt":null,"stimulus":"<div style=\"font-size:24px;\">Loading puzzle:<br>10 / 12</div>","response":null,"trial_type":"html-keyboard-response","trial_index":25,"time_elapsed":187012,"internal_node_id":"0.0-17.0-1.0","experiment":"validation","task_version":"2.0","jspsych_version":"6.3.1"},{"item":76,"shape_set":1,"distractor":"pd","choice_order":[0,3,2,1],"correct":0,"choice":0,"accuracy":1,"rt":14252,"screen_resolution":[1366,768],"minimum_resolution":1,"all_loaded":true,"item_set":3,"short_form":2,"trial_type":"mars","trial_index":26,"time_elapsed":201267,"internal_node_id":"0.0-17.0-2.0","experiment":"validation","task_version":"2.0","jspsych_version":"6.3.1","browser_interactions":0},{"rt":null,"stimulus":"<div style=\"font-size:24px;\">Loading puzzle:<br>11 / 12</div>","response":null,"trial_type":"html-keyboard-response","trial_index":27,"time_elapsed":202469,"internal_node_id":"0.0-18.0-1.0","experiment":"validation","task_version":"2.0","jspsych_version":"6.3.1"},{"item":72,"shape_set":3,"distractor":"pd","choice_order":[3,1,0,2],"correct":0,"choice":1,"accuracy":0,"rt":5224.399999856949,"screen_resolution":[1366,768],"minimum_resolution":1,"all_loaded":true,"item_set":3,"short_form":2,"trial_type":"mars","trial_index":28,"time_elapsed":207696,"internal_node_id":"0.0-18.0-2.0","experiment":"validation","task_version":"2.0","jspsych_version":"6.3.1","browser_interactions":0},{"rt":null,"stimulus":"<div style=\"font-size:24px;\">Loading puzzle:<br>12 / 12</div>","response":null,"trial_type":"html-keyboard-response","trial_index":29,"time_elapsed":208898,"internal_node_id":"0.0-19.0-1.0","experiment":"validation","task_version":"2.0","jspsych_version":"6.3.1"},{"item":66,"shape_set":2,"distractor":"pd","choice_order":[0,3,2,1],"correct":0,"choice":2,"accuracy":0,"rt":6589.100000143051,"screen_resolution":[1366,768],"minimum_resolution":1,"all_loaded":true,"item_set":3,"short_form":2,"trial_type":"mars","trial_index":30,"time_elapsed":215490,"internal_node_id":"0.0-19.0-2.0","experiment":"validation","task_version":"2.0","jspsych_version":"6.3.1","browser_interactions":0},{"value":[0,0,0],"trial_type":"call-function","trial_index":31,"time_elapsed":215491,"internal_node_id":"0.0-20.0","experiment":"validation","task_version":"2.0","jspsych_version":"6.3.1","interactions":"[{\"event\":\"fullscreenenter\",\"trial\":1,\"time\":9027}]"}]