[{"view_history":[{"page_index":0,"viewing_time":4334.5}],"rt":4334.800000000745,"trial_type":"instructions","trial_index":0,"time_elapsed":4352,"internal_node_id":"0.0-0.0","experiment":"validation","task_version":"2.0","jspsych_version":"6.3.1"},{"rt":10613.199999999255,"responses":{"age":"60","gender-categorical":"Male","gender-free-response":"","ethnicity":"Not Hispanic or Latino","race":["White"],"education":"Bachelor degree"},"survey":"demographics","trial_type":"survey-demo","trial_index":1,"time_elapsed":14967,"internal_node_id":"0.0-1.0","experiment":"validation","task_version":"2.0","jspsych_version":"6.3.1"},{"responses":{"Q05":"4","Q01":"4","Q04":"4","Q03":"4","Q09":"4","Q07":"4","Q02":"4","Q08":"4","Q06":"4"},"rt":28874.10000000149,"item_order":[4,0,3,2,8,6,1,7,5],"radio_events":[5735.199999999255,7827.300000000745,9141.5,12413.39999999851,13425.10000000149,15119.199999999255,17987.300000000745,21813.10000000149,22839.60000000149,24861.5],"key_events":[],"mouse_events":[4919.300000000745,5735.199999999255,7827.300000000745,8457.199999999255,9141.5,10073.10000000149,11053.39999999851,11449.199999999255,12413.39999999851,13425.10000000149,15119.199999999255,17987.300000000745,18743.39999999851,19979.199999999255,20367.199999999255,21813.10000000149,22335,22839.60000000149,24861.5,28873],"straightlining":0.8888888888888888,"zigzagging":0.25,"honeypot":0,"survey":"pcf","trial_type":"survey-template","trial_index":2,"time_elapsed":43843,"internal_node_id":"0.0-2.0","experiment":"validation","task_version":"2.0","jspsych_version":"6.3.1","infrequency":0},{"responses":{"Q05":"4","Q02":"4","Q01":"4","Q10":"4","Q03":"4","Q09":"3","Q08":"3","Q11":"0","Q06":"3","Q07":"4","Q04":"4"},"rt":61168.400000002235,"item_order":[4,1,0,9,2,8,7,10,5,6,3],"radio_events":[14427.900000002235,15391.800000000745,18075.900000002235,20196.300000000745,21782.199999999255,24735.800000000745,26835.900000002235,33832.199999999255,34601.800000000745,35441.800000000745,36849.699999999255,38045.900000002235,40496.300000000745,45533.800000000745,53081.900000002235],"key_events":[],"mouse_events":[13617.699999999255,14427.900000002235,15391.800000000745,16352.10000000149,18075.900000002235,19395.800000000745,20196.300000000745,21782.199999999255,24162.400000002235,24735.800000000745,26835.900000002235,28555,29455.60000000149,30716.300000000745,33147.60000000149,33832.199999999255,34601.800000000745,35441.800000000745,36383.900000002235,36849.699999999255,37549.900000002235,38045.900000002235,38637.800000000745,39912.199999999255,40496.300000000745,41623.699999999255,43979.60000000149,44524.199999999255,45167.800000000745,45533.800000000745,53081.900000002235,61167.699999999255],"straightlining":0.36363636363636365,"zigzagging":0.4,"honeypot":0,"survey":"nfc10","trial_type":"survey-template","trial_index":3,"time_elapsed":105014,"internal_node_id":"0.0-3.0","experiment":"validation","task_version":"2.0","jspsych_version":"6.3.1","infrequency":0},{"rt":40295.800000000745,"response":{"Q6":2,"Q2":5,"Q0":5,"Q8":0,"Q3":5,"Q1":5,"Q4":4,"Q5":4,"Q7":5},"question_order":[6,2,0,8,3,1,4,5,7],"survey":"sns","trial_type":"survey-likert","trial_index":4,"time_elapsed":145312,"internal_node_id":"0.0-4.0","experiment":"validation","task_version":"2.0","jspsych_version":"6.3.1","infrequency":0},{"value":0,"trial_type":"call-function","trial_index":5,"time_elapsed":145313,"internal_node_id":"0.0-5.0","experiment":"validation","task_version":"2.0","jspsych_version":"6.3.1","interactions":"[]"}]