[{"view_history":[{"page_index":0,"viewing_time":1373.5999999046326}],"rt":1374.0999999046326,"trial_type":"instructions","trial_index":0,"time_elapsed":1377,"internal_node_id":"0.0-0.0","experiment":"validation","task_version":"1.1","jspsych_version":"6.3.1"},{"rt":14596,"responses":{"age":"39","gender-categorical":"Male","gender-free-response":"","ethnicity":"Not Hispanic or Latino","race":["White"],"education":"Bachelor degree"},"survey":"demographics","trial_type":"survey-demo","trial_index":1,"time_elapsed":15977,"internal_node_id":"0.0-1.0","experiment":"validation","task_version":"1.1","jspsych_version":"6.3.1"},{"responses":{"Q05":"1","Q11":"0","Q08":"3","Q06":"3","Q04":"1","Q09":"2","Q03":"3","Q10":"3","Q01":"4","Q02":"3","Q07":"2"},"rt":79046.90000009537,"item_order":[4,10,7,5,3,8,2,9,0,1,6],"radio_events":[5723.299999713898,11839,17983.5,20840.099999904633,24678.599999904633,27514.299999713898,31066.099999904633,59603.5,64787.7999997139,75626.40000009537,77464.09999990463],"key_events":[],"mouse_events":[5723.299999713898,11839,17983.5,20840.099999904633,24678.599999904633,27514.299999713898,31066.099999904633,59603.5,64787.7999997139,75626.40000009537,77464.09999990463,79044.40000009537],"straightlining":0.36363636363636365,"zigzagging":0.5,"honeypot":0,"survey":"openness","trial_type":"survey-template","trial_index":2,"time_elapsed":95032,"internal_node_id":"0.0-2.0","experiment":"validation","task_version":"1.1","jspsych_version":"6.3.1","infrequency":0},{"responses":{"Q02":"3","Q07":"2","Q03":"4","Q01":"3","Q04":"3","Q05":"4","Q06":"2"},"rt":112951,"item_order":[1,6,2,0,3,4,5],"radio_events":[56042.10000038147,60842.5,68375.40000009537,72477.90000009537,76911.60000038147,92752.5,98017.60000038147,106197.80000019073],"key_events":[],"mouse_events":[56042.10000038147,60842.5,68375.40000009537,72477.90000009537,76911.60000038147,92752.5,97518.7000002861,98017.60000038147,106197.80000019073,112949.30000019073],"straightlining":0.2857142857142857,"zigzagging":0.16666666666666666,"honeypot":0,"survey":"nfc6","trial_type":"survey-template","trial_index":3,"time_elapsed":207988,"internal_node_id":"0.0-3.0","experiment":"validation","task_version":"1.1","jspsych_version":"6.3.1","infrequency":0},{"responses":{"Q04":"2","Q11":"4","Q09":"3","Q10":"2","Q02":"2","Q05":"1","Q03":"2","Q01":"2","Q08":"1","Q07":"2","Q06":"3"},"rt":34334.300000190735,"item_order":[3,10,8,9,1,4,2,0,7,6,5],"radio_events":[5011.5,6836.200000286102,11518.5,12404.099999904633,16863.700000286102,19536.300000190735,24967,26156.599999904633,27665.300000190735,29967.200000286102,32898.7000002861],"key_events":[],"mouse_events":[5011.5,6836.200000286102,9194.099999904633,11518.5,12404.099999904633,16863.700000286102,19536.300000190735,24967,26156.599999904633,27665.300000190735,29967.200000286102,32898.7000002861,34331.5],"straightlining":0.5454545454545454,"zigzagging":0.6,"honeypot":0,"survey":"neuroticism","trial_type":"survey-template","trial_index":4,"time_elapsed":242328,"internal_node_id":"0.0-4.0","experiment":"validation","task_version":"1.1","jspsych_version":"6.3.1","infrequency":0},{"value":[0,1.1948051948051948,1.2666666666666666],"trial_type":"call-function","trial_index":5,"time_elapsed":242334,"internal_node_id":"0.0-5.0","experiment":"validation","task_version":"1.1","jspsych_version":"6.3.1","interactions":"[{\"event\":\"blur\",\"trial\":2,\"time\":50987},{\"event\":\"focus\",\"trial\":2,\"time\":72107},{\"event\":\"blur\",\"trial\":3,\"time\":96873},{\"event\":\"focus\",\"trial\":3,\"time\":108439},{\"event\":\"blur\",\"trial\":3,\"time\":111737},{\"event\":\"focus\",\"trial\":3,\"time\":148083}]"}]