[{"view_history":[{"page_index":0,"viewing_time":1112.7000000029802}],"rt":1113.2000000029802,"trial_type":"instructions","trial_index":0,"time_elapsed":1133,"internal_node_id":"0.0-0.0","experiment":"validation","task_version":"1.1","jspsych_version":"6.3.1"},{"rt":10589.60000000894,"responses":{"age":"25","gender-categorical":"Male","gender-free-response":"","ethnicity":"Hispanic or Latino","race":["White"],"education":"Bachelor degree"},"survey":"demographics","trial_type":"survey-demo","trial_index":1,"time_elapsed":11731,"internal_node_id":"0.0-1.0","experiment":"validation","task_version":"1.1","jspsych_version":"6.3.1"},{"responses":{"Q05":"0","Q08":"0","Q04":"1","Q06":"0","Q02":"0","Q11":"0","Q01":"1","Q09":"0","Q07":"1","Q10":"1","Q03":"0"},"rt":27135.59999999404,"item_order":[4,7,3,5,1,10,0,8,6,9,2],"radio_events":[2216.0999999940395,3358.9000000059605,4971.20000000298,8617.70000000298,9385.59999999404,13229.20000000298,14228.29999999702,18352.59999999404,19969.59999999404,22136.20000000298,26207.70000000298],"key_events":[],"mouse_events":[2216.0999999940395,3358.9000000059605,4971.20000000298,6928.4000000059605,8617.70000000298,9385.59999999404,11264.90000000596,12283.90000000596,12797.09999999404,13229.20000000298,14228.29999999702,17911.70000000298,18352.59999999404,19969.59999999404,21670.59999999404,22136.20000000298,22858.20000000298,26207.70000000298,27130.40000000596],"straightlining":0.36363636363636365,"zigzagging":0.4,"honeypot":0,"survey":"neuroticism","trial_type":"survey-template","trial_index":2,"time_elapsed":38878,"internal_node_id":"0.0-2.0","experiment":"validation","task_version":"1.1","jspsych_version":"6.3.1","infrequency":1},{"responses":{"Q03":"3","Q06":"1","Q02":"3","Q05":"4","Q07":"2","Q04":"3","Q01":"3"},"rt":29759.20000000298,"item_order":[2,5,1,4,6,3,0],"radio_events":[5189.5,10242.70000000298,12453.5,16589.10000000894,18394.60000000894,21150.40000000596,27559.40000000596,28783.60000000894],"key_events":[],"mouse_events":[3785.9000000059605,5189.5,10242.70000000298,12453.5,16589.10000000894,18394.60000000894,20340.20000000298,21150.40000000596,27559.40000000596,28783.60000000894,29755.60000000894],"straightlining":0.42857142857142855,"zigzagging":0.3333333333333333,"honeypot":0,"survey":"nfc6","trial_type":"survey-template","trial_index":3,"time_elapsed":68710,"internal_node_id":"0.0-3.0","experiment":"validation","task_version":"1.1","jspsych_version":"6.3.1","infrequency":0},{"responses":{"Q08":"4","Q09":"3","Q11":"0","Q03":"3","Q06":"4","Q02":"3","Q07":"3","Q05":"1","Q01":"4","Q10":"3","Q04":"0"},"rt":29180.30000001192,"item_order":[7,8,10,2,5,1,6,4,0,9,3],"radio_events":[2297.800000011921,4107,5911.70000000298,9623.300000011921,11324.300000011921,13173.300000011921,15933.10000000894,18785.40000000596,19748.30000001192,27124.60000000894,28600.70000000298],"key_events":[],"mouse_events":[2297.800000011921,4107,5911.70000000298,9623.300000011921,11324.300000011921,13173.300000011921,15933.10000000894,17590.40000000596,18785.40000000596,19748.30000001192,27124.60000000894,28600.70000000298,29175.10000000894],"straightlining":0.2727272727272727,"zigzagging":0.3,"honeypot":0,"survey":"openness","trial_type":"survey-template","trial_index":4,"time_elapsed":97898,"internal_node_id":"0.0-4.0","experiment":"validation","task_version":"1.1","jspsych_version":"6.3.1","infrequency":0},{"value":[1,1.0649350649350648,1.0333333333333334],"trial_type":"call-function","trial_index":5,"time_elapsed":97903,"internal_node_id":"0.0-5.0","experiment":"validation","task_version":"1.1","jspsych_version":"6.3.1","interactions":"[]"}]