[{"view_history":[{"page_index":0,"viewing_time":1753.1000001430511}],"rt":1753.2999999523163,"trial_type":"instructions","trial_index":0,"time_elapsed":1758,"internal_node_id":"0.0-0.0","experiment":"validation","task_version":"2.0","jspsych_version":"6.3.1"},{"rt":28243.400000095367,"responses":{"age":"29","gender-categorical":"Female","gender-free-response":"","ethnicity":"Not Hispanic or Latino","race":["Asian"],"education":"Bachelor degree"},"survey":"demographics","trial_type":"survey-demo","trial_index":1,"time_elapsed":30005,"internal_node_id":"0.0-1.0","experiment":"validation","task_version":"2.0","jspsych_version":"6.3.1"},{"responses":{"Q05":"3","Q02":"3","Q06":"3","Q04":"3","Q08":"3","Q10":"3","Q07":"3","Q01":"3","Q11":"4","Q03":"4","Q09":"3"},"rt":68333.59999990463,"item_order":[4,1,5,3,7,9,6,0,10,2,8],"radio_events":[13976.700000047684,20286.200000047684,27102,31291.89999985695,31636.099999904633,42889.200000047684,46007.799999952316,52021.89999985695,53460.5,59718.39999985695,65692.20000004768,67360.09999990463],"key_events":[],"mouse_events":[13976.700000047684,18747.799999952316,20286.200000047684,26040.5,27102,30419.89999985695,31291.89999985695,31636.099999904633,42889.200000047684,44575.59999990463,45297.799999952316,46007.799999952316,52021.89999985695,53460.5,59718.39999985695,65692.20000004768,67360.09999990463,68328.09999990463],"straightlining":0.6363636363636364,"zigzagging":0.2,"honeypot":0,"survey":"nfc10","trial_type":"survey-template","trial_index":2,"time_elapsed":98356,"internal_node_id":"0.0-2.0","experiment":"validation","task_version":"2.0","jspsych_version":"6.3.1","infrequency":1},{"responses":{"Q06":"1","Q05":"2","Q03":"3","Q02":"3","Q07":"3","Q08":"3","Q04":"3","Q09":"4","Q01":"4"},"rt":69730.70000004768,"item_order":[5,4,2,1,6,7,3,8,0],"radio_events":[37789.799999952316,38470.200000047684,41354.799999952316,45676.200000047684,49980,52001.200000047684,55821.799999952316,62512.40000009537,65614.29999995232,67983.40000009537],"key_events":[],"mouse_events":[37789.799999952316,38470.200000047684,41354.799999952316,45676.200000047684,49980,52001.200000047684,55821.799999952316,62512.40000009537,65614.29999995232,67983.40000009537,69727.29999995232],"straightlining":0.5555555555555556,"zigzagging":0.375,"honeypot":0,"survey":"pcf","trial_type":"survey-template","trial_index":3,"time_elapsed":168100,"internal_node_id":"0.0-3.0","experiment":"validation","task_version":"2.0","jspsych_version":"6.3.1","infrequency":0},{"rt":47344.700000047684,"response":{"Q7":5,"Q6":1,"Q2":5,"Q0":5,"Q1":5,"Q8":0,"Q4":4,"Q5":2,"Q3":5},"question_order":[7,6,2,0,1,8,4,5,3],"survey":"sns","trial_type":"survey-likert","trial_index":4,"time_elapsed":215459,"internal_node_id":"0.0-4.0","experiment":"validation","task_version":"2.0","jspsych_version":"6.3.1","infrequency":0},{"value":1,"trial_type":"call-function","trial_index":5,"time_elapsed":215462,"internal_node_id":"0.0-5.0","experiment":"validation","task_version":"2.0","jspsych_version":"6.3.1","interactions":"[]"}]