[{"view_history":[{"page_index":0,"viewing_time":9325.699999928474}],"rt":9326.699999928474,"trial_type":"instructions","trial_index":0,"time_elapsed":9330,"internal_node_id":"0.0-0.0","experiment":"validation","task_version":"2.0","jspsych_version":"6.3.1"},{"rt":22548.5,"responses":{"age":"25","gender-categorical":"Female","gender-free-response":"","ethnicity":"Not Hispanic or Latino","race":["White"],"education":"Bachelor degree"},"survey":"demographics","trial_type":"survey-demo","trial_index":1,"time_elapsed":31882,"internal_node_id":"0.0-1.0","experiment":"validation","task_version":"2.0","jspsych_version":"6.3.1"},{"responses":{"Q05":"2","Q04":"2","Q02":"1","Q09":"0","Q07":"3","Q06":"2","Q08":"3","Q01":"2","Q03":"3"},"rt":72601.40000009537,"item_order":[4,3,1,8,6,5,7,0,2],"radio_events":[7512,19702.800000071526,26843.100000023842,38065.300000071526,41200.200000047684,49526.90000009537,57693.90000009537,61749,68468.5,69660.5,71660.30000007153],"key_events":[],"mouse_events":[7512,19702.800000071526,26843.100000023842,38065.300000071526,39356.300000071526,40465.800000071526,41200.200000047684,49526.90000009537,57081.800000071526,57693.90000009537,61749,68468.5,69660.5,71056.5,71660.30000007153,72599.10000002384],"straightlining":0.4444444444444444,"zigzagging":0.75,"honeypot":0,"survey":"pcf","trial_type":"survey-template","trial_index":2,"time_elapsed":104489,"internal_node_id":"0.0-2.0","experiment":"validation","task_version":"2.0","jspsych_version":"6.3.1","infrequency":1},{"rt":88684.10000002384,"response":{"Q3":3,"Q7":4,"Q1":3,"Q0":2,"Q4":1,"Q6":3,"Q2":3,"Q8":0,"Q5":2},"question_order":[3,7,1,0,4,6,2,8,5],"survey":"sns","trial_type":"survey-likert","trial_index":3,"time_elapsed":193180,"internal_node_id":"0.0-3.0","experiment":"validation","task_version":"2.0","jspsych_version":"6.3.1","infrequency":0},{"responses":{"Q03":"2","Q09":"1","Q06":"1","Q08":"1","Q11":"0","Q01":"1","Q05":"3","Q02":"2","Q10":"2","Q04":"1","Q07":"3"},"rt":114682.39999997616,"item_order":[2,8,5,7,10,0,4,1,9,3,6],"radio_events":[8544.399999976158,14315.799999952316,28635.799999952316,38625.39999997616,45824.10000002384,57603.89999997616,72089.69999992847,80243.89999997616,91290,102696,113822.10000002384],"key_events":[],"mouse_events":[8544.399999976158,14315.799999952316,27899.100000023842,28635.799999952316,36951.699999928474,38168.60000002384,38625.39999997616,45824.10000002384,56975.39999997616,57603.89999997616,72089.69999992847,80243.89999997616,91290,101314.69999992847,102132.60000002384,102696,113822.10000002384,114679.60000002384],"straightlining":0.45454545454545453,"zigzagging":0.5,"honeypot":0,"survey":"nfc10","trial_type":"survey-template","trial_index":4,"time_elapsed":307869,"internal_node_id":"0.0-4.0","experiment":"validation","task_version":"2.0","jspsych_version":"6.3.1","infrequency":0},{"value":1,"trial_type":"call-function","trial_index":5,"time_elapsed":307870,"internal_node_id":"0.0-5.0","experiment":"validation","task_version":"2.0","jspsych_version":"6.3.1","interactions":"[]"}]