[{"view_history":[{"page_index":0,"viewing_time":1939.300000011921}],"rt":1939.300000011921,"trial_type":"instructions","trial_index":0,"time_elapsed":1959,"internal_node_id":"0.0-0.0","experiment":"validation","task_version":"2.0","jspsych_version":"6.3.1"},{"rt":19054.29999999702,"responses":{"age":"47","gender-categorical":"Male","gender-free-response":"","ethnicity":"Not Hispanic or Latino","race":["White"],"education":"Bachelor degree"},"survey":"demographics","trial_type":"survey-demo","trial_index":1,"time_elapsed":21015,"internal_node_id":"0.0-1.0","experiment":"validation","task_version":"2.0","jspsych_version":"6.3.1"},{"responses":{"Q01":"3","Q04":"2","Q02":"4","Q06":"2","Q08":"3","Q05":"2","Q07":"3","Q03":"2","Q09":"4"},"rt":43846.20000000298,"item_order":[0,3,1,5,7,4,6,2,8],"radio_events":[7821.0999999940395,11157.40000000596,12029.29999999702,13941.59999999404,16813.5,19717.09999999404,26069.5,30093.20000000298,31724.90000000596,33261.40000000596,33973.40000000596,38045],"key_events":[],"mouse_events":[4933.20000000298,7389.29999999702,7821.0999999940395,8748.90000000596,11157.40000000596,12029.29999999702,13941.59999999404,15349.59999999404,15741,16197.20000000298,16813.5,19717.09999999404,24605.5,25237,25709.29999999702,26069.5,30093.20000000298,31189.09999999404,31724.90000000596,33261.40000000596,33973.40000000596,34788.90000000596,36541.29999999702,37053.40000000596,37549.5,38045,43845.09999999404],"straightlining":0.4444444444444444,"zigzagging":0.625,"honeypot":0,"survey":"pcf","trial_type":"survey-template","trial_index":2,"time_elapsed":64863,"internal_node_id":"0.0-2.0","experiment":"validation","task_version":"2.0","jspsych_version":"6.3.1","infrequency":0},{"rt":34181,"response":{"Q6":4,"Q5":3,"Q1":2,"Q7":3,"Q3":4,"Q4":3,"Q8":0,"Q0":2,"Q2":4},"question_order":[6,5,1,7,3,4,8,0,2],"survey":"sns","trial_type":"survey-likert","trial_index":3,"time_elapsed":99045,"internal_node_id":"0.0-3.0","experiment":"validation","task_version":"2.0","jspsych_version":"6.3.1","infrequency":0},{"responses":{"Q09":"3","Q04":"2","Q06":"2","Q11":"1","Q02":"3","Q05":"2","Q08":"2","Q10":"1","Q01":"2","Q03":"4","Q07":"2"},"rt":24245.89999999106,"item_order":[8,3,5,10,1,4,7,9,0,2,6],"radio_events":[4349.5999999940395,7333.5,10557.5,11253.09999999404,12813,13989.5,16333.09999999404,18909.29999999702,20565.39999999106,22029.39999999106,23005.09999999404],"key_events":[],"mouse_events":[3541.5,4029.0999999940395,4349.5999999940395,5253.5,6525.399999991059,7333.5,7981.199999988079,8781.39999999106,9388.79999999702,9829.09999999404,10557.5,11253.09999999404,11821.39999999106,12813,13645.39999999106,13989.5,15013.199999988079,15485.39999999106,16333.09999999404,17117.59999999404,18909.29999999702,20221.5,20565.39999999106,22029.39999999106,23005.09999999404,24245],"straightlining":0.5454545454545454,"zigzagging":0.5,"honeypot":0,"survey":"nfc10","trial_type":"survey-template","trial_index":4,"time_elapsed":123293,"internal_node_id":"0.0-4.0","experiment":"validation","task_version":"2.0","jspsych_version":"6.3.1","infrequency":0.5},{"value":0.5,"trial_type":"call-function","trial_index":5,"time_elapsed":123294,"internal_node_id":"0.0-5.0","experiment":"validation","task_version":"2.0","jspsych_version":"6.3.1","interactions":"[]"}]