[{"view_history":[{"page_index":0,"viewing_time":4570.9000000003725}],"rt":4571.9000000003725,"trial_type":"instructions","trial_index":0,"time_elapsed":4608,"internal_node_id":"0.0-0.0","experiment":"validation","task_version":"1.1","jspsych_version":"6.3.1"},{"rt":57406.59999999963,"responses":{"age":"33","gender-categorical":"Male","gender-free-response":"","ethnicity":"Not Hispanic or Latino","race":["Black or African American"],"education":"High school"},"survey":"demographics","trial_type":"survey-demo","trial_index":1,"time_elapsed":62020,"internal_node_id":"0.0-1.0","experiment":"validation","task_version":"1.1","jspsych_version":"6.3.1"},{"responses":{"Q05":"2","Q02":"2","Q06":"2","Q04":"2","Q07":"2","Q03":"3","Q01":"1"},"rt":91125.90000000037,"item_order":[4,1,5,3,6,2,0],"radio_events":[28794.099999999627,31495.800000000745,36405.40000000037,46871.5,62725.800000000745,66453.59999999963,74901.80000000075,88250.59999999963],"key_events":[],"mouse_events":[28794.099999999627,31495.800000000745,36405.40000000037,46871.5,62725.800000000745,66453.59999999963,74901.80000000075,88250.59999999963,91123.59999999963],"straightlining":0.7142857142857143,"zigzagging":0.16666666666666666,"honeypot":0,"survey":"nfc6","trial_type":"survey-template","trial_index":2,"time_elapsed":153155,"internal_node_id":"0.0-2.0","experiment":"validation","task_version":"1.1","jspsych_version":"6.3.1","infrequency":0},{"responses":{"Q04":"2","Q10":"4","Q07":"4","Q01":"3","Q08":"3","Q02":"2","Q09":"2","Q11":"0","Q05":"0","Q03":"0","Q06":"3"},"rt":341555.30000000075,"item_order":[3,9,6,0,7,1,8,10,4,2,5],"radio_events":[79926.5,86219.80000000075,91301.30000000075,98288.09999999963,105736.09999999963,151718.09999999963,282079.5999999996,323864.7000000011,328437.5999999996,335018.7000000011,339891.2000000011],"key_events":[],"mouse_events":[79926.5,86219.80000000075,91301.30000000075,98288.09999999963,105736.09999999963,148747,151718.09999999963,282079.5999999996,323864.7000000011,328437.5999999996,335018.7000000011,339891.2000000011,341551.5],"straightlining":0.36363636363636365,"zigzagging":0.4,"honeypot":0,"survey":"openness","trial_type":"survey-template","trial_index":3,"time_elapsed":494718,"internal_node_id":"0.0-3.0","experiment":"validation","task_version":"1.1","jspsych_version":"6.3.1","infrequency":0},{"responses":{"Q07":"3","Q11":"4","Q03":"1","Q01":"2","Q08":"1","Q09":"2","Q05":"1","Q10":"1","Q06":"2","Q02":"0","Q04":"1"},"rt":339495.2000000011,"item_order":[6,10,2,0,7,8,4,9,5,1,3],"radio_events":[16035.400000000373,26084.300000000745,31304.700000001118,34911.5,43381.09999999963,55588.5,69640.70000000112,236047.30000000075,323865.9000000004,328299.5,332315,337285.5],"key_events":[],"mouse_events":[16035.400000000373,26084.300000000745,31304.700000001118,34911.5,43381.09999999963,55588.5,69640.70000000112,236047.30000000075,323865.9000000004,328299.5,332315,337285.5,339492.5],"straightlining":0.36363636363636365,"zigzagging":0.6,"honeypot":0,"survey":"neuroticism","trial_type":"survey-template","trial_index":4,"time_elapsed":834220,"internal_node_id":"0.0-4.0","experiment":"validation","task_version":"1.1","jspsych_version":"6.3.1","infrequency":0},{"value":[0,1.4415584415584415,1.1666666666666665],"trial_type":"call-function","trial_index":5,"time_elapsed":834223,"internal_node_id":"0.0-5.0","experiment":"validation","task_version":"1.1","jspsych_version":"6.3.1","interactions":"[]"}]