[{"view_history":[{"page_index":0,"viewing_time":11228.60000000149}],"rt":11233.400000000373,"trial_type":"instructions","trial_index":0,"time_elapsed":11267,"internal_node_id":"0.0-0.0","experiment":"validation","task_version":"1.1","jspsych_version":"6.3.1"},{"rt":50329.09999999963,"responses":{"age":"34","gender-categorical":"Male","gender-free-response":"","ethnicity":"Not Hispanic or Latino","race":["Black or African American"],"education":"Bachelor degree"},"survey":"demographics","trial_type":"survey-demo","trial_index":1,"time_elapsed":61634,"internal_node_id":"0.0-1.0","experiment":"validation","task_version":"1.1","jspsych_version":"6.3.1"},{"responses":{"Q04":"2","Q05":"3","Q06":"1","Q01":"1","Q07":"2","Q02":"3","Q03":"2"},"rt":82194.29999999888,"item_order":[3,4,5,0,6,1,2],"radio_events":[27763.400000000373,33042.699999999255,40087.09999999963,45581.79999999888,53508.59999999963,67643,73441.29999999888,78313.59999999963],"key_events":[],"mouse_events":[27763.400000000373,33042.699999999255,38879,40087.09999999963,45581.79999999888,53508.59999999963,67643,73441.29999999888,78313.59999999963,80446.5,82163.59999999963],"straightlining":0.42857142857142855,"zigzagging":0.6666666666666666,"honeypot":0,"survey":"nfc6","trial_type":"survey-template","trial_index":2,"time_elapsed":143867,"internal_node_id":"0.0-2.0","experiment":"validation","task_version":"1.1","jspsych_version":"6.3.1","infrequency":0},{"responses":{"Q05":"1","Q09":"2","Q01":"3","Q02":"3","Q10":"3","Q07":"3","Q08":"4","Q11":"0","Q06":"4","Q04":"1","Q03":"3"},"rt":63221.699999999255,"item_order":[4,8,0,1,9,6,7,10,5,3,2],"radio_events":[9124,20998.299999998882,21864.799999998882,23265.900000000373,27515.699999999255,36094.09999999963,40849.199999999255,52259.90000000037,54478.59999999963,56205.699999999255,60833.90000000037,61771.40000000037],"key_events":[],"mouse_events":[9124,11451.199999999255,20998.299999998882,21864.799999998882,23265.900000000373,27515.699999999255,32304.599999999627,36094.09999999963,40849.199999999255,45683.90000000037,50379,51459.699999999255,52259.90000000037,54478.59999999963,56205.699999999255,57203,60833.90000000037,61771.40000000037,63162.09999999963],"straightlining":0.45454545454545453,"zigzagging":0.3,"honeypot":0,"survey":"openness","trial_type":"survey-template","trial_index":3,"time_elapsed":207112,"internal_node_id":"0.0-3.0","experiment":"validation","task_version":"1.1","jspsych_version":"6.3.1","infrequency":0},{"responses":{"Q10":"0","Q03":"1","Q01":"1","Q09":"1","Q04":"1","Q07":"1","Q06":"1","Q05":"0","Q02":"0","Q11":"4","Q08":"0"},"rt":61760.59999999963,"item_order":[9,2,0,8,3,6,5,4,1,10,7],"radio_events":[3812.7999999988824,8510.89999999851,10625.699999999255,14917.89999999851,18546.299999998882,21500.599999999627,51519.09999999963,53291.59999999963,55186.5,58534,60859.59999999963],"key_events":[],"mouse_events":[3812.7999999988824,8510.89999999851,10625.699999999255,14917.89999999851,18546.299999998882,21500.599999999627,51519.09999999963,53291.59999999963,55186.5,58534,60859.59999999963,61720.29999999888],"straightlining":0.2727272727272727,"zigzagging":0.1,"honeypot":0,"survey":"neuroticism","trial_type":"survey-template","trial_index":4,"time_elapsed":268901,"internal_node_id":"0.0-4.0","experiment":"validation","task_version":"1.1","jspsych_version":"6.3.1","infrequency":0},{"value":[0,1.155844155844156,1.0666666666666667],"trial_type":"call-function","trial_index":5,"time_elapsed":268911,"internal_node_id":"0.0-5.0","experiment":"validation","task_version":"1.1","jspsych_version":"6.3.1","interactions":"[{\"event\":\"focus\",\"trial\":0,\"time\":8436},{\"event\":\"blur\",\"trial\":1,\"time\":17043},{\"event\":\"focus\",\"trial\":1,\"time\":20842},{\"event\":\"blur\",\"trial\":4,\"time\":232161},{\"event\":\"focus\",\"trial\":4,\"time\":255799}]"}]