[{"view_history":[{"page_index":0,"viewing_time":1708}],"rt":1708.2999999523163,"trial_type":"instructions","trial_index":0,"time_elapsed":1726,"internal_node_id":"0.0-0.0","experiment":"validation","task_version":"1.1","jspsych_version":"6.3.1"},{"rt":7275.200000047684,"responses":{"age":"24","gender-categorical":"Male","gender-free-response":"","ethnicity":"Unknown","race":["Black or African American"],"education":"Some college"},"survey":"demographics","trial_type":"survey-demo","trial_index":1,"time_elapsed":9005,"internal_node_id":"0.0-1.0","experiment":"validation","task_version":"1.1","jspsych_version":"6.3.1"},{"responses":{"Q01":"3","Q02":"3","Q05":"4","Q04":"3","Q07":"2","Q03":"3","Q06":"3"},"rt":26576.299999952316,"item_order":[0,1,4,3,6,2,5],"radio_events":[2421.2999999523163,7455.400000095367,7939.599999904633,8504.599999904633,16066.5,18859.099999904633,20262.299999952316,21917.299999952316,23893.700000047684],"key_events":[],"mouse_events":[2421.2999999523163,7455.400000095367,7939.599999904633,8504.599999904633,15160.700000047684,16066.5,18859.099999904633,20262.299999952316,21917.299999952316,23893.700000047684,26573.200000047684],"straightlining":0.42857142857142855,"zigzagging":0.5,"honeypot":0,"survey":"nfc6","trial_type":"survey-template","trial_index":2,"time_elapsed":35591,"internal_node_id":"0.0-2.0","experiment":"validation","task_version":"1.1","jspsych_version":"6.3.1","infrequency":0},{"responses":{"Q10":"4","Q05":"0","Q11":"0","Q02":"3","Q04":"1","Q07":"3","Q03":"4","Q06":"3","Q01":"3","Q08":"4","Q09":"4"},"rt":23745.900000095367,"item_order":[9,4,10,1,3,6,2,5,0,7,8],"radio_events":[2192.0999999046326,3342.7999999523163,5822.700000047684,7290.400000095367,8910.099999904633,11602.799999952316,13479,14782.200000047684,17583.5,18612.099999904633,21760.799999952316,22960.400000095367],"key_events":[],"mouse_events":[2192.0999999046326,3342.7999999523163,5822.700000047684,7290.400000095367,8910.099999904633,9869.900000095367,11602.799999952316,13479,14782.200000047684,17583.5,18612.099999904633,21174.200000047684,21760.799999952316,22960.400000095367,23742.700000047684],"straightlining":0.36363636363636365,"zigzagging":0.2,"honeypot":0,"survey":"openness","trial_type":"survey-template","trial_index":3,"time_elapsed":59346,"internal_node_id":"0.0-3.0","experiment":"validation","task_version":"1.1","jspsych_version":"6.3.1","infrequency":0},{"responses":{"Q10":"3","Q02":"2","Q06":"1","Q07":"1","Q05":"0","Q03":"1","Q08":"1","Q04":"1","Q11":"4","Q09":"1","Q01":"1"},"rt":22239.099999904633,"item_order":[9,1,5,6,4,2,7,3,10,8,0],"radio_events":[1968.5,3142.5,4366.599999904633,5928,7558.899999856949,9190.599999904633,10386.299999952316,12449.799999952316,13352.899999856949,14420.799999952316,15480.099999904633,20793.89999985695],"key_events":[],"mouse_events":[1968.5,3142.5,4366.599999904633,5928,7558.899999856949,9190.599999904633,10386.299999952316,11384.799999952316,12449.799999952316,13352.899999856949,14420.799999952316,15480.099999904633,20793.89999985695,22236.39999985695],"straightlining":0.36363636363636365,"zigzagging":0.4,"honeypot":0,"survey":"neuroticism","trial_type":"survey-template","trial_index":4,"time_elapsed":81594,"internal_node_id":"0.0-4.0","experiment":"validation","task_version":"1.1","jspsych_version":"6.3.1","infrequency":0},{"value":[0,1.155844155844156,1.1],"trial_type":"call-function","trial_index":5,"time_elapsed":81598,"internal_node_id":"0.0-5.0","experiment":"validation","task_version":"1.1","jspsych_version":"6.3.1","interactions":"[]"}]