[{"view_history":[{"page_index":0,"viewing_time":11663.29999999702}],"rt":11673.5,"trial_type":"instructions","trial_index":0,"time_elapsed":11709,"internal_node_id":"0.0-0.0","experiment":"validation","task_version":"1.1","jspsych_version":"6.3.1"},{"rt":34392.40000000596,"responses":{"age":"32","gender-categorical":"Male","gender-free-response":"","ethnicity":"Not Hispanic or Latino","race":["White"],"education":"Master degree or higher"},"survey":"demographics","trial_type":"survey-demo","trial_index":1,"time_elapsed":46148,"internal_node_id":"0.0-1.0","experiment":"validation","task_version":"1.1","jspsych_version":"6.3.1"},{"responses":{"Q05":"3","Q03":"4","Q02":"4","Q07":"2","Q06":"2","Q04":"4","Q01":"4"},"rt":141433.79999999702,"item_order":[4,2,1,6,5,3,0],"radio_events":[62672.20000000298,63993.40000000596,65106.09999999404,72471.29999999702,90587.90000000596,128283.29999999702,131743.59999999404,137584,139440.40000000596],"key_events":[],"mouse_events":[62672.20000000298,63993.40000000596,65106.09999999404,72471.29999999702,90587.90000000596,128283.29999999702,131743.59999999404,132602,135077.5,137584,138492.09999999404,139440.40000000596,141426.70000000298],"straightlining":0.2857142857142857,"zigzagging":0.3333333333333333,"honeypot":0,"survey":"nfc6","trial_type":"survey-template","trial_index":2,"time_elapsed":187620,"internal_node_id":"0.0-2.0","experiment":"validation","task_version":"1.1","jspsych_version":"6.3.1","infrequency":0},{"responses":{"Q09":"1","Q05":"0","Q07":"0","Q04":"0","Q01":"0","Q03":"0","Q11":"0","Q08":"0","Q06":"1","Q02":"0","Q10":"0"},"rt":45436.29999999702,"item_order":[8,4,6,3,0,2,10,7,5,1,9],"radio_events":[28738.79999999702,30115.5,32074.90000000596,34203.70000000298,35184.20000000298,37136.60000000894,39148.10000000894,40224,41732.5,42817.90000000596,44217.40000000596],"key_events":[],"mouse_events":[28738.79999999702,30115.5,32074.90000000596,34203.70000000298,35184.20000000298,37136.60000000894,39148.10000000894,40224,41732.5,42817.90000000596,44217.40000000596,45419.79999999702],"straightlining":0.5454545454545454,"zigzagging":0.5,"honeypot":0,"survey":"neuroticism","trial_type":"survey-template","trial_index":3,"time_elapsed":233086,"internal_node_id":"0.0-3.0","experiment":"validation","task_version":"1.1","jspsych_version":"6.3.1","infrequency":1},{"responses":{"Q07":"4","Q05":"0","Q02":"4","Q03":"3","Q09":"4","Q11":"0","Q08":"2","Q01":"1","Q10":"2","Q06":"4","Q04":"1"},"rt":67380.5,"item_order":[6,4,1,2,8,10,7,0,9,5,3],"radio_events":[40115.20000000298,41488.70000000298,42411.89999999106,45042,46973.29999999702,52066.09999999404,52680.59999999404,54284.79999999702,55588.70000000298,56500.59999999404,58926.29999999702,60596.70000000298,64666.39999999106],"key_events":[],"mouse_events":[40115.20000000298,41488.70000000298,42411.89999999106,45042,46973.29999999702,49797.20000000298,52066.09999999404,52680.59999999404,54284.79999999702,55588.70000000298,56500.59999999404,58926.29999999702,60596.70000000298,61373.09999999404,64666.39999999106,67361.5],"straightlining":0.36363636363636365,"zigzagging":0.4,"honeypot":0,"survey":"openness","trial_type":"survey-template","trial_index":4,"time_elapsed":300494,"internal_node_id":"0.0-4.0","experiment":"validation","task_version":"1.1","jspsych_version":"6.3.1","infrequency":0},{"value":[1,1.1948051948051948,1.2333333333333334],"trial_type":"call-function","trial_index":5,"time_elapsed":300503,"internal_node_id":"0.0-5.0","experiment":"validation","task_version":"1.1","jspsych_version":"6.3.1","interactions":"[]"}]