[{"view_history":[{"page_index":0,"viewing_time":1383.4000000059605}],"rt":1383.7000000029802,"trial_type":"instructions","trial_index":0,"time_elapsed":1400,"internal_node_id":"0.0-0.0","experiment":"validation","task_version":"2.0","jspsych_version":"6.3.1"},{"rt":8447.90000000596,"responses":{"age":"22","gender-categorical":"Male","gender-free-response":"","ethnicity":"Not Hispanic or Latino","race":["Black or African American"],"education":"Bachelor degree"},"survey":"demographics","trial_type":"survey-demo","trial_index":1,"time_elapsed":9851,"internal_node_id":"0.0-1.0","experiment":"validation","task_version":"2.0","jspsych_version":"6.3.1"},{"responses":{"Q09":"2","Q01":"2","Q06":"1","Q07":"3","Q02":"3","Q05":"1","Q08":"3","Q03":"3","Q04":"2","Q10":"2","Q11":"0"},"rt":38089.60000000894,"item_order":[8,0,5,6,1,4,7,2,3,9,10],"radio_events":[6584.29999999702,7345.5,11372.90000000596,15808.29999999702,16417.29999999702,20393.90000000596,25555.60000000894,26388.60000000894,27914,33051.10000000894,35954],"key_events":[],"mouse_events":[3681.6000000089407,5387.600000008941,6135.600000008941,6584.29999999702,7345.5,10755.90000000596,11372.90000000596,15808.29999999702,16417.29999999702,17194.90000000596,20393.90000000596,23385.79999999702,25067.5,25555.60000000894,26388.60000000894,27914,31561.90000000596,32442.5,33051.10000000894,35302.10000000894,35954,38084.90000000596],"straightlining":0.36363636363636365,"zigzagging":0.2,"honeypot":0,"survey":"nfc10","trial_type":"survey-template","trial_index":2,"time_elapsed":47947,"internal_node_id":"0.0-2.0","experiment":"validation","task_version":"2.0","jspsych_version":"6.3.1","infrequency":0},{"responses":{"Q03":"3","Q07":"3","Q01":"3","Q02":"3","Q08":"3","Q09":"0","Q05":"2","Q06":"3","Q04":"2"},"rt":21719.40000000596,"item_order":[2,6,0,1,7,8,4,5,3],"radio_events":[5735.79999999702,6536.5,7601.29999999702,9627.29999999702,12594.29999999702,14584.60000000894,15593.60000000894,18336.10000000894,21035.29999999702],"key_events":[],"mouse_events":[5735.79999999702,6536.5,7601.29999999702,9627.29999999702,11473.70000000298,12594.29999999702,13683.90000000596,14584.60000000894,15593.60000000894,17731.29999999702,18336.10000000894,21035.29999999702,21715.79999999702],"straightlining":0.6666666666666666,"zigzagging":0.375,"honeypot":0,"survey":"pcf","trial_type":"survey-template","trial_index":3,"time_elapsed":69673,"internal_node_id":"0.0-3.0","experiment":"validation","task_version":"2.0","jspsych_version":"6.3.1","infrequency":1},{"rt":29324.89999999106,"response":{"Q6":0,"Q2":2,"Q8":0,"Q5":1,"Q4":3,"Q3":4,"Q7":4,"Q0":4,"Q1":4},"question_order":[6,2,8,5,4,3,7,0,1],"survey":"sns","trial_type":"survey-likert","trial_index":4,"time_elapsed":99005,"internal_node_id":"0.0-4.0","experiment":"validation","task_version":"2.0","jspsych_version":"6.3.1","infrequency":0},{"value":1,"trial_type":"call-function","trial_index":5,"time_elapsed":99007,"internal_node_id":"0.0-5.0","experiment":"validation","task_version":"2.0","jspsych_version":"6.3.1","interactions":"[]"}]