[{"view_history":[{"page_index":0,"viewing_time":2517.099999997765}],"rt":2517.39999999851,"trial_type":"instructions","trial_index":0,"time_elapsed":2541,"internal_node_id":"0.0-0.0","experiment":"validation","task_version":"1.1","jspsych_version":"6.3.1"},{"rt":7723.199999999255,"responses":{"age":"24","gender-categorical":"Female","gender-free-response":"","ethnicity":"Not Hispanic or Latino","race":["White"],"education":"Bachelor degree"},"survey":"demographics","trial_type":"survey-demo","trial_index":1,"time_elapsed":10267,"internal_node_id":"0.0-1.0","experiment":"validation","task_version":"1.1","jspsych_version":"6.3.1"},{"responses":{"Q09":"3","Q11":"4","Q03":"1","Q06":"3","Q07":"3","Q10":"1","Q01":"1","Q04":"1","Q08":"1","Q05":"2","Q02":"1"},"rt":15685.900000002235,"item_order":[8,10,2,5,6,9,0,3,7,4,1],"radio_events":[2980.10000000149,4220.400000002235,5108.699999999255,7744.199999999255,8295.699999999255,9167.5,10473.400000002235,11300.900000002235,12200.60000000149,12954.10000000149,14856.199999999255],"key_events":[],"mouse_events":[2980.10000000149,4220.400000002235,5108.699999999255,7168.199999999255,7744.199999999255,8295.699999999255,9167.5,10473.400000002235,11300.900000002235,12200.60000000149,12954.10000000149,13728.800000000745,14482.300000000745,14856.199999999255,15683.199999999255],"straightlining":0.6363636363636364,"zigzagging":0.2,"honeypot":0,"survey":"neuroticism","trial_type":"survey-template","trial_index":2,"time_elapsed":25961,"internal_node_id":"0.0-2.0","experiment":"validation","task_version":"1.1","jspsych_version":"6.3.1","infrequency":0},{"responses":{"Q05":"1","Q10":"3","Q02":"1","Q07":"3","Q01":"3","Q11":"0","Q08":"3","Q04":"2","Q06":"3","Q03":"3","Q09":"3"},"rt":17161,"item_order":[4,9,1,6,0,10,7,3,5,2,8],"radio_events":[2606,4009.199999999255,4836.60000000149,6166.10000000149,7085.800000000745,8100.300000000745,11003.699999999255,12215.900000002235,14154.5,15062.300000000745,16372.300000000745],"key_events":[],"mouse_events":[1997.9000000022352,2606,3360.300000000745,4009.199999999255,4836.60000000149,6166.10000000149,7085.800000000745,8100.300000000745,11003.699999999255,12215.900000002235,14154.5,15062.300000000745,15885.699999999255,16372.300000000745,17158.900000002235],"straightlining":0.5454545454545454,"zigzagging":0.3,"honeypot":0,"survey":"openness","trial_type":"survey-template","trial_index":3,"time_elapsed":43128,"internal_node_id":"0.0-3.0","experiment":"validation","task_version":"1.1","jspsych_version":"6.3.1","infrequency":0},{"responses":{"Q03":"1","Q01":"1","Q06":"1","Q05":"1","Q02":"1","Q07":"2","Q04":"1"},"rt":11246,"item_order":[2,0,5,4,1,6,3],"radio_events":[3077.400000002235,3961.300000000745,5599.5,6564.5,7558.10000000149,8588,10623.70000000298],"key_events":[],"mouse_events":[3077.400000002235,3961.300000000745,4877.900000002235,5599.5,6564.5,7558.10000000149,8588,10283.20000000298,10623.70000000298,11244.400000002235],"straightlining":0.5714285714285714,"zigzagging":0.3333333333333333,"honeypot":0,"survey":"nfc6","trial_type":"survey-template","trial_index":4,"time_elapsed":54380,"internal_node_id":"0.0-4.0","experiment":"validation","task_version":"1.1","jspsych_version":"6.3.1","infrequency":0},{"value":[0,1.753246753246753,0.8333333333333333],"trial_type":"call-function","trial_index":5,"time_elapsed":54385,"internal_node_id":"0.0-5.0","experiment":"validation","task_version":"1.1","jspsych_version":"6.3.1","interactions":"[]"}]