[{"view_history":[{"page_index":0,"viewing_time":1276.3999999999069}],"rt":1276.5,"trial_type":"instructions","trial_index":0,"time_elapsed":1284,"internal_node_id":"0.0-0.0","experiment":"validation","task_version":"1.1","jspsych_version":"6.3.1"},{"rt":11495.899999999907,"responses":{"age":"35","gender-categorical":"Male","gender-free-response":"","ethnicity":"Not Hispanic or Latino","race":["White"],"education":"Some college"},"survey":"demographics","trial_type":"survey-demo","trial_index":1,"time_elapsed":12781,"internal_node_id":"0.0-1.0","experiment":"validation","task_version":"1.1","jspsych_version":"6.3.1"},{"responses":{"Q02":"2","Q04":"3","Q06":"3","Q07":"2","Q05":"3","Q01":"3","Q03":"3"},"rt":29314,"item_order":[1,3,5,6,4,0,2],"radio_events":[4785.5999999996275,8589.5,11965.5,13645.599999999627,16403.5,18957.399999999907,24000.5,27985.5],"key_events":[],"mouse_events":[4785.5999999996275,8589.5,11001.5,11683.5,11965.5,13395.599999999627,13645.599999999627,16403.5,18957.399999999907,19598.5,24000.5,27985.5,29313.399999999907],"straightlining":0.42857142857142855,"zigzagging":0.5,"honeypot":0,"survey":"nfc6","trial_type":"survey-template","trial_index":2,"time_elapsed":42097,"internal_node_id":"0.0-2.0","experiment":"validation","task_version":"1.1","jspsych_version":"6.3.1","infrequency":0},{"responses":{"Q07":"4","Q10":"4","Q01":"3","Q11":"0","Q03":"2","Q08":"0","Q05":"2","Q09":"3","Q04":"2","Q02":"4","Q06":"3"},"rt":29222.5,"item_order":[6,9,0,10,2,7,4,8,3,1,5],"radio_events":[2640.899999999907,4072.600000000093,6152.800000000279,10831.700000000186,14056.700000000186,15690.80000000028,17698.80000000028,19991.80000000028,25075.80000000028,26901.700000000186,28200.80000000028],"key_events":[],"mouse_events":[2640.899999999907,4072.600000000093,6152.800000000279,10303.80000000028,10831.700000000186,13571.80000000028,14056.700000000186,15690.80000000028,17698.80000000028,19991.80000000028,25075.80000000028,26901.700000000186,28200.80000000028,29221.80000000028],"straightlining":0.2727272727272727,"zigzagging":0.2,"honeypot":0,"survey":"openness","trial_type":"survey-template","trial_index":3,"time_elapsed":71322,"internal_node_id":"0.0-3.0","experiment":"validation","task_version":"1.1","jspsych_version":"6.3.1","infrequency":0},{"responses":{"Q03":"4","Q01":"4","Q05":"4","Q08":"4","Q04":"3","Q11":"4","Q09":"4","Q07":"4","Q02":"4","Q10":"4","Q06":"4"},"rt":19613.5,"item_order":[2,0,4,7,3,10,8,6,1,9,5],"radio_events":[2795.8000000002794,3972.8000000002794,5074.800000000279,6818.800000000279,8242.700000000186,9929.700000000186,12908.700000000186,14067.700000000186,15242.700000000186,17394.700000000186,17706.700000000186],"key_events":[],"mouse_events":[2795.8000000002794,3972.8000000002794,5074.800000000279,6818.800000000279,8242.700000000186,9929.700000000186,12908.700000000186,14067.700000000186,15242.700000000186,16577.700000000186,17394.700000000186,17706.700000000186,19612.700000000186],"straightlining":0.45454545454545453,"zigzagging":0.5,"honeypot":0,"survey":"neuroticism","trial_type":"survey-template","trial_index":4,"time_elapsed":90937,"internal_node_id":"0.0-4.0","experiment":"validation","task_version":"1.1","jspsych_version":"6.3.1","infrequency":0},{"value":[0,1.155844155844156,1.2],"trial_type":"call-function","trial_index":5,"time_elapsed":90938,"internal_node_id":"0.0-5.0","experiment":"validation","task_version":"1.1","jspsych_version":"6.3.1","interactions":"[]"}]