[{"view_history":[{"page_index":0,"viewing_time":6337.900000095367}],"rt":6341.5,"trial_type":"instructions","trial_index":0,"time_elapsed":6824,"internal_node_id":"0.0-0.0","experiment":"validation","task_version":"1.1","jspsych_version":"6.3.1"},{"rt":24218.300000071526,"responses":{"age":"59","gender-categorical":"Female","gender-free-response":"","ethnicity":"Not Hispanic or Latino","race":["Black or African American"],"education":"Bachelor degree"},"survey":"demographics","trial_type":"survey-demo","trial_index":1,"time_elapsed":31106,"internal_node_id":"0.0-1.0","experiment":"validation","task_version":"1.1","jspsych_version":"6.3.1"},{"responses":{"Q06":"4","Q11":"0","Q04":"0","Q08":"0","Q02":"4","Q05":"1","Q10":"4","Q01":"2","Q03":"4","Q09":"2","Q07":"2"},"rt":49790.5,"item_order":[5,10,3,7,1,4,9,0,2,8,6],"radio_events":[6833.100000023842,7826.5,11985,12862.600000023842,16515.699999928474,19835,23440.299999952316,24874.799999952316,31870.699999928474,32974.39999997616,48367.39999997616],"key_events":[],"mouse_events":[6833.100000023842,7826.5,10314.299999952316,11985,12862.600000023842,14163.5,16515.699999928474,19835,21831.399999976158,23440.299999952316,24874.799999952316,31870.699999928474,32974.39999997616,35982.39999997616,44579.39999997616,48367.39999997616,49780.299999952316],"straightlining":0.36363636363636365,"zigzagging":0.2,"honeypot":0,"survey":"openness","trial_type":"survey-template","trial_index":2,"time_elapsed":80918,"internal_node_id":"0.0-2.0","experiment":"validation","task_version":"1.1","jspsych_version":"6.3.1","infrequency":0},{"responses":{"Q04":"0","Q11":"0","Q05":"0","Q06":"4","Q07":"4","Q01":"0","Q10":"0","Q02":"0","Q08":"0","Q03":"0","Q09":"1"},"rt":25466.100000023842,"item_order":[3,10,4,5,6,0,9,1,7,2,8],"radio_events":[4803,5747.399999976158,6576.799999952316,7306.5,8098.899999976158,8893.100000023842,11224.199999928474,13155.199999928474,14901.199999928474,16536.399999976158,24034.100000023842],"key_events":[],"mouse_events":[4803,5747.399999976158,6576.799999952316,7306.5,8098.899999976158,8893.100000023842,11224.199999928474,13155.199999928474,14901.199999928474,16536.399999976158,24034.100000023842,25455.5],"straightlining":0.7272727272727273,"zigzagging":0.4,"honeypot":0,"survey":"neuroticism","trial_type":"survey-template","trial_index":3,"time_elapsed":106400,"internal_node_id":"0.0-3.0","experiment":"validation","task_version":"1.1","jspsych_version":"6.3.1","infrequency":1},{"responses":{"Q06":"2","Q02":"2","Q03":"4","Q07":"2","Q05":"4","Q01":"2","Q04":"2"},"rt":118384.39999997616,"item_order":[5,1,2,6,4,0,3],"radio_events":[87384.70000004768,91796.20000004768,94696.20000004768,96971.79999995232,101689.89999997616,114548.10000002384,115911.70000004768],"key_events":[],"mouse_events":[84812.29999995232,87384.70000004768,91796.20000004768,94696.20000004768,96971.79999995232,101689.89999997616,105035.5,113848.89999997616,114548.10000002384,115194.79999995232,115911.70000004768,118375.79999995232],"straightlining":0.7142857142857143,"zigzagging":0,"honeypot":0,"survey":"nfc6","trial_type":"survey-template","trial_index":4,"time_elapsed":224799,"internal_node_id":"0.0-4.0","experiment":"validation","task_version":"1.1","jspsych_version":"6.3.1","infrequency":0},{"value":[1,1.8051948051948052,0.6000000000000001],"trial_type":"call-function","trial_index":5,"time_elapsed":224808,"internal_node_id":"0.0-5.0","experiment":"validation","task_version":"1.1","jspsych_version":"6.3.1","interactions":"[]"}]