[{"view_history":[{"page_index":0,"viewing_time":6210}],"rt":6210.600000023842,"trial_type":"instructions","trial_index":0,"time_elapsed":6218,"internal_node_id":"0.0-0.0","experiment":"validation","task_version":"1.1","jspsych_version":"6.3.1"},{"rt":24049.400000035763,"responses":{"age":"18","gender-categorical":"Female","gender-free-response":"","ethnicity":"Not Hispanic or Latino","race":["White"],"education":"High school"},"survey":"demographics","trial_type":"survey-demo","trial_index":1,"time_elapsed":30270,"internal_node_id":"0.0-1.0","experiment":"validation","task_version":"1.1","jspsych_version":"6.3.1"},{"responses":{"Q05":"3","Q08":"3","Q04":"3","Q03":"3","Q01":"3","Q07":"3","Q11":"4","Q10":"3","Q09":"1","Q02":"3","Q06":"3"},"rt":67933.90000003576,"item_order":[4,7,3,2,0,6,10,9,8,1,5],"radio_events":[7826.800000011921,16153.100000023842,19719.100000023842,23392.5,25147.5,32886.30000001192,40547.200000047684,42326.10000002384,58171.10000002384,60783.30000001192,63833.30000001192,67128.60000002384],"key_events":[],"mouse_events":[7826.800000011921,15612.800000011921,16153.100000023842,19195.200000047684,19719.100000023842,23392.5,25147.5,32060.700000047684,32886.30000001192,40547.200000047684,42326.10000002384,58171.10000002384,60783.30000001192,63269.40000003576,63833.30000001192,67128.60000002384,67930.5],"straightlining":0.5454545454545454,"zigzagging":0,"honeypot":0,"survey":"neuroticism","trial_type":"survey-template","trial_index":2,"time_elapsed":98210,"internal_node_id":"0.0-2.0","experiment":"validation","task_version":"1.1","jspsych_version":"6.3.1","infrequency":0},{"responses":{"Q04":"0","Q06":"3","Q02":"1","Q03":"3","Q01":"3","Q07":"4","Q08":"4","Q05":"1","Q10":"3","Q11":"0","Q09":"3"},"rt":49178.09999996424,"item_order":[3,5,1,2,0,6,7,4,9,10,8],"radio_events":[14161.699999988079,15980.399999976158,18347.30000001192,20713.19999998808,24024.69999998808,32608.69999998808,37016,38653,39335.5,41479.09999996424,43551.5,44973.19999998808,47927.69999998808],"key_events":[],"mouse_events":[14161.699999988079,15980.399999976158,18347.30000001192,20713.19999998808,24024.69999998808,24803.099999964237,31600.599999964237,32013.599999964237,32608.69999998808,37016,38279.69999998808,38653,39335.5,41479.09999996424,43551.5,44973.19999998808,46068.69999998808,47291.5,47927.69999998808,49174.19999998808],"straightlining":0.36363636363636365,"zigzagging":0.2,"honeypot":0,"survey":"openness","trial_type":"survey-template","trial_index":3,"time_elapsed":147392,"internal_node_id":"0.0-3.0","experiment":"validation","task_version":"1.1","jspsych_version":"6.3.1","infrequency":0},{"responses":{"Q02":"1","Q07":"2","Q01":"1","Q06":"3","Q05":"3","Q04":"3","Q03":"3"},"rt":346763.60000002384,"item_order":[1,6,0,5,4,3,2],"radio_events":[4961.699999988079,8051.300000011921,13515.600000023842,16295.100000023842,64421.89999997616,296123.39999997616,340058.60000002384,345394.39999997616],"key_events":[],"mouse_events":[4961.699999988079,8051.300000011921,12013.899999976158,12759.5,13515.600000023842,16295.100000023842,63778.39999997616,64421.89999997616,295446.10000002384,296123.39999997616,340058.60000002384,345394.39999997616,346761.39999997616],"straightlining":0.5714285714285714,"zigzagging":0.3333333333333333,"honeypot":0,"survey":"nfc6","trial_type":"survey-template","trial_index":4,"time_elapsed":494150,"internal_node_id":"0.0-4.0","experiment":"validation","task_version":"1.1","jspsych_version":"6.3.1","infrequency":0},{"value":[0,1.4805194805194803,0.5333333333333333],"trial_type":"call-function","trial_index":5,"time_elapsed":494153,"internal_node_id":"0.0-5.0","experiment":"validation","task_version":"1.1","jspsych_version":"6.3.1","interactions":"[{\"event\":\"blur\",\"trial\":4,\"time\":216439},{\"event\":\"focus\",\"trial\":4,\"time\":439083}]"}]