[{"view_history":[{"page_index":0,"viewing_time":2347.399999976158}],"rt":2347.6999999284744,"trial_type":"instructions","trial_index":0,"time_elapsed":2397,"internal_node_id":"0.0-0.0","experiment":"validation","task_version":"2.0","jspsych_version":"6.3.1"},{"rt":29853.399999976158,"responses":{"age":"39","gender-categorical":"Other","gender-free-response":"non-binary","ethnicity":"Not Hispanic or Latino","race":["White"],"education":"High school"},"survey":"demographics","trial_type":"survey-demo","trial_index":1,"time_elapsed":32273,"internal_node_id":"0.0-1.0","experiment":"validation","task_version":"2.0","jspsych_version":"6.3.1"},{"responses":{"Q01":"2","Q07":"2","Q03":"1","Q09":"4","Q08":"4","Q06":"1","Q05":"1","Q02":"1","Q04":"2"},"rt":30456.200000047684,"item_order":[0,6,2,8,7,5,4,1,3],"radio_events":[9001.800000071526,11129.200000047684,13735.900000095367,15820.700000047684,19516.200000047684,22251.600000023842,23832.800000071526,25258.100000023842,29241.400000095367],"key_events":[],"mouse_events":[9001.800000071526,11129.200000047684,13735.900000095367,15820.700000047684,19516.200000047684,22251.600000023842,23832.800000071526,25258.100000023842,28391.800000071526,29241.400000095367,30444.900000095367],"straightlining":0.4444444444444444,"zigzagging":0.5,"honeypot":0,"survey":"pcf","trial_type":"survey-template","trial_index":2,"time_elapsed":62746,"internal_node_id":"0.0-2.0","experiment":"validation","task_version":"2.0","jspsych_version":"6.3.1","infrequency":0},{"responses":{"Q08":"3","Q06":"1","Q01":"1","Q09":"2","Q07":"1","Q02":"1","Q10":"1","Q05":"1","Q04":"2","Q03":"2","Q11":"0"},"rt":72509,"item_order":[7,5,0,8,6,1,9,4,3,2,10],"radio_events":[4576.100000023842,6773,8402,10741.5,14692.899999976158,18044.399999976158,19091.799999952316,25559.700000047684,54699.200000047684,65377.700000047684,66683.60000002384,70933.60000002384],"key_events":[],"mouse_events":[4576.100000023842,6773,8402,10741.5,14692.899999976158,18044.399999976158,19091.799999952316,25559.700000047684,53796.5,54699.200000047684,63160.799999952316,65377.700000047684,66683.60000002384,70933.60000002384,72496.79999995232],"straightlining":0.45454545454545453,"zigzagging":0.3,"honeypot":0,"survey":"nfc10","trial_type":"survey-template","trial_index":3,"time_elapsed":135272,"internal_node_id":"0.0-3.0","experiment":"validation","task_version":"2.0","jspsych_version":"6.3.1","infrequency":0},{"rt":110632.10000002384,"response":{"Q5":5,"Q6":0,"Q3":4,"Q7":5,"Q2":5,"Q8":0,"Q4":4,"Q0":2,"Q1":2},"question_order":[5,6,3,7,2,8,4,0,1],"survey":"sns","trial_type":"survey-likert","trial_index":4,"time_elapsed":245926,"internal_node_id":"0.0-4.0","experiment":"validation","task_version":"2.0","jspsych_version":"6.3.1","infrequency":0},{"value":0,"trial_type":"call-function","trial_index":5,"time_elapsed":245934,"internal_node_id":"0.0-5.0","experiment":"validation","task_version":"2.0","jspsych_version":"6.3.1","interactions":"[{\"event\":\"blur\",\"trial\":4,\"time\":212868},{\"event\":\"focus\",\"trial\":4,\"time\":213165}]"}]