[{"view_history":[{"page_index":0,"viewing_time":1785.2000000476837}],"rt":1785.2999999523163,"trial_type":"instructions","trial_index":0,"time_elapsed":1790,"internal_node_id":"0.0-0.0","experiment":"validation","task_version":"2.0","jspsych_version":"6.3.1"},{"rt":6750.300000190735,"responses":{"age":"35","gender-categorical":"Female","gender-free-response":"","ethnicity":"Not Hispanic or Latino","race":["White"],"education":"Some college"},"survey":"demographics","trial_type":"survey-demo","trial_index":1,"time_elapsed":8542,"internal_node_id":"0.0-1.0","experiment":"validation","task_version":"2.0","jspsych_version":"6.3.1"},{"responses":{"Q04":"3","Q07":"3","Q05":"2","Q01":"3","Q09":"4","Q02":"3","Q06":"4","Q03":"2","Q08":"4"},"rt":25039.099999904633,"item_order":[3,6,4,0,8,1,5,2,7],"radio_events":[5271.299999952316,5498.299999952316,6209.899999856949,10141.799999952316,11376.399999856949,13386.299999952316,17654.39999985695,20625.89999985695,22654,24299.799999952316],"key_events":[],"mouse_events":[4753.099999904633,5271.299999952316,5498.299999952316,6209.899999856949,8983.199999809265,9787.799999952316,10141.799999952316,11376.399999856949,13386.299999952316,17654.39999985695,20625.89999985695,22253.699999809265,22654,24299.799999952316,25038],"straightlining":0.4444444444444444,"zigzagging":0.375,"honeypot":0,"survey":"pcf","trial_type":"survey-template","trial_index":2,"time_elapsed":33584,"internal_node_id":"0.0-2.0","experiment":"validation","task_version":"2.0","jspsych_version":"6.3.1","infrequency":0},{"responses":{"Q07":"2","Q03":"3","Q11":"0","Q10":"2","Q09":"2","Q01":"2","Q04":"3","Q05":"3","Q06":"2","Q08":"3","Q02":"2"},"rt":49392.799999952316,"item_order":[6,2,10,9,8,0,3,4,5,7,1],"radio_events":[9100.100000143051,10031.600000143051,15003,20967.5,24672.900000095367,25621.200000047684,29375.400000095367,38252.90000009537,42248.40000009537,45296.200000047684,48820.10000014305],"key_events":[],"mouse_events":[9100.100000143051,10031.600000143051,14380.700000047684,15003,20967.5,22533.400000095367,22884.900000095367,23248.200000047684,23654.200000047684,24672.900000095367,25621.200000047684,29375.400000095367,38252.90000009537,40771.700000047684,42248.40000009537,45296.200000047684,48820.10000014305,49392],"straightlining":0.5454545454545454,"zigzagging":0.6,"honeypot":0,"survey":"nfc10","trial_type":"survey-template","trial_index":3,"time_elapsed":82980,"internal_node_id":"0.0-3.0","experiment":"validation","task_version":"2.0","jspsych_version":"6.3.1","infrequency":0},{"rt":32864.200000047684,"response":{"Q4":3,"Q1":0,"Q0":0,"Q3":3,"Q7":1,"Q8":0,"Q2":2,"Q5":2,"Q6":2},"question_order":[4,1,0,3,7,8,2,5,6],"survey":"sns","trial_type":"survey-likert","trial_index":4,"time_elapsed":115847,"internal_node_id":"0.0-4.0","experiment":"validation","task_version":"2.0","jspsych_version":"6.3.1","infrequency":0},{"value":0,"trial_type":"call-function","trial_index":5,"time_elapsed":115848,"internal_node_id":"0.0-5.0","experiment":"validation","task_version":"2.0","jspsych_version":"6.3.1","interactions":"[]"}]