[{"view_history":[{"page_index":0,"viewing_time":1427.8999999761581}],"rt":1428.3999999761581,"trial_type":"instructions","trial_index":0,"time_elapsed":1432,"internal_node_id":"0.0-0.0","experiment":"validation","task_version":"1.1","jspsych_version":"6.3.1"},{"rt":10167.5,"responses":{"age":"27","gender-categorical":"Female","gender-free-response":"","ethnicity":"Not Hispanic or Latino","race":["White"],"education":"Bachelor degree"},"survey":"demographics","trial_type":"survey-demo","trial_index":1,"time_elapsed":11603,"internal_node_id":"0.0-1.0","experiment":"validation","task_version":"1.1","jspsych_version":"6.3.1"},{"responses":{"Q01":"3","Q02":"3","Q07":"2","Q04":"3","Q05":"3","Q06":"2","Q03":"3"},"rt":37705.80000001192,"item_order":[0,1,6,3,4,5,2],"radio_events":[5161.5,10653.300000011921,12964.40000000596,20335.30000001192,23387.20000001788,35805.30000001192,36747.30000001192],"key_events":[],"mouse_events":[5161.5,10653.300000011921,12964.40000000596,19633.30000001192,20335.30000001192,22839.30000001192,23387.20000001788,35805.30000001192,36747.30000001192,37703.30000001192],"straightlining":0.42857142857142855,"zigzagging":0.6666666666666666,"honeypot":0,"survey":"nfc6","trial_type":"survey-template","trial_index":2,"time_elapsed":49312,"internal_node_id":"0.0-2.0","experiment":"validation","task_version":"1.1","jspsych_version":"6.3.1","infrequency":0},{"responses":{"Q03":"4","Q10":"4","Q11":"0","Q06":"4","Q07":"4","Q05":"0","Q09":"3","Q04":"2","Q01":"3","Q02":"3","Q08":"4"},"rt":40692.29999998212,"item_order":[2,9,10,5,6,4,8,3,0,1,7],"radio_events":[3493.199999988079,5436.899999976158,7569.199999988079,15545.199999988079,18685,19437.09999999404,20642.899999976158,21369.09999999404,25278.79999998212,32643.09999999404,34623.09999999404,36428.89999997616,40011],"key_events":[],"mouse_events":[2991,3493.199999988079,5436.899999976158,7569.199999988079,15545.199999988079,18685,19437.09999999404,20642.899999976158,21369.09999999404,24499.09999999404,25278.79999998212,32643.09999999404,34623.09999999404,36428.89999997616,38573.09999999404,39529,40011,40689.09999999404],"straightlining":0.45454545454545453,"zigzagging":0.4,"honeypot":0,"survey":"openness","trial_type":"survey-template","trial_index":3,"time_elapsed":90008,"internal_node_id":"0.0-3.0","experiment":"validation","task_version":"1.1","jspsych_version":"6.3.1","infrequency":0},{"responses":{"Q07":"2","Q02":"0","Q09":"2","Q03":"1","Q01":"1","Q06":"1","Q10":"1","Q04":"1","Q11":"4","Q08":"1","Q05":"0"},"rt":40627.19999998808,"item_order":[6,1,8,2,0,5,9,3,10,7,4],"radio_events":[3182.4000000059605,7276.300000011921,7922.300000011921,12362.5,14540.300000011921,16458.5,17974.5,26108.19999998808,27876.5,29984.40000000596,31810.09999999404,36094.40000000596,39718.5],"key_events":[],"mouse_events":[2660.4000000059605,3182.4000000059605,6704.300000011921,7276.300000011921,7922.300000011921,11766.199999988079,12362.5,14540.300000011921,16458.5,17974.5,24514.40000000596,25126.40000000596,25732.09999999404,26108.19999998808,27876.5,29984.40000000596,31810.09999999404,36094.40000000596,39718.5,40624.30000001192],"straightlining":0.2727272727272727,"zigzagging":0.2,"honeypot":0,"survey":"neuroticism","trial_type":"survey-template","trial_index":4,"time_elapsed":130638,"internal_node_id":"0.0-4.0","experiment":"validation","task_version":"1.1","jspsych_version":"6.3.1","infrequency":0},{"value":[0,1.155844155844156,1.2666666666666666],"trial_type":"call-function","trial_index":5,"time_elapsed":130640,"internal_node_id":"0.0-5.0","experiment":"validation","task_version":"1.1","jspsych_version":"6.3.1","interactions":"[]"}]