[{"view_history":[{"page_index":0,"viewing_time":2720.5}],"rt":2721.100000023842,"trial_type":"instructions","trial_index":0,"time_elapsed":2734,"internal_node_id":"0.0-0.0","experiment":"validation","task_version":"1.1","jspsych_version":"6.3.1"},{"rt":10905.400000035763,"responses":{"age":"20","gender-categorical":"Female","gender-free-response":"","ethnicity":"Not Hispanic or Latino","race":["Asian"],"education":"Some college"},"survey":"demographics","trial_type":"survey-demo","trial_index":1,"time_elapsed":13643,"internal_node_id":"0.0-1.0","experiment":"validation","task_version":"1.1","jspsych_version":"6.3.1"},{"responses":{"Q08":"1","Q01":"0","Q06":"1","Q04":"0","Q03":"0","Q09":"1","Q07":"0","Q02":"2","Q10":"2","Q05":"1","Q11":"0"},"rt":44939,"item_order":[7,0,5,3,2,8,6,1,9,4,10],"radio_events":[4044.2999999523163,8642.099999964237,13144.399999976158,15444.299999952316,16995.299999952316,18856,26502.299999952316,30600.899999976158,37803,39629.5,42002.19999998808,43602.5],"key_events":[],"mouse_events":[4044.2999999523163,6613.799999952316,8642.099999964237,12424.299999952316,13144.399999976158,14393.199999988079,15444.299999952316,16995.299999952316,18856,26502.299999952316,30600.899999976158,37803,39629.5,42002.19999998808,43602.5,44937.89999997616],"straightlining":0.36363636363636365,"zigzagging":0.3,"honeypot":0,"survey":"neuroticism","trial_type":"survey-template","trial_index":2,"time_elapsed":58588,"internal_node_id":"0.0-2.0","experiment":"validation","task_version":"1.1","jspsych_version":"6.3.1","infrequency":1},{"responses":{"Q02":"3","Q07":"2","Q06":"3","Q03":"4","Q05":"3","Q04":"3","Q01":"3"},"rt":33334.19999998808,"item_order":[1,6,5,2,4,3,0],"radio_events":[10430.800000011921,13158.400000035763,17333.100000023842,21751.80000001192,25609.400000035763,30750.30000001192,32323.19999998808],"key_events":[],"mouse_events":[9053.100000023842,10430.800000011921,13158.400000035763,16616.30000001192,17333.100000023842,21751.80000001192,25609.400000035763,29797.100000023842,30750.30000001192,32323.19999998808,33332.60000002384],"straightlining":0.5714285714285714,"zigzagging":0.3333333333333333,"honeypot":0,"survey":"nfc6","trial_type":"survey-template","trial_index":3,"time_elapsed":91926,"internal_node_id":"0.0-3.0","experiment":"validation","task_version":"1.1","jspsych_version":"6.3.1","infrequency":0},{"responses":{"Q08":"2","Q03":"2","Q09":"4","Q04":"1","Q06":"4","Q11":"0","Q05":"0","Q01":"4","Q07":"4","Q02":"3","Q10":"2"},"rt":84804.30000001192,"item_order":[7,2,8,3,5,10,4,0,6,1,9],"radio_events":[5278.900000035763,9650.400000035763,12333.400000035763,19465.600000023842,68027.80000001192,73586,75337.19999998808,79284.69999998808,80286.10000002384,82029.40000003576,83722.90000003576],"key_events":[],"mouse_events":[5278.900000035763,9650.400000035763,12333.400000035763,19465.600000023842,68027.80000001192,73586,75337.19999998808,78509.19999998808,79284.69999998808,80286.10000002384,82029.40000003576,83099.5,83722.90000003576,84803.30000001192],"straightlining":0.36363636363636365,"zigzagging":0.3,"honeypot":0,"survey":"openness","trial_type":"survey-template","trial_index":4,"time_elapsed":176735,"internal_node_id":"0.0-4.0","experiment":"validation","task_version":"1.1","jspsych_version":"6.3.1","infrequency":0},{"value":[1,1.2987012987012987,0.9333333333333333],"trial_type":"call-function","trial_index":5,"time_elapsed":176736,"internal_node_id":"0.0-5.0","experiment":"validation","task_version":"1.1","jspsych_version":"6.3.1","interactions":"[]"}]