[{"view_history":[{"page_index":0,"viewing_time":6236.299999999814}],"rt":6238,"trial_type":"instructions","trial_index":0,"time_elapsed":6279,"internal_node_id":"0.0-0.0","experiment":"validation","task_version":"1.1","jspsych_version":"6.3.1"},{"rt":8039.899999999907,"responses":{"age":"34","gender-categorical":"Male","gender-free-response":"","ethnicity":"Not Hispanic or Latino","race":["White"],"education":"Some college"},"survey":"demographics","trial_type":"survey-demo","trial_index":1,"time_elapsed":14321,"internal_node_id":"0.0-1.0","experiment":"validation","task_version":"1.1","jspsych_version":"6.3.1"},{"responses":{"Q07":"4","Q08":"4","Q05":"0","Q10":"4","Q04":"1","Q01":"4","Q09":"3","Q03":"4","Q11":"0","Q02":"4","Q06":"4"},"rt":20111,"item_order":[6,7,4,9,3,0,8,2,10,1,5],"radio_events":[2552.5,4073.600000000093,5469.5,6916.800000000279,8552.600000000093,10225,12184.80000000028,14936.5,16141.899999999907,17184.399999999907,19128.5],"key_events":[],"mouse_events":[2552.5,4073.600000000093,5469.5,6916.800000000279,8552.600000000093,10225,12184.80000000028,14272.5,14936.5,16141.899999999907,17184.399999999907,18716.30000000028,19128.5,20104.600000000093],"straightlining":0.45454545454545453,"zigzagging":0.6,"honeypot":0,"survey":"openness","trial_type":"survey-template","trial_index":2,"time_elapsed":34444,"internal_node_id":"0.0-2.0","experiment":"validation","task_version":"1.1","jspsych_version":"6.3.1","infrequency":0},{"responses":{"Q02":"3","Q06":"3","Q07":"2","Q03":"3","Q01":"2","Q05":"3","Q04":"1"},"rt":16346.900000000373,"item_order":[1,5,6,2,0,4,3],"radio_events":[2339.100000000093,4683,5250.4000000003725,6418.5,7730.5,11506.5,14123.900000000373,15323.600000000093],"key_events":[],"mouse_events":[2339.100000000093,4683,5250.4000000003725,6418.5,7730.5,10383.200000000186,11506.5,14123.900000000373,15323.600000000093,16346.400000000373],"straightlining":0.5714285714285714,"zigzagging":0.6666666666666666,"honeypot":0,"survey":"nfc6","trial_type":"survey-template","trial_index":3,"time_elapsed":50800,"internal_node_id":"0.0-3.0","experiment":"validation","task_version":"1.1","jspsych_version":"6.3.1","infrequency":0},{"responses":{"Q08":"4","Q05":"3","Q06":"3","Q02":"3","Q11":"4","Q07":"4","Q01":"4","Q10":"4","Q04":"2","Q09":"3","Q03":"4"},"rt":19497.100000000093,"item_order":[7,4,5,1,10,6,0,9,3,8,2],"radio_events":[2292.100000000093,3308.2000000001863,5980,7963.899999999907,9164,10299.80000000028,13717.80000000028,14996,16831.30000000028,17715.700000000186,18979.80000000028],"key_events":[],"mouse_events":[2292.100000000093,3308.2000000001863,4694.800000000279,5980,7124.100000000093,7963.899999999907,9164,10299.80000000028,12052.600000000093,13717.80000000028,14996,16084.200000000186,16831.30000000028,17715.700000000186,18979.80000000028,19494.600000000093],"straightlining":0.2727272727272727,"zigzagging":0.5,"honeypot":0,"survey":"neuroticism","trial_type":"survey-template","trial_index":4,"time_elapsed":70306,"internal_node_id":"0.0-4.0","experiment":"validation","task_version":"1.1","jspsych_version":"6.3.1","infrequency":0},{"value":[0,1.2987012987012987,1.7666666666666666],"trial_type":"call-function","trial_index":5,"time_elapsed":70313,"internal_node_id":"0.0-5.0","experiment":"validation","task_version":"1.1","jspsych_version":"6.3.1","interactions":"[{\"event\":\"blur\",\"trial\":0,\"time\":207},{\"event\":\"focus\",\"trial\":0,\"time\":3472}]"}]