[{"view_history":[{"page_index":0,"viewing_time":2616.800000011921}],"rt":2617.300000011921,"trial_type":"instructions","trial_index":0,"time_elapsed":2634,"internal_node_id":"0.0-0.0","experiment":"validation","task_version":"2.0","jspsych_version":"6.3.1"},{"rt":12729.09999999404,"responses":{"age":"36","gender-categorical":"Female","gender-free-response":"","ethnicity":"Not Hispanic or Latino","race":["White"],"education":"Master degree or higher"},"survey":"demographics","trial_type":"survey-demo","trial_index":1,"time_elapsed":15365,"internal_node_id":"0.0-1.0","experiment":"validation","task_version":"2.0","jspsych_version":"6.3.1"},{"rt":55415.29999999702,"response":{"Q7":5,"Q6":1,"Q3":4,"Q5":1,"Q2":3,"Q4":2,"Q1":4,"Q8":0,"Q0":4},"question_order":[7,6,3,5,2,4,1,8,0],"survey":"sns","trial_type":"survey-likert","trial_index":2,"time_elapsed":70785,"internal_node_id":"0.0-2.0","experiment":"validation","task_version":"2.0","jspsych_version":"6.3.1","infrequency":0},{"responses":{"Q04":"3","Q03":"2","Q01":"2","Q06":"3","Q08":"3","Q07":"2","Q09":"4","Q05":"2","Q02":"3"},"rt":40648.5,"item_order":[3,2,0,5,7,6,8,4,1],"radio_events":[6709,13886.60000000894,16071.29999999702,21536.10000000894,24708.20000000298,31041,32233,35569.40000000596,39587.29999999702,39733.60000000894],"key_events":[],"mouse_events":[5773.9000000059605,6709,12789.20000000298,13886.60000000894,16071.29999999702,20730,21536.10000000894,24708.20000000298,28333.40000000596,31041,32233,35569.40000000596,38584.70000000298,39587.29999999702,39733.60000000894,40645.40000000596],"straightlining":0.4444444444444444,"zigzagging":0.5,"honeypot":0,"survey":"pcf","trial_type":"survey-template","trial_index":3,"time_elapsed":111437,"internal_node_id":"0.0-3.0","experiment":"validation","task_version":"2.0","jspsych_version":"6.3.1","infrequency":0},{"responses":{"Q05":"3","Q10":"3","Q11":"0","Q02":"3","Q03":"2","Q06":"2","Q08":"3","Q01":"2","Q07":"2","Q04":"2","Q09":"3"},"rt":60154.29999999702,"item_order":[4,9,10,1,2,5,7,0,6,3,8],"radio_events":[7593.29999999702,11021.09999999404,14611.89999999106,20457.29999999702,24149.5,26695.5,29622,38833.20000000298,41726.39999999106,47706.70000000298,56390.59999999404,59369.79999999702],"key_events":[],"mouse_events":[7593.29999999702,11021.09999999404,14611.89999999106,20457.29999999702,23174,24149.5,26695.5,29622,36958.79999999702,37750,38833.20000000298,40877.89999999106,41726.39999999106,47706.70000000298,53773.20000000298,55284.09999999404,56390.59999999404,58579.5,59369.79999999702,60153.29999999702],"straightlining":0.45454545454545453,"zigzagging":0.4,"honeypot":0,"survey":"nfc10","trial_type":"survey-template","trial_index":4,"time_elapsed":171593,"internal_node_id":"0.0-4.0","experiment":"validation","task_version":"2.0","jspsych_version":"6.3.1","infrequency":0},{"value":0,"trial_type":"call-function","trial_index":5,"time_elapsed":171594,"internal_node_id":"0.0-5.0","experiment":"validation","task_version":"2.0","jspsych_version":"6.3.1","interactions":"[]"}]