[{"success":true,"timeout":false,"failed_images":[],"failed_audio":[],"failed_video":[],"trial_type":"preload","trial_index":0,"time_elapsed":9808,"internal_node_id":"0.0-0.0","experiment":"validation","task_version":"1.1","jspsych_version":"6.3.1"},{"success":true,"trial_type":"fullscreen","trial_index":1,"time_elapsed":13495,"internal_node_id":"0.0-1.0","experiment":"validation","task_version":"1.1","jspsych_version":"6.3.1"},{"view_history":[{"page_index":0,"viewing_time":7710},{"page_index":1,"viewing_time":8647}],"rt":16358,"trial_type":"instructions","trial_index":2,"time_elapsed":29859,"internal_node_id":"0.0-2.0","experiment":"validation","task_version":"1.1","jspsych_version":"6.3.1"},{"min_width":700,"min_height":600,"inner_width":1280,"inner_height":720,"trial_type":"screen-check","trial_index":3,"time_elapsed":29861,"internal_node_id":"0.0-3.0-0.0-0.0","experiment":"validation","task_version":"1.1","jspsych_version":"6.3.1"},{"rt":null,"stimulus":"<div style=\"font-size:24px;\">Loading puzzle:<br>1 / 9</div>","response":null,"trial_type":"html-keyboard-response","trial_index":4,"time_elapsed":31065,"internal_node_id":"0.0-3.0-0.0-1.0","experiment":"validation","task_version":"1.1","jspsych_version":"6.3.1"},{"stimulus":"../static/img/rpm/a11.png","choice_order":[2,4,0,5,1,3],"correct":4,"choice":3,"accuracy":0,"rt":9886,"screen_resolution":[1280,720],"minimum_resolution":1,"all_loaded":true,"test_form":"a","trial_type":"rpm","trial_index":5,"time_elapsed":40954,"internal_node_id":"0.0-3.0-0.0-2.0","experiment":"validation","task_version":"1.1","jspsych_version":"6.3.1"},{"min_width":700,"min_height":600,"inner_width":1280,"inner_height":720,"trial_type":"screen-check","trial_index":6,"time_elapsed":40954,"internal_node_id":"0.0-3.0-0.0-0.1","experiment":"validation","task_version":"1.1","jspsych_version":"6.3.1"},{"rt":null,"stimulus":"<div style=\"font-size:24px;\">Loading puzzle:<br>2 / 9</div>","response":null,"trial_type":"html-keyboard-response","trial_index":7,"time_elapsed":42169,"internal_node_id":"0.0-3.0-0.0-1.1","experiment":"validation","task_version":"1.1","jspsych_version":"6.3.1"},{"stimulus":"../static/img/rpm/a24.png","choice_order":[3,1,0,4,2,5],"correct":4,"choice":3,"accuracy":0,"rt":7300,"screen_resolution":[1280,720],"minimum_resolution":1,"all_loaded":true,"test_form":"a","trial_type":"rpm","trial_index":8,"time_elapsed":49473,"internal_node_id":"0.0-3.0-0.0-2.1","experiment":"validation","task_version":"1.1","jspsych_version":"6.3.1"},{"min_width":700,"min_height":600,"inner_width":1280,"inner_height":720,"trial_type":"screen-check","trial_index":9,"time_elapsed":49474,"internal_node_id":"0.0-3.0-0.0-0.2","experiment":"validation","task_version":"1.1","jspsych_version":"6.3.1"},{"rt":null,"stimulus":"<div style=\"font-size:24px;\">Loading puzzle:<br>3 / 9</div>","response":null,"trial_type":"html-keyboard-response","trial_index":10,"time_elapsed":50689,"internal_node_id":"0.0-3.0-0.0-1.2","experiment":"validation","task_version":"1.1","jspsych_version":"6.3.1"},{"stimulus":"../static/img/rpm/a28.png","choice_order":[5,6,2,3,4,7,0,1],"correct":7,"choice":5,"accuracy":0,"rt":18853,"screen_resolution":[1280,720],"minimum_resolution":1,"all_loaded":true,"test_form":"a","trial_type":"rpm","trial_index":11,"time_elapsed":69545,"internal_node_id":"0.0-3.0-0.0-2.2","experiment":"validation","task_version":"1.1","jspsych_version":"6.3.1"},{"min_width":700,"min_height":600,"inner_width":1280,"inner_height":720,"trial_type":"screen-check","trial_index":12,"time_elapsed":69545,"internal_node_id":"0.0-3.0-0.0-0.3","experiment":"validation","task_version":"1.1","jspsych_version":"6.3.1"},{"rt":null,"stimulus":"<div style=\"font-size:24px;\">Loading puzzle:<br>4 / 9</div>","response":null,"trial_type":"html-keyboard-response","trial_index":13,"time_elapsed":70759,"internal_node_id":"0.0-3.0-0.0-1.3","experiment":"validation","task_version":"1.1","jspsych_version":"6.3.1"},{"stimulus":"../static/img/rpm/a36.png","choice_order":[4,2,1,3,6,7,0,5],"correct":1,"choice":2,"accuracy":0,"rt":19386,"screen_resolution":[1280,720],"minimum_resolution":1,"all_loaded":true,"test_form":"a","trial_type":"rpm","trial_index":14,"time_elapsed":90151,"internal_node_id":"0.0-3.0-0.0-2.3","experiment":"validation","task_version":"1.1","jspsych_version":"6.3.1"},{"min_width":700,"min_height":600,"inner_width":1280,"inner_height":720,"trial_type":"screen-check","trial_index":15,"time_elapsed":90151,"internal_node_id":"0.0-3.0-0.0-0.4","experiment":"validation","task_version":"1.1","jspsych_version":"6.3.1"},{"rt":null,"stimulus":"<div style=\"font-size:24px;\">Loading puzzle:<br>5 / 9</div>","response":null,"trial_type":"html-keyboard-response","trial_index":16,"time_elapsed":91366,"internal_node_id":"0.0-3.0-0.0-1.4","experiment":"validation","task_version":"1.1","jspsych_version":"6.3.1"},{"stimulus":"../static/img/rpm/a43.png","choice_order":[4,1,2,3,7,5,6,0],"correct":4,"choice":0,"accuracy":0,"rt":6818,"screen_resolution":[1280,720],"minimum_resolution":1,"all_loaded":true,"test_form":"a","trial_type":"rpm","trial_index":17,"time_elapsed":98186,"internal_node_id":"0.0-3.0-0.0-2.4","experiment":"validation","task_version":"1.1","jspsych_version":"6.3.1"},{"min_width":700,"min_height":600,"inner_width":1280,"inner_height":720,"trial_type":"screen-check","trial_index":18,"time_elapsed":98187,"internal_node_id":"0.0-3.0-0.0-0.5","experiment":"validation","task_version":"1.1","jspsych_version":"6.3.1"},{"rt":null,"stimulus":"<div style=\"font-size:24px;\">Loading puzzle:<br>6 / 9</div>","response":null,"trial_type":"html-keyboard-response","trial_index":19,"time_elapsed":99403,"internal_node_id":"0.0-3.0-0.0-1.5","experiment":"validation","task_version":"1.1","jspsych_version":"6.3.1"},{"stimulus":"../static/img/rpm/a48.png","choice_order":[1,4,3,2,0,7,6,5],"correct":5,"choice":0,"accuracy":0,"rt":8981,"screen_resolution":[1280,720],"minimum_resolution":1,"all_loaded":true,"test_form":"a","trial_type":"rpm","trial_index":20,"time_elapsed":108389,"internal_node_id":"0.0-3.0-0.0-2.5","experiment":"validation","task_version":"1.1","jspsych_version":"6.3.1"},{"min_width":700,"min_height":600,"inner_width":1280,"inner_height":720,"trial_type":"screen-check","trial_index":21,"time_elapsed":108390,"internal_node_id":"0.0-3.0-0.0-0.6","experiment":"validation","task_version":"1.1","jspsych_version":"6.3.1"},{"rt":null,"stimulus":"<div style=\"font-size:24px;\">Loading puzzle:<br>7 / 9</div>","response":null,"trial_type":"html-keyboard-response","trial_index":22,"time_elapsed":109604,"internal_node_id":"0.0-3.0-0.0-1.6","experiment":"validation","task_version":"1.1","jspsych_version":"6.3.1"},{"stimulus":"../static/img/rpm/a49.png","choice_order":[0,1,2,5,4,7,6,3],"correct":6,"choice":2,"accuracy":0,"rt":10503,"screen_resolution":[1280,720],"minimum_resolution":1,"all_loaded":true,"test_form":"a","trial_type":"rpm","trial_index":23,"time_elapsed":120108,"internal_node_id":"0.0-3.0-0.0-2.6","experiment":"validation","task_version":"1.1","jspsych_version":"6.3.1"},{"min_width":700,"min_height":600,"inner_width":1280,"inner_height":720,"trial_type":"screen-check","trial_index":24,"time_elapsed":120108,"internal_node_id":"0.0-3.0-0.0-0.7","experiment":"validation","task_version":"1.1","jspsych_version":"6.3.1"},{"rt":null,"stimulus":"<div style=\"font-size:24px;\">Loading puzzle:<br>8 / 9</div>","response":null,"trial_type":"html-keyboard-response","trial_index":25,"time_elapsed":121323,"internal_node_id":"0.0-3.0-0.0-1.7","experiment":"validation","task_version":"1.1","jspsych_version":"6.3.1"},{"stimulus":"../static/img/rpm/a53.png","choice_order":[7,5,4,1,2,0,3,6],"correct":0,"choice":3,"accuracy":0,"rt":9318,"screen_resolution":[1280,720],"minimum_resolution":1,"all_loaded":true,"test_form":"a","trial_type":"rpm","trial_index":26,"time_elapsed":130644,"internal_node_id":"0.0-3.0-0.0-2.7","experiment":"validation","task_version":"1.1","jspsych_version":"6.3.1"},{"min_width":700,"min_height":600,"inner_width":1280,"inner_height":720,"trial_type":"screen-check","trial_index":27,"time_elapsed":130645,"internal_node_id":"0.0-3.0-0.0-0.8","experiment":"validation","task_version":"1.1","jspsych_version":"6.3.1"},{"rt":null,"stimulus":"<div style=\"font-size:24px;\">Loading puzzle:<br>9 / 9</div>","response":null,"trial_type":"html-keyboard-response","trial_index":28,"time_elapsed":131858,"internal_node_id":"0.0-3.0-0.0-1.8","experiment":"validation","task_version":"1.1","jspsych_version":"6.3.1"},{"stimulus":"../static/img/rpm/a55.png","choice_order":[1,5,6,3,2,0,7,4],"correct":1,"choice":6,"accuracy":0,"rt":5484,"screen_resolution":[1280,720],"minimum_resolution":1,"all_loaded":true,"test_form":"a","trial_type":"rpm","trial_index":29,"time_elapsed":137347,"internal_node_id":"0.0-3.0-0.0-2.8","experiment":"validation","task_version":"1.1","jspsych_version":"6.3.1"},{"value":{"rpm_raw":0,"rpm_err":9,"rpm_adj":9.776849660176431,"rpm_rt":96529},"trial_type":"call-function","trial_index":30,"time_elapsed":137348,"internal_node_id":"0.0-3.0-1.0","experiment":"validation","task_version":"1.1","jspsych_version":"6.3.1"},{"view_history":[{"page_index":0,"viewing_time":2350}],"rt":2350,"trial_type":"instructions","trial_index":31,"time_elapsed":139698,"internal_node_id":"0.0-4.0","experiment":"validation","task_version":"1.1","jspsych_version":"6.3.1","interactions":"[{\"event\":\"focus\",\"trial\":0,\"time\":1},{\"event\":\"fullscreenenter\",\"trial\":1,\"time\":12727}]"}]