[{"view_history":[{"page_index":0,"viewing_time":2941}],"rt":2944.699999988079,"trial_type":"instructions","trial_index":0,"time_elapsed":3024,"internal_node_id":"0.0-0.0","experiment":"validation","task_version":"1.1","jspsych_version":"6.3.1"},{"rt":41645.5,"responses":{"age":"37","gender-categorical":"Male","gender-free-response":"","ethnicity":"Not Hispanic or Latino","race":["White"],"education":"Master degree or higher"},"survey":"demographics","trial_type":"survey-demo","trial_index":1,"time_elapsed":44680,"internal_node_id":"0.0-1.0","experiment":"validation","task_version":"1.1","jspsych_version":"6.3.1"},{"responses":{"Q06":"2","Q03":"0","Q07":"2","Q04":"3","Q02":"1","Q05":"4","Q01":"0"},"rt":39434.10000002384,"item_order":[5,2,6,3,1,4,0],"radio_events":[12478.400000035763,18624.400000035763,22129.19999998808,28829.69999998808,32811.5,34386.40000003576,37681],"key_events":[],"mouse_events":[12478.400000035763,18624.400000035763,22129.19999998808,26817.80000001192,28829.69999998808,32811.5,34386.40000003576,37681,39429.30000001192],"straightlining":0.2857142857142857,"zigzagging":0.3333333333333333,"honeypot":0,"survey":"nfc6","trial_type":"survey-template","trial_index":2,"time_elapsed":84134,"internal_node_id":"0.0-2.0","experiment":"validation","task_version":"1.1","jspsych_version":"6.3.1","infrequency":0},{"responses":{"Q04":"3","Q08":"2","Q10":"3","Q05":"3","Q03":"1","Q09":"2","Q01":"2","Q02":"1","Q07":"3","Q06":"1","Q11":"0"},"rt":36701,"item_order":[3,7,9,4,2,8,0,1,6,5,10],"radio_events":[5182.399999976158,6517.800000011921,8034.600000023842,10867.899999976158,12030.600000023842,13326.5,17379.30000001192,18647.600000023842,21355.100000023842,23046.30000001192,24861.69999998808,34714.5],"key_events":[],"mouse_events":[5182.399999976158,6517.800000011921,8034.600000023842,9159.899999976158,10867.899999976158,12030.600000023842,13326.5,17379.30000001192,18647.600000023842,19809.5,21355.100000023842,23046.30000001192,24861.69999998808,34714.5,36693.39999997616],"straightlining":0.5454545454545454,"zigzagging":0.4,"honeypot":0,"survey":"openness","trial_type":"survey-template","trial_index":3,"time_elapsed":120851,"internal_node_id":"0.0-3.0","experiment":"validation","task_version":"1.1","jspsych_version":"6.3.1","infrequency":0},{"responses":{"Q04":"0","Q01":"2","Q06":"1","Q08":"3","Q07":"2","Q03":"2","Q09":"1","Q11":"4","Q02":"0","Q05":"1","Q10":"0"},"rt":38164.5,"item_order":[3,0,5,7,6,2,8,10,1,4,9],"radio_events":[5506.800000011921,7447.800000011921,11393.700000047684,16579.80000001192,18029.900000035763,19403.400000035763,25586.700000047684,28804.600000023842,32587.600000023842,34200.200000047684,36965.5],"key_events":[],"mouse_events":[5506.800000011921,7447.800000011921,11393.700000047684,13372.400000035763,14323.200000047684,15426.700000047684,16579.80000001192,18029.900000035763,19403.400000035763,23840.5,25586.700000047684,28804.600000023842,31290.80000001192,32587.600000023842,34200.200000047684,35881,36965.5,38156.5],"straightlining":0.2727272727272727,"zigzagging":0.6,"honeypot":0,"survey":"neuroticism","trial_type":"survey-template","trial_index":4,"time_elapsed":159031,"internal_node_id":"0.0-4.0","experiment":"validation","task_version":"1.1","jspsych_version":"6.3.1","infrequency":0},{"value":[0,1.103896103896104,1.3333333333333335],"trial_type":"call-function","trial_index":5,"time_elapsed":159040,"internal_node_id":"0.0-5.0","experiment":"validation","task_version":"1.1","jspsych_version":"6.3.1","interactions":"[]"}]