[{"view_history":[{"page_index":0,"viewing_time":4073.2000000476837}],"rt":4074.2000000476837,"trial_type":"instructions","trial_index":0,"time_elapsed":4111,"internal_node_id":"0.0-0.0","experiment":"validation","task_version":"2.0","jspsych_version":"6.3.1"},{"rt":18114.799999952316,"responses":{"age":"54","gender-categorical":"Female","gender-free-response":"","ethnicity":"Not Hispanic or Latino","race":["Asian"],"education":"Bachelor degree"},"survey":"demographics","trial_type":"survey-demo","trial_index":1,"time_elapsed":22230,"internal_node_id":"0.0-1.0","experiment":"validation","task_version":"2.0","jspsych_version":"6.3.1"},{"responses":{"Q03":"3","Q11":"0","Q06":"1","Q01":"1","Q09":"1","Q05":"2","Q08":"3","Q04":"3","Q02":"3","Q07":"2","Q10":"1"},"rt":128759.80000019073,"item_order":[2,10,5,0,8,4,7,3,1,6,9],"radio_events":[12302,18043.10000014305,26706.300000190735,35966.60000014305,42543.700000047684,55135.40000009537,55543.10000014305,57128.5,65940.40000009537,82702.70000004768,87813.10000014305,96724.40000009537,107324.10000014305,113638.70000004768,113856.20000004768,121460.5],"key_events":[],"mouse_events":[12302,18043.10000014305,26706.300000190735,35966.60000014305,42543.700000047684,47170.40000009537,55135.40000009537,55543.10000014305,57128.5,65940.40000009537,82702.70000004768,87813.10000014305,96724.40000009537,107324.10000014305,113638.70000004768,113856.20000004768,121460.5,128757],"straightlining":0.5454545454545454,"zigzagging":0.6,"honeypot":0,"survey":"nfc10","trial_type":"survey-template","trial_index":2,"time_elapsed":151000,"internal_node_id":"0.0-2.0","experiment":"validation","task_version":"2.0","jspsych_version":"6.3.1","infrequency":0},{"responses":{"Q01":"2","Q07":"4","Q08":"3","Q03":"3","Q02":"3","Q06":"3","Q04":"3","Q09":"4","Q05":"3"},"rt":61698.60000014305,"item_order":[0,6,7,2,1,5,3,8,4],"radio_events":[11836.299999952316,17973.10000014305,22335.299999952316,26327.10000014305,32748.799999952316,38024,47319.200000047684,50857.200000047684,58899.40000009537],"key_events":[],"mouse_events":[11836.299999952316,17973.10000014305,22335.299999952316,26327.10000014305,32748.799999952316,38024,42692,47319.200000047684,50857.200000047684,58899.40000009537,61696.60000014305],"straightlining":0.6666666666666666,"zigzagging":0.125,"honeypot":0,"survey":"pcf","trial_type":"survey-template","trial_index":3,"time_elapsed":212703,"internal_node_id":"0.0-3.0","experiment":"validation","task_version":"2.0","jspsych_version":"6.3.1","infrequency":0},{"rt":76392.79999995232,"response":{"Q4":3,"Q5":4,"Q3":5,"Q1":4,"Q2":4,"Q6":0,"Q7":4,"Q0":3,"Q8":0},"question_order":[4,5,3,1,2,6,7,0,8],"survey":"sns","trial_type":"survey-likert","trial_index":4,"time_elapsed":289106,"internal_node_id":"0.0-4.0","experiment":"validation","task_version":"2.0","jspsych_version":"6.3.1","infrequency":0},{"value":0,"trial_type":"call-function","trial_index":5,"time_elapsed":289112,"internal_node_id":"0.0-5.0","experiment":"validation","task_version":"2.0","jspsych_version":"6.3.1","interactions":"[]"}]