[{"view_history":[{"page_index":0,"viewing_time":2673.399999999441}],"rt":2674.2999999998137,"trial_type":"instructions","trial_index":0,"time_elapsed":2691,"internal_node_id":"0.0-0.0","experiment":"validation","task_version":"2.0","jspsych_version":"6.3.1"},{"rt":42059.90000000037,"responses":{"age":"35","gender-categorical":"Female","gender-free-response":"","ethnicity":"Not Hispanic or Latino","race":["White"],"education":"Bachelor degree"},"survey":"demographics","trial_type":"survey-demo","trial_index":1,"time_elapsed":44753,"internal_node_id":"0.0-1.0","experiment":"validation","task_version":"2.0","jspsych_version":"6.3.1"},{"responses":{"Q04":"4","Q02":"4","Q01":"3","Q09":"3","Q08":"3","Q11":"0","Q06":"3","Q03":"4","Q05":"4","Q07":"4","Q10":"3"},"rt":58231.60000000056,"item_order":[3,1,0,8,7,10,5,2,4,6,9],"radio_events":[5814.299999999814,7954.200000000186,14574.200000000186,17464.200000000186,20640.10000000056,24068.299999999814,28986.10000000056,32834.10000000056,35960.200000000186,44084.10000000056,50076.299999999814,52666.10000000056,57444.10000000056],"key_events":[],"mouse_events":[5814.299999999814,7954.200000000186,13822.200000000186,14574.200000000186,17464.200000000186,20640.10000000056,24068.299999999814,28986.10000000056,32834.10000000056,35088.299999999814,35484.299999999814,35960.200000000186,44084.10000000056,50076.299999999814,52402.5,52666.10000000056,57444.10000000056,58230.10000000056],"straightlining":0.45454545454545453,"zigzagging":0.4,"honeypot":0,"survey":"nfc10","trial_type":"survey-template","trial_index":2,"time_elapsed":102990,"internal_node_id":"0.0-2.0","experiment":"validation","task_version":"2.0","jspsych_version":"6.3.1","infrequency":0},{"responses":{"Q01":"2","Q09":"4","Q07":"2","Q04":"4","Q02":"3","Q03":"2","Q08":"2","Q06":"2","Q05":"2"},"rt":67649,"item_order":[0,8,6,3,1,2,7,5,4],"radio_events":[3280.2999999998137,6774.200000000186,9756.299999999814,14148.299999999814,48744.200000000186,49588.200000000186,53412.200000000186,56198.200000000186,57934.200000000186,64458.200000000186,67030.20000000019],"key_events":[],"mouse_events":[3280.2999999998137,6774.200000000186,9756.299999999814,14148.299999999814,43796.09999999963,48744.200000000186,49588.200000000186,53412.200000000186,56198.200000000186,57934.200000000186,64458.200000000186,67030.20000000019,67648.09999999963],"straightlining":0.6666666666666666,"zigzagging":0.25,"honeypot":0,"survey":"pcf","trial_type":"survey-template","trial_index":3,"time_elapsed":170641,"internal_node_id":"0.0-3.0","experiment":"validation","task_version":"2.0","jspsych_version":"6.3.1","infrequency":0},{"rt":43335.09999999963,"response":{"Q8":0,"Q5":4,"Q0":3,"Q2":3,"Q4":5,"Q7":5,"Q3":5,"Q1":3,"Q6":0},"question_order":[8,5,0,2,4,7,3,1,6],"survey":"sns","trial_type":"survey-likert","trial_index":4,"time_elapsed":213980,"internal_node_id":"0.0-4.0","experiment":"validation","task_version":"2.0","jspsych_version":"6.3.1","infrequency":0},{"value":0,"trial_type":"call-function","trial_index":5,"time_elapsed":213981,"internal_node_id":"0.0-5.0","experiment":"validation","task_version":"2.0","jspsych_version":"6.3.1","interactions":"[{\"event\":\"blur\",\"trial\":3,\"time\":128795},{\"event\":\"focus\",\"trial\":3,\"time\":146710}]"}]