[{"view_history":[{"page_index":0,"viewing_time":2314.2999999523163}],"rt":2314.7000000476837,"trial_type":"instructions","trial_index":0,"time_elapsed":2324,"internal_node_id":"0.0-0.0","experiment":"validation","task_version":"1.1","jspsych_version":"6.3.1"},{"rt":9331.699999809265,"responses":{"age":"29","gender-categorical":"Female","gender-free-response":"","ethnicity":"Not Hispanic or Latino","race":["Asian"],"education":"Master degree or higher"},"survey":"demographics","trial_type":"survey-demo","trial_index":1,"time_elapsed":11658,"internal_node_id":"0.0-1.0","experiment":"validation","task_version":"1.1","jspsych_version":"6.3.1"},{"responses":{"Q08":"4","Q02":"1","Q07":"4","Q10":"3","Q04":"0","Q05":"0","Q03":"3","Q01":"3","Q11":"0","Q06":"4","Q09":"4"},"rt":31498.5,"item_order":[7,1,6,9,3,4,2,0,10,5,8],"radio_events":[2126,4461.5,8470.299999952316,11121.700000047684,13419,17145.299999952316,21395.10000014305,23711.200000047684,25389.5,26546.10000014305,30354.900000095367],"key_events":[],"mouse_events":[2126,4461.5,6480.100000143051,8470.299999952316,11121.700000047684,12927.600000143051,13419,15587.400000095367,17145.299999952316,17797.200000047684,18340.60000014305,20627.400000095367,21395.10000014305,23711.200000047684,25389.5,26546.10000014305,27849.700000047684,29839.299999952316,30354.900000095367,31496.5],"straightlining":0.45454545454545453,"zigzagging":0.4,"honeypot":0,"survey":"openness","trial_type":"survey-template","trial_index":2,"time_elapsed":43159,"internal_node_id":"0.0-2.0","experiment":"validation","task_version":"1.1","jspsych_version":"6.3.1","infrequency":0},{"responses":{"Q08":"1","Q09":"2","Q10":"3","Q07":"1","Q11":"4","Q01":"1","Q03":"1","Q05":"2","Q04":"2","Q06":"1","Q02":"1"},"rt":39298.09999990463,"item_order":[7,8,9,6,10,0,2,4,3,5,1],"radio_events":[6773.900000095367,7890.200000047684,9185.5,11479.5,15842.599999904633,19830.400000095367,31139.599999904633,32099.5,33990.09999990463,36157.799999952316,38327.40000009537],"key_events":[],"mouse_events":[5696.099999904633,6773.900000095367,7890.200000047684,9185.5,11479.5,15130.200000047684,15842.599999904633,19830.400000095367,29725.799999952316,30442.400000095367,31139.599999904633,32099.5,33990.09999990463,36157.799999952316,37423.299999952316,38327.40000009537,39295.299999952316],"straightlining":0.36363636363636365,"zigzagging":0.5,"honeypot":0,"survey":"neuroticism","trial_type":"survey-template","trial_index":3,"time_elapsed":82459,"internal_node_id":"0.0-3.0","experiment":"validation","task_version":"1.1","jspsych_version":"6.3.1","infrequency":0},{"responses":{"Q01":"3","Q02":"3","Q04":"4","Q06":"3","Q05":"3","Q07":"2","Q03":"4"},"rt":108942.70000004768,"item_order":[0,1,3,5,4,6,2],"radio_events":[10623.700000047684,86461.09999990463,93786.79999995232,95586.5,101025.29999995232,102794.90000009537,107142.59999990463],"key_events":[],"mouse_events":[3044.2000000476837,9654.700000047684,10623.700000047684,21542.700000047684,86461.09999990463,89265.5,91344.40000009537,93786.79999995232,95586.5,98012.40000009537,100530.20000004768,101025.29999995232,101840.70000004768,102290.79999995232,102794.90000009537,104064.40000009537,105746.70000004768,107142.59999990463,108940.29999995232],"straightlining":0.5714285714285714,"zigzagging":0.16666666666666666,"honeypot":0,"survey":"nfc6","trial_type":"survey-template","trial_index":4,"time_elapsed":191401,"internal_node_id":"0.0-4.0","experiment":"validation","task_version":"1.1","jspsych_version":"6.3.1","infrequency":0},{"value":[0,1.3896103896103895,1.0666666666666667],"trial_type":"call-function","trial_index":5,"time_elapsed":191403,"internal_node_id":"0.0-5.0","experiment":"validation","task_version":"1.1","jspsych_version":"6.3.1","interactions":"[{\"event\":\"blur\",\"trial\":4,\"time\":106802},{\"event\":\"focus\",\"trial\":4,\"time\":158265}]"}]