[{"view_history":[{"page_index":0,"viewing_time":1374.4000000953674}],"rt":1374.7000000476837,"trial_type":"instructions","trial_index":0,"time_elapsed":1400,"internal_node_id":"0.0-0.0","experiment":"validation","task_version":"2.0","jspsych_version":"6.3.1"},{"rt":8909.200000047684,"responses":{"age":"35","gender-categorical":"Male","gender-free-response":"","ethnicity":"Not Hispanic or Latino","race":["White"],"education":"Bachelor degree"},"survey":"demographics","trial_type":"survey-demo","trial_index":1,"time_elapsed":10312,"internal_node_id":"0.0-1.0","experiment":"validation","task_version":"2.0","jspsych_version":"6.3.1"},{"responses":{"Q05":"4","Q06":"4","Q07":"4","Q04":"4","Q08":"4","Q03":"4","Q02":"4","Q01":"4","Q09":"4"},"rt":17365.200000047684,"item_order":[4,5,6,3,7,2,1,0,8],"radio_events":[3195.0999999046326,5019,5563.599999904633,6195,6874.900000095367,8683.200000047684,9386.900000095367,9859.400000095367,11042.599999904633,11658.900000095367,13594.5],"key_events":[],"mouse_events":[3195.0999999046326,5019,5563.599999904633,6195,6874.900000095367,7378.799999952316,8683.200000047684,9386.900000095367,9859.400000095367,10404.599999904633,11042.599999904633,11658.900000095367,13594.5,17363.299999952316],"straightlining":0.8888888888888888,"zigzagging":0.125,"honeypot":0,"survey":"pcf","trial_type":"survey-template","trial_index":2,"time_elapsed":27682,"internal_node_id":"0.0-2.0","experiment":"validation","task_version":"2.0","jspsych_version":"6.3.1","infrequency":0},{"rt":18450.89999985695,"response":{"Q3":4,"Q7":4,"Q2":4,"Q8":0,"Q6":4,"Q5":4,"Q4":4,"Q0":3,"Q1":4},"question_order":[3,7,2,8,6,5,4,0,1],"survey":"sns","trial_type":"survey-likert","trial_index":3,"time_elapsed":46138,"internal_node_id":"0.0-3.0","experiment":"validation","task_version":"2.0","jspsych_version":"6.3.1","infrequency":0},{"responses":{"Q10":"4","Q02":"3","Q07":"3","Q05":"3","Q09":"1","Q06":"3","Q08":"3","Q01":"3","Q11":"0","Q04":"4","Q03":"4"},"rt":30275.599999904633,"item_order":[9,1,6,4,8,5,7,0,10,3,2],"radio_events":[2858.2999999523163,5050.199999809265,11490.299999952316,11987.199999809265,14490,16188.299999952316,19009.699999809265,19762.299999952316,21490,25210.099999904633,27810.099999904633,28906.199999809265],"key_events":[],"mouse_events":[2858.2999999523163,5050.199999809265,6226,7433.899999856949,9218.099999904633,11490.299999952316,11987.199999809265,14490,16188.299999952316,19009.699999809265,19762.299999952316,21490,25210.099999904633,27810.099999904633,28906.199999809265,30274.099999904633],"straightlining":0.45454545454545453,"zigzagging":0.1,"honeypot":0,"survey":"nfc10","trial_type":"survey-template","trial_index":4,"time_elapsed":76417,"internal_node_id":"0.0-4.0","experiment":"validation","task_version":"2.0","jspsych_version":"6.3.1","infrequency":0},{"value":0,"trial_type":"call-function","trial_index":5,"time_elapsed":76419,"internal_node_id":"0.0-5.0","experiment":"validation","task_version":"2.0","jspsych_version":"6.3.1","interactions":"[]"}]