[{"view_history":[{"page_index":0,"viewing_time":3451.4000000059605}],"rt":3452,"trial_type":"instructions","trial_index":0,"time_elapsed":3469,"internal_node_id":"0.0-0.0","experiment":"validation","task_version":"1.1","jspsych_version":"6.3.1"},{"rt":15968.59999999404,"responses":{"age":"31","gender-categorical":"Male","gender-free-response":"","ethnicity":"Not Hispanic or Latino","race":["White"],"education":"Some college"},"survey":"demographics","trial_type":"survey-demo","trial_index":1,"time_elapsed":19444,"internal_node_id":"0.0-1.0","experiment":"validation","task_version":"1.1","jspsych_version":"6.3.1"},{"responses":{"Q07":"3","Q05":"1","Q03":"1","Q06":"2","Q09":"1","Q11":"0","Q01":"3","Q02":"3","Q08":"2","Q04":"1","Q10":"1"},"rt":35570.5,"item_order":[6,4,2,5,8,10,0,1,7,3,9],"radio_events":[3721.9000000059605,7654.70000000298,9667,12968.20000000298,15385.59999999404,19652,23099.40000000596,25167.59999999404,27616.79999999702,30140.09999999404,32402,34754.70000000298],"key_events":[],"mouse_events":[3721.9000000059605,6739.29999999702,7654.70000000298,9667,12968.20000000298,15385.59999999404,19652,23099.40000000596,25167.59999999404,27616.79999999702,30140.09999999404,32402,34754.70000000298,35566.09999999404],"straightlining":0.5454545454545454,"zigzagging":0.4,"honeypot":0,"survey":"openness","trial_type":"survey-template","trial_index":2,"time_elapsed":55022,"internal_node_id":"0.0-2.0","experiment":"validation","task_version":"1.1","jspsych_version":"6.3.1","infrequency":0},{"responses":{"Q01":"2","Q04":"2","Q06":"2","Q02":"3","Q03":"3","Q05":"3","Q07":"2"},"rt":54831.40000000596,"item_order":[0,3,5,1,2,4,6],"radio_events":[4094,38947.20000000298,40779.70000000298,44040.10000000894,46384.90000000596,51519.60000000894,53595.5],"key_events":[],"mouse_events":[4094,37931.80000001192,38947.20000000298,40779.70000000298,44040.10000000894,46384.90000000596,51519.60000000894,53595.5,54828.80000001192],"straightlining":0.5714285714285714,"zigzagging":0.3333333333333333,"honeypot":0,"survey":"nfc6","trial_type":"survey-template","trial_index":3,"time_elapsed":109857,"internal_node_id":"0.0-3.0","experiment":"validation","task_version":"1.1","jspsych_version":"6.3.1","infrequency":0},{"responses":{"Q07":"0","Q06":"0","Q04":"0","Q01":"0","Q10":"4","Q02":"0","Q09":"1","Q05":"0","Q08":"1","Q03":"0","Q11":"3"},"rt":33334.5,"item_order":[6,5,3,0,9,1,8,4,7,2,10],"radio_events":[4874.5999999940395,8769.70000000298,9531.59999999404,12176.09999999404,14122.5,17058.59999999404,18024,23871.5,25323.79999999702,27061.40000000596,29282.20000000298,32205.20000000298],"key_events":[],"mouse_events":[4874.5999999940395,6546,7739,8769.70000000298,9531.59999999404,12176.09999999404,14122.5,17058.59999999404,18024,23871.5,25323.79999999702,27061.40000000596,29282.20000000298,32205.20000000298,33330.59999999404],"straightlining":0.5454545454545454,"zigzagging":0.1,"honeypot":0,"survey":"neuroticism","trial_type":"survey-template","trial_index":4,"time_elapsed":143197,"internal_node_id":"0.0-4.0","experiment":"validation","task_version":"1.1","jspsych_version":"6.3.1","infrequency":0},{"value":[0,1.6623376623376622,0.8333333333333334],"trial_type":"call-function","trial_index":5,"time_elapsed":143200,"internal_node_id":"0.0-5.0","experiment":"validation","task_version":"1.1","jspsych_version":"6.3.1","interactions":"[]"}]