[{"view_history":[{"page_index":0,"viewing_time":3945.5999999940395}],"rt":3946.2999999970198,"trial_type":"instructions","trial_index":0,"time_elapsed":3956,"internal_node_id":"0.0-0.0","experiment":"validation","task_version":"2.0","jspsych_version":"6.3.1"},{"rt":12958.5,"responses":{"age":"51","gender-categorical":"Male","gender-free-response":"","ethnicity":"Not Hispanic or Latino","race":["White"],"education":"High school"},"survey":"demographics","trial_type":"survey-demo","trial_index":1,"time_elapsed":16918,"internal_node_id":"0.0-1.0","experiment":"validation","task_version":"2.0","jspsych_version":"6.3.1"},{"responses":{"Q06":"1","Q02":"1","Q04":"1","Q10":"1","Q09":"0","Q01":"1","Q05":"2","Q07":"1","Q03":"1","Q08":"2","Q11":"0"},"rt":65883.70000000298,"item_order":[5,1,3,9,8,0,4,6,2,7,10],"radio_events":[8983.20000000298,13230.70000000298,17179,22063.29999999702,25065.20000000298,29116.60000000894,33679,40336.60000000894,48374.79999999702,55639.20000000298,65086.79999999702],"key_events":[],"mouse_events":[8983.20000000298,13230.70000000298,17179,22063.29999999702,25065.20000000298,27501.10000000894,29116.60000000894,33679,38635,40336.60000000894,43977.10000000894,48374.79999999702,50714.70000000298,55639.20000000298,59539.10000000894,64542.90000000596,65086.79999999702,65881],"straightlining":0.45454545454545453,"zigzagging":0.5,"honeypot":0,"survey":"nfc10","trial_type":"survey-template","trial_index":2,"time_elapsed":82809,"internal_node_id":"0.0-2.0","experiment":"validation","task_version":"2.0","jspsych_version":"6.3.1","infrequency":0},{"rt":36307.09999999404,"response":{"Q3":5,"Q8":0,"Q4":3,"Q0":5,"Q2":5,"Q7":3,"Q6":1,"Q1":5,"Q5":1},"question_order":[3,8,4,0,2,7,6,1,5],"survey":"sns","trial_type":"survey-likert","trial_index":3,"time_elapsed":119122,"internal_node_id":"0.0-3.0","experiment":"validation","task_version":"2.0","jspsych_version":"6.3.1","infrequency":0},{"responses":{"Q07":"2","Q05":"2","Q03":"4","Q02":"3","Q09":"4","Q04":"3","Q01":"4","Q08":"4","Q06":"3"},"rt":71940.10000000894,"item_order":[6,4,2,1,8,3,0,7,5],"radio_events":[6517.5,8581.90000000596,16399.60000000894,22151.70000000298,36073.10000000894,42573.90000000596,50499.60000000894,55691.29999999702,62789.10000000894,71047.5],"key_events":[],"mouse_events":[6517.5,8581.90000000596,16399.60000000894,20465.40000000596,22151.70000000298,36073.10000000894,41879.5,42573.90000000596,50499.60000000894,52651.29999999702,55691.29999999702,56439.5,60403.20000000298,60899.40000000596,62191.60000000894,62789.10000000894,65690.10000000894,70479.60000000894,71047.5,71938.20000000298],"straightlining":0.3333333333333333,"zigzagging":0.375,"honeypot":0,"survey":"pcf","trial_type":"survey-template","trial_index":4,"time_elapsed":191065,"internal_node_id":"0.0-4.0","experiment":"validation","task_version":"2.0","jspsych_version":"6.3.1","infrequency":0},{"value":0,"trial_type":"call-function","trial_index":5,"time_elapsed":191068,"internal_node_id":"0.0-5.0","experiment":"validation","task_version":"2.0","jspsych_version":"6.3.1","interactions":"[]"}]