[{"view_history":[{"page_index":0,"viewing_time":3324.8000000000466}],"rt":3325.2000000001863,"trial_type":"instructions","trial_index":0,"time_elapsed":3339,"internal_node_id":"0.0-0.0","experiment":"validation","task_version":"1.1","jspsych_version":"6.3.1"},{"rt":12404.90000000014,"responses":{"age":"48","gender-categorical":"Male","gender-free-response":"","ethnicity":"Not Hispanic or Latino","race":["White"],"education":"Master degree or higher"},"survey":"demographics","trial_type":"survey-demo","trial_index":1,"time_elapsed":15746,"internal_node_id":"0.0-1.0","experiment":"validation","task_version":"1.1","jspsych_version":"6.3.1"},{"responses":{"Q03":"1","Q08":"1","Q02":"1","Q10":"2","Q11":"4","Q06":"2","Q07":"2","Q01":"2","Q04":"1","Q09":"3","Q05":"2"},"rt":45259.19999999995,"item_order":[2,7,1,9,10,5,6,0,3,8,4],"radio_events":[9511.800000000047,12460.5,15107.399999999907,17433.300000000047,19923.300000000047,24327.300000000047,25268.59999999986,34163.19999999995,34989.30000000005,37645.09999999986,40247.39999999991,44205.30000000005],"key_events":[],"mouse_events":[9511.800000000047,12460.5,15107.399999999907,17433.300000000047,19923.300000000047,24327.300000000047,25268.59999999986,34163.19999999995,34989.30000000005,37645.09999999986,40247.39999999991,44205.30000000005,45257.39999999991],"straightlining":0.45454545454545453,"zigzagging":0.3,"honeypot":0,"survey":"neuroticism","trial_type":"survey-template","trial_index":2,"time_elapsed":61013,"internal_node_id":"0.0-2.0","experiment":"validation","task_version":"1.1","jspsych_version":"6.3.1","infrequency":0},{"responses":{"Q08":"3","Q04":"2","Q03":"0","Q05":"1","Q01":"2","Q06":"2","Q10":"0","Q09":"3","Q11":"0","Q07":"3","Q02":"2"},"rt":39432.39999999991,"item_order":[7,3,2,4,0,5,9,8,10,6,1],"radio_events":[8386.699999999953,9570.899999999907,14418.800000000047,15920.59999999986,19005.399999999907,21256.800000000047,23480.399999999907,25692.699999999953,28010.59999999986,32720.699999999953,38302.39999999991],"key_events":[],"mouse_events":[6842.800000000047,7815.199999999953,8386.699999999953,9570.899999999907,12568.899999999907,13402.800000000047,14418.800000000047,15920.59999999986,19005.399999999907,21256.800000000047,23480.399999999907,25692.699999999953,28010.59999999986,32720.699999999953,34776.69999999995,35594.89999999991,38302.39999999991,39430.80000000005],"straightlining":0.36363636363636365,"zigzagging":0.5,"honeypot":0,"survey":"openness","trial_type":"survey-template","trial_index":3,"time_elapsed":100450,"internal_node_id":"0.0-3.0","experiment":"validation","task_version":"1.1","jspsych_version":"6.3.1","infrequency":0},{"responses":{"Q02":"3","Q03":"3","Q05":"2","Q07":"2","Q04":"3","Q01":"2","Q06":"1"},"rt":37130.69999999995,"item_order":[1,2,4,6,3,0,5],"radio_events":[10119.899999999907,12287.5,16059.5,18725.5,27175.399999999907,30085.399999999907,30923.09999999986,35989.39999999991],"key_events":[],"mouse_events":[10119.899999999907,12287.5,16059.5,18725.5,26317.199999999953,27175.399999999907,30085.399999999907,30923.09999999986,35279.59999999986,35989.39999999991,37129.5],"straightlining":0.42857142857142855,"zigzagging":0.6666666666666666,"honeypot":0,"survey":"nfc6","trial_type":"survey-template","trial_index":4,"time_elapsed":137585,"internal_node_id":"0.0-4.0","experiment":"validation","task_version":"1.1","jspsych_version":"6.3.1","infrequency":0},{"value":[0,1.2467532467532467,1.4666666666666668],"trial_type":"call-function","trial_index":5,"time_elapsed":137589,"internal_node_id":"0.0-5.0","experiment":"validation","task_version":"1.1","jspsych_version":"6.3.1","interactions":"[]"}]