[{"view_history":[{"page_index":0,"viewing_time":1412.300000011921}],"rt":1413,"trial_type":"instructions","trial_index":0,"time_elapsed":1423,"internal_node_id":"0.0-0.0","experiment":"validation","task_version":"1.1","jspsych_version":"6.3.1"},{"rt":69752.5,"responses":{"age":"18","gender-categorical":"Female","gender-free-response":"","ethnicity":"Not Hispanic or Latino","race":["White"],"education":"Some college"},"survey":"demographics","trial_type":"survey-demo","trial_index":1,"time_elapsed":71178,"internal_node_id":"0.0-1.0","experiment":"validation","task_version":"1.1","jspsych_version":"6.3.1"},{"responses":{"Q05":"3","Q01":"4","Q11":"4","Q03":"4","Q06":"3","Q08":"4","Q10":"3","Q04":"4","Q07":"4","Q09":"4","Q02":"4"},"rt":37424.5,"item_order":[4,0,10,2,5,7,9,3,6,8,1],"radio_events":[18802.899999976158,21915.5,23128.19999998808,24510.399999976158,26175.599999964237,27154.099999964237,30582,32174.899999976158,33541.09999996424,34632.299999952316,36604.799999952316],"key_events":[],"mouse_events":[6002.299999952316,18107.69999998808,18802.899999976158,21915.5,23128.19999998808,24510.399999976158,26175.599999964237,27154.099999964237,30582,32174.899999976158,33541.09999996424,34632.299999952316,36604.799999952316,37421.299999952316],"straightlining":0.45454545454545453,"zigzagging":0.5,"honeypot":0,"survey":"neuroticism","trial_type":"survey-template","trial_index":2,"time_elapsed":108615,"internal_node_id":"0.0-2.0","experiment":"validation","task_version":"1.1","jspsych_version":"6.3.1","infrequency":0},{"responses":{"Q03":"4","Q02":"4","Q10":"4","Q04":"1","Q01":"4","Q07":"4","Q08":"2","Q11":"0","Q05":"0","Q06":"3","Q09":"4"},"rt":49826.19999998808,"item_order":[2,1,9,3,0,6,7,10,4,5,8],"radio_events":[4854.199999988079,6463.899999976158,10075.800000011921,12372.899999976158,14757.5,16972.399999976158,19631.80000001192,22623.5,24669,42870.89999997616,48861.19999998808],"key_events":[],"mouse_events":[3536.399999976158,4854.199999988079,6463.899999976158,10075.800000011921,12372.899999976158,14757.5,16140.300000011921,16972.399999976158,19631.80000001192,22623.5,24669,42062.19999998808,42870.89999997616,43808.19999998808,48108.69999998808,48861.19999998808,49823.19999998808],"straightlining":0.36363636363636365,"zigzagging":0.5,"honeypot":0,"survey":"openness","trial_type":"survey-template","trial_index":3,"time_elapsed":158449,"internal_node_id":"0.0-3.0","experiment":"validation","task_version":"1.1","jspsych_version":"6.3.1","infrequency":0},{"responses":{"Q03":"4","Q06":"3","Q01":"1","Q07":"2","Q02":"4","Q05":"3","Q04":"1"},"rt":82120.89999997616,"item_order":[2,5,0,6,1,4,3],"radio_events":[2623.599999964237,9649.199999988079,10772.5,34608.5,38028.89999997616,64220.5,72417.80000001192,80939.09999996424],"key_events":[],"mouse_events":[2623.599999964237,9649.199999988079,10772.5,34608.5,38028.89999997616,64220.5,71707.39999997616,72417.80000001192,73129.39999997616,80939.09999996424,82119],"straightlining":0.42857142857142855,"zigzagging":0.3333333333333333,"honeypot":0,"survey":"nfc6","trial_type":"survey-template","trial_index":4,"time_elapsed":240576,"internal_node_id":"0.0-4.0","experiment":"validation","task_version":"1.1","jspsych_version":"6.3.1","infrequency":0},{"value":[0,1.2467532467532467,1.3333333333333333],"trial_type":"call-function","trial_index":5,"time_elapsed":240586,"internal_node_id":"0.0-5.0","experiment":"validation","task_version":"1.1","jspsych_version":"6.3.1","interactions":"[{\"event\":\"blur\",\"trial\":1,\"time\":5716},{\"event\":\"focus\",\"trial\":1,\"time\":61071},{\"event\":\"blur\",\"trial\":2,\"time\":78252},{\"event\":\"focus\",\"trial\":2,\"time\":87607},{\"event\":\"blur\",\"trial\":3,\"time\":135255},{\"event\":\"focus\",\"trial\":3,\"time\":148333},{\"event\":\"blur\",\"trial\":4,\"time\":173438},{\"event\":\"focus\",\"trial\":4,\"time\":189477},{\"event\":\"blur\",\"trial\":4,\"time\":201647},{\"event\":\"focus\",\"trial\":4,\"time\":218435}]"}]