[{"view_history":[{"page_index":0,"viewing_time":3085.7950000026904}],"rt":3086.1949999998615,"trial_type":"instructions","trial_index":0,"time_elapsed":3210,"internal_node_id":"0.0-0.0","experiment":"validation","task_version":"1.1","jspsych_version":"6.3.1"},{"rt":15014.689999999973,"responses":{"age":"65","gender-categorical":"Male","gender-free-response":"","ethnicity":"Not Hispanic or Latino","race":["White"],"education":"Bachelor degree"},"survey":"demographics","trial_type":"survey-demo","trial_index":1,"time_elapsed":18243,"internal_node_id":"0.0-1.0","experiment":"validation","task_version":"1.1","jspsych_version":"6.3.1"},{"responses":{"Q04":"4","Q01":"4","Q05":"4","Q03":"4","Q07":"2","Q06":"4","Q02":"4"},"rt":29848.35000000021,"item_order":[3,0,4,2,6,5,1],"radio_events":[10920.410000002448,12300.400000000081,14266.410000000178,17666.270000001532,21478.399999999965,24806.225000000268,28658.260000000155],"key_events":[],"mouse_events":[8295.395000001008,10166.470000000118,10920.410000002448,12300.400000000081,14266.410000000178,17666.270000001532,21478.399999999965,24806.225000000268,28658.260000000155,29846.46000000066],"straightlining":0.5714285714285714,"zigzagging":0.3333333333333333,"honeypot":0,"survey":"nfc6","trial_type":"survey-template","trial_index":2,"time_elapsed":48096,"internal_node_id":"0.0-2.0","experiment":"validation","task_version":"1.1","jspsych_version":"6.3.1","infrequency":0},{"responses":{"Q05":"0","Q09":"4","Q08":"4","Q03":"4","Q07":"4","Q11":"0","Q04":"1","Q06":"4","Q10":"4","Q02":"4","Q01":"4"},"rt":36123.71500000154,"item_order":[4,8,7,2,6,10,3,5,9,1,0],"radio_events":[3603.4900000013295,7567.269999999553,10409.500000001572,14311.509999999544,16019.469999999274,18185.450000000856,27283.4299999995,28559.48999999964,30839.34500000032,32805.380000001605,35317.35000000117],"key_events":[],"mouse_events":[3603.4900000013295,7567.269999999553,10409.500000001572,14311.509999999544,16019.469999999274,18185.450000000856,19283.66499999902,23469.590000000608,27283.4299999995,28559.48999999964,30839.34500000032,32805.380000001605,34249.60999999894,35317.35000000117,36121.5200000006],"straightlining":0.5454545454545454,"zigzagging":0.4,"honeypot":0,"survey":"openness","trial_type":"survey-template","trial_index":3,"time_elapsed":84224,"internal_node_id":"0.0-3.0","experiment":"validation","task_version":"1.1","jspsych_version":"6.3.1","infrequency":0},{"responses":{"Q10":"1","Q11":"4","Q08":"0","Q09":"0","Q07":"2","Q01":"0","Q03":"0","Q04":"0","Q06":"1","Q02":"0","Q05":"0"},"rt":39681.45000000004,"item_order":[9,10,7,8,6,0,2,3,5,1,4],"radio_events":[3025.209999999788,6251.3249999974505,7743.384999997943,10101.314999999886,15923.134999997274,19523.314999998547,22275.259999998525,27543.33499999848,30303.335000000516,34955.32499999899,36687.19499999861,38547.239999999874],"key_events":[],"mouse_events":[3025.209999999788,6251.3249999974505,7743.384999997943,10101.314999999886,15923.134999997274,19523.314999998547,22275.259999998525,23279.585000000225,27543.33499999848,30303.335000000516,34955.32499999899,36687.19499999861,37769.459999999526,38547.239999999874,39679.24999999741],"straightlining":0.45454545454545453,"zigzagging":0.1,"honeypot":0,"survey":"neuroticism","trial_type":"survey-template","trial_index":4,"time_elapsed":123909,"internal_node_id":"0.0-4.0","experiment":"validation","task_version":"1.1","jspsych_version":"6.3.1","infrequency":0},{"value":[0,1.5714285714285714,0.8333333333333334],"trial_type":"call-function","trial_index":5,"time_elapsed":123937,"internal_node_id":"0.0-5.0","experiment":"validation","task_version":"1.1","jspsych_version":"6.3.1","interactions":"[]"}]