[{"view_history":[{"page_index":0,"viewing_time":1270.7000000476837}],"rt":1270.8999999761581,"trial_type":"instructions","trial_index":0,"time_elapsed":1292,"internal_node_id":"0.0-0.0","experiment":"validation","task_version":"1.1","jspsych_version":"6.3.1"},{"rt":7458.900000095367,"responses":{"age":"31","gender-categorical":"Female","gender-free-response":"","ethnicity":"Not Hispanic or Latino","race":["White"],"education":"Associate degree"},"survey":"demographics","trial_type":"survey-demo","trial_index":1,"time_elapsed":8753,"internal_node_id":"0.0-1.0","experiment":"validation","task_version":"1.1","jspsych_version":"6.3.1"},{"responses":{"Q08":"3","Q05":"3","Q06":"3","Q01":"4","Q02":"3","Q11":"4","Q04":"3","Q09":"3","Q03":"3","Q07":"4","Q10":"2"},"rt":17699.5,"item_order":[7,4,5,0,1,10,3,8,2,6,9],"radio_events":[3691.2999999523163,4982.399999976158,5294.199999928474,6135.399999976158,7811.799999952316,8529.399999976158,11082.699999928474,13142.399999976158,14188.600000023842,15425.5,16482.199999928474,17264.600000023842],"key_events":[],"mouse_events":[3169.5,3691.2999999523163,4434.399999976158,4982.399999976158,5294.199999928474,6135.399999976158,7811.799999952316,8529.399999976158,10657.5,11082.699999928474,11394.600000023842,13142.399999976158,14188.600000023842,15425.5,16482.199999928474,17264.600000023842,17698.399999976158],"straightlining":0.36363636363636365,"zigzagging":0.3,"honeypot":0,"survey":"neuroticism","trial_type":"survey-template","trial_index":2,"time_elapsed":26456,"internal_node_id":"0.0-2.0","experiment":"validation","task_version":"1.1","jspsych_version":"6.3.1","infrequency":0},{"responses":{"Q05":"1","Q11":"0","Q04":"2","Q06":"2","Q10":"4","Q08":"3","Q01":"4","Q02":"4","Q07":"4","Q09":"4","Q03":"4"},"rt":20257.5,"item_order":[4,10,3,5,9,7,0,1,6,8,2],"radio_events":[5975.399999976158,7654.200000047684,8896.899999976158,9918.700000047684,11110.399999976158,12729.600000023842,14742,15549.700000047684,16698.299999952316,18288.700000047684,19922.299999952316],"key_events":[],"mouse_events":[4228.799999952316,4984.799999952316,5975.399999976158,7654.200000047684,8896.899999976158,9918.700000047684,11110.399999976158,12729.600000023842,14742,15549.700000047684,16506.600000023842,16698.299999952316,17709.100000023842,18288.700000047684,19364.399999976158,19673,19922.299999952316,20256.399999976158],"straightlining":0.36363636363636365,"zigzagging":0.3,"honeypot":0,"survey":"openness","trial_type":"survey-template","trial_index":3,"time_elapsed":46715,"internal_node_id":"0.0-3.0","experiment":"validation","task_version":"1.1","jspsych_version":"6.3.1","infrequency":0},{"responses":{"Q02":"1","Q04":"0","Q06":"1","Q01":"1","Q03":"1","Q07":"2","Q05":"1"},"rt":21233.400000095367,"item_order":[1,3,5,0,2,6,4],"radio_events":[5467.800000071526,13046.100000023842,14073.100000023842,16575.200000047684,17981.5,19571.600000023842,20633.5],"key_events":[],"mouse_events":[5099.600000023842,5467.800000071526,9048.5,10432.5,10813.600000023842,11552.700000047684,11977.5,13046.100000023842,14073.100000023842,16575.200000047684,17981.5,19571.600000023842,20416,20633.5,21232.700000047684],"straightlining":0.5714285714285714,"zigzagging":0.3333333333333333,"honeypot":0,"survey":"nfc6","trial_type":"survey-template","trial_index":4,"time_elapsed":67951,"internal_node_id":"0.0-4.0","experiment":"validation","task_version":"1.1","jspsych_version":"6.3.1","infrequency":0},{"value":[0,1.2987012987012987,0.9333333333333333],"trial_type":"call-function","trial_index":5,"time_elapsed":67952,"internal_node_id":"0.0-5.0","experiment":"validation","task_version":"1.1","jspsych_version":"6.3.1","interactions":"[]"}]