[{"view_history":[{"page_index":0,"viewing_time":1595.7000000476837}],"rt":1595.7999999523163,"trial_type":"instructions","trial_index":0,"time_elapsed":1621,"internal_node_id":"0.0-0.0","experiment":"validation","task_version":"2.0","jspsych_version":"6.3.1"},{"rt":9059.700000047684,"responses":{"age":"18","gender-categorical":"Male","gender-free-response":"","ethnicity":"Not Hispanic or Latino","race":["Asian"],"education":"Some college"},"survey":"demographics","trial_type":"survey-demo","trial_index":1,"time_elapsed":10681,"internal_node_id":"0.0-1.0","experiment":"validation","task_version":"2.0","jspsych_version":"6.3.1"},{"rt":40242.799999952316,"response":{"Q7":4,"Q3":5,"Q5":4,"Q2":3,"Q4":4,"Q8":0,"Q1":4,"Q0":4,"Q6":0},"question_order":[7,3,5,2,4,8,1,0,6],"survey":"sns","trial_type":"survey-likert","trial_index":2,"time_elapsed":50926,"internal_node_id":"0.0-2.0","experiment":"validation","task_version":"2.0","jspsych_version":"6.3.1","infrequency":0},{"responses":{"Q07":"3","Q05":"4","Q01":"2","Q08":"3","Q04":"3","Q06":"2","Q10":"3","Q03":"4","Q11":"0","Q02":"2","Q09":"2"},"rt":62637.09999990463,"item_order":[6,4,0,7,3,5,9,2,10,1,8],"radio_events":[4751,13831.599999904633,14792.099999904633,17767.700000047684,36003.90000009537,38645.799999952316,44265.5,46938.59999990463,54124.59999990463,60444.200000047684,62003.5],"key_events":[],"mouse_events":[4751,12030.700000047684,12398.400000095367,13149.599999904633,13831.599999904633,14792.099999904633,16847.5,17360.200000047684,17767.700000047684,34340.59999990463,35596.799999952316,36003.90000009537,38645.799999952316,43106.200000047684,44265.5,46266.700000047684,46938.59999990463,53507.299999952316,54124.59999990463,60075.90000009537,60444.200000047684,61404.200000047684,62003.5,62636.200000047684],"straightlining":0.36363636363636365,"zigzagging":0.3,"honeypot":0,"survey":"nfc10","trial_type":"survey-template","trial_index":3,"time_elapsed":113566,"internal_node_id":"0.0-3.0","experiment":"validation","task_version":"2.0","jspsych_version":"6.3.1","infrequency":0},{"responses":{"Q08":"3","Q03":"3","Q05":"2","Q09":"4","Q02":"3","Q04":"4","Q01":"3","Q07":"4","Q06":"3"},"rt":27171.299999952316,"item_order":[7,2,4,8,1,3,0,6,5],"radio_events":[3302.5,4829.799999952316,10537.299999952316,11393,13545.299999952316,16394.299999952316,18186,20306.200000047684,21401.299999952316,23185.900000095367,24394,26467],"key_events":[],"mouse_events":[3302.5,4829.799999952316,9838.900000095367,10537.299999952316,11393,13032.700000047684,13545.299999952316,16394.299999952316,17345.599999904633,18186,20306.200000047684,21401.299999952316,22385.599999904633,23185.900000095367,23554,24394,26467,27170.799999952316],"straightlining":0.5555555555555556,"zigzagging":0.625,"honeypot":0,"survey":"pcf","trial_type":"survey-template","trial_index":4,"time_elapsed":140739,"internal_node_id":"0.0-4.0","experiment":"validation","task_version":"2.0","jspsych_version":"6.3.1","infrequency":0},{"value":0,"trial_type":"call-function","trial_index":5,"time_elapsed":140740,"internal_node_id":"0.0-5.0","experiment":"validation","task_version":"2.0","jspsych_version":"6.3.1","interactions":"[]"}]