[{"view_history":[{"page_index":0,"viewing_time":1536.7000000476837}],"rt":1537,"trial_type":"instructions","trial_index":0,"time_elapsed":1557,"internal_node_id":"0.0-0.0","experiment":"validation","task_version":"1.1","jspsych_version":"6.3.1"},{"rt":9187,"responses":{"age":"41","gender-categorical":"Female","gender-free-response":"","ethnicity":"Not Hispanic or Latino","race":["White"],"education":"Bachelor degree"},"survey":"demographics","trial_type":"survey-demo","trial_index":1,"time_elapsed":10747,"internal_node_id":"0.0-1.0","experiment":"validation","task_version":"1.1","jspsych_version":"6.3.1"},{"responses":{"Q06":"3","Q11":"0","Q03":"4","Q09":"4","Q10":"4","Q08":"2","Q01":"4","Q05":"1","Q02":"3","Q04":"0","Q07":"4"},"rt":26371.600000023842,"item_order":[5,10,2,8,9,7,0,4,1,3,6],"radio_events":[6702.800000011921,10018.5,11789,13972.800000011921,15525.900000035763,16859.400000035763,18341.5,20239.19999998808,21828.600000023842,22812.600000023842,24356.600000023842,25628.600000023842],"key_events":[],"mouse_events":[5915.600000023842,6702.800000011921,8676.100000023842,10018.5,11789,13972.800000011921,15525.900000035763,16859.400000035763,18341.5,20239.19999998808,21828.600000023842,22812.600000023842,24356.600000023842,25628.600000023842,26369.19999998808],"straightlining":0.36363636363636365,"zigzagging":0.6,"honeypot":0,"survey":"openness","trial_type":"survey-template","trial_index":2,"time_elapsed":37125,"internal_node_id":"0.0-2.0","experiment":"validation","task_version":"1.1","jspsych_version":"6.3.1","infrequency":0},{"responses":{"Q08":"1","Q05":"3","Q01":"3","Q02":"0","Q09":"2","Q07":"2","Q10":"2","Q03":"1","Q06":"3","Q04":"2","Q11":"4"},"rt":22296.100000023842,"item_order":[7,4,0,1,8,6,9,2,5,3,10],"radio_events":[3141.899999976158,4024.199999988079,5497.899999976158,6731.800000011921,8385.699999988079,9790.199999988079,12442.100000023842,14819.899999976158,16793.100000023842,20211.5,21561.69999998808],"key_events":[],"mouse_events":[2324.300000011921,3141.899999976158,4024.199999988079,5497.899999976158,6731.800000011921,8385.699999988079,9790.199999988079,12442.100000023842,14819.899999976158,16793.100000023842,18691.899999976158,20211.5,21561.69999998808,22294.100000023842],"straightlining":0.36363636363636365,"zigzagging":0.2,"honeypot":0,"survey":"neuroticism","trial_type":"survey-template","trial_index":3,"time_elapsed":59428,"internal_node_id":"0.0-3.0","experiment":"validation","task_version":"1.1","jspsych_version":"6.3.1","infrequency":0},{"responses":{"Q04":"3","Q05":"3","Q03":"3","Q06":"2","Q01":"2","Q07":"2","Q02":"3"},"rt":73310.10000002384,"item_order":[3,4,2,5,0,6,1],"radio_events":[8207.899999976158,34827.69999998808,38090.10000002384,41226,68448,70882.5,72722.39999997616],"key_events":[],"mouse_events":[8207.899999976158,21738.600000023842,27940.5,34827.69999998808,38090.10000002384,41226,68448,70882.5,72722.39999997616,73308.5],"straightlining":0.42857142857142855,"zigzagging":0.3333333333333333,"honeypot":0,"survey":"nfc6","trial_type":"survey-template","trial_index":4,"time_elapsed":132743,"internal_node_id":"0.0-4.0","experiment":"validation","task_version":"1.1","jspsych_version":"6.3.1","infrequency":0},{"value":[0,1.155844155844156,1.1333333333333333],"trial_type":"call-function","trial_index":5,"time_elapsed":132748,"internal_node_id":"0.0-5.0","experiment":"validation","task_version":"1.1","jspsych_version":"6.3.1","interactions":"[{\"event\":\"blur\",\"trial\":4,\"time\":103248},{\"event\":\"focus\",\"trial\":4,\"time\":125558}]"}]