[{"view_history":[{"page_index":0,"viewing_time":2188.900000035763}],"rt":2189.2000000476837,"trial_type":"instructions","trial_index":0,"time_elapsed":2202,"internal_node_id":"0.0-0.0","experiment":"validation","task_version":"1.1","jspsych_version":"6.3.1"},{"rt":11353.099999964237,"responses":{"age":"29","gender-categorical":"Male","gender-free-response":"","ethnicity":"Not Hispanic or Latino","race":["White"],"education":"Master degree or higher"},"survey":"demographics","trial_type":"survey-demo","trial_index":1,"time_elapsed":13557,"internal_node_id":"0.0-1.0","experiment":"validation","task_version":"1.1","jspsych_version":"6.3.1"},{"responses":{"Q09":"2","Q11":"0","Q07":"0","Q01":"0","Q06":"2","Q02":"0","Q04":"1","Q10":"1","Q08":"0","Q03":"0","Q05":"0"},"rt":36192.39999997616,"item_order":[8,10,6,0,5,1,3,9,7,2,4],"radio_events":[9313.899999976158,11463.899999976158,17846.099999964237,19798,21711.899999976158,23812.099999964237,27836.399999976158,29987.399999976158,32148.399999976158,33509.09999996424,35154.5],"key_events":[],"mouse_events":[9313.899999976158,11463.899999976158,17846.099999964237,19798,21711.899999976158,23812.099999964237,27836.399999976158,29987.399999976158,32148.399999976158,33509.09999996424,35154.5,36189.89999997616],"straightlining":0.45454545454545453,"zigzagging":0.5,"honeypot":0,"survey":"neuroticism","trial_type":"survey-template","trial_index":2,"time_elapsed":49753,"internal_node_id":"0.0-2.0","experiment":"validation","task_version":"1.1","jspsych_version":"6.3.1","infrequency":1},{"responses":{"Q05":"1","Q08":"3","Q03":"4","Q09":"2","Q02":"1","Q10":"4","Q06":"2","Q01":"3","Q07":"2","Q11":"0","Q04":"1"},"rt":44716.09999996424,"item_order":[4,7,2,8,1,9,5,0,6,10,3],"radio_events":[8323.599999964237,9658.300000011921,11737.699999988079,14980.199999988079,19321.899999976158,20623.69999998808,24239.899999976158,26952.099999964237,28459.69999998808,31133.599999964237,43693.59999996424],"key_events":[],"mouse_events":[8323.599999964237,9658.300000011921,11737.699999988079,14980.199999988079,19321.899999976158,20623.69999998808,24239.899999976158,26952.099999964237,28459.69999998808,31133.599999964237,43693.59999996424,44713.80000001192],"straightlining":0.2727272727272727,"zigzagging":0.4,"honeypot":0,"survey":"openness","trial_type":"survey-template","trial_index":3,"time_elapsed":94471,"internal_node_id":"0.0-3.0","experiment":"validation","task_version":"1.1","jspsych_version":"6.3.1","infrequency":0},{"responses":{"Q02":"3","Q01":"3","Q05":"2","Q06":"3","Q03":"4","Q07":"2","Q04":"3"},"rt":40032,"item_order":[1,0,4,5,2,6,3],"radio_events":[13266.899999976158,14940.800000011921,17977.899999976158,23410.599999964237,27680.30000001192,30575.19999998808,39103.09999996424],"key_events":[],"mouse_events":[13266.899999976158,14940.800000011921,17977.899999976158,23410.599999964237,27680.30000001192,30575.19999998808,39103.09999996424,40030.09999996424],"straightlining":0.42857142857142855,"zigzagging":0.5,"honeypot":0,"survey":"nfc6","trial_type":"survey-template","trial_index":4,"time_elapsed":134505,"internal_node_id":"0.0-4.0","experiment":"validation","task_version":"1.1","jspsych_version":"6.3.1","infrequency":0},{"value":[1,1.155844155844156,1.4],"trial_type":"call-function","trial_index":5,"time_elapsed":134507,"internal_node_id":"0.0-5.0","experiment":"validation","task_version":"1.1","jspsych_version":"6.3.1","interactions":"[]"}]