[{"view_history":[{"page_index":0,"viewing_time":1398.300000000745}],"rt":1398.6000000014901,"trial_type":"instructions","trial_index":0,"time_elapsed":1426,"internal_node_id":"0.0-0.0","experiment":"validation","task_version":"2.0","jspsych_version":"6.3.1"},{"rt":8019.300000000745,"responses":{"age":"24","gender-categorical":"Female","gender-free-response":"","ethnicity":"Not Hispanic or Latino","race":["White"],"education":"Bachelor degree"},"survey":"demographics","trial_type":"survey-demo","trial_index":1,"time_elapsed":9447,"internal_node_id":"0.0-1.0","experiment":"validation","task_version":"2.0","jspsych_version":"6.3.1"},{"responses":{"Q03":"2","Q07":"3","Q04":"3","Q05":"2","Q08":"3","Q09":"4","Q01":"3","Q06":"3","Q02":"3"},"rt":31602.400000000373,"item_order":[2,6,3,4,7,8,0,5,1],"radio_events":[10005.300000000745,11045.400000000373,15151.400000000373,18223.400000000373,19393.699999999255,23805.199999999255,24443.199999999255,25081.5,30867.300000000745],"key_events":[],"mouse_events":[4139.4000000003725,10005.300000000745,11045.400000000373,12649.400000000373,13987.199999999255,15151.400000000373,17373.400000000373,17859.400000000373,18223.400000000373,19393.699999999255,21385.199999999255,23261.400000000373,23805.199999999255,24443.199999999255,25081.5,25803.400000000373,26825.599999999627,29519.300000000745,30529.300000000745,30867.300000000745,31601.300000000745],"straightlining":0.6666666666666666,"zigzagging":0.375,"honeypot":0,"survey":"pcf","trial_type":"survey-template","trial_index":2,"time_elapsed":41054,"internal_node_id":"0.0-2.0","experiment":"validation","task_version":"2.0","jspsych_version":"6.3.1","infrequency":0},{"rt":28229.699999999255,"response":{"Q8":0,"Q7":4,"Q1":3,"Q6":1,"Q2":1,"Q5":0,"Q3":4,"Q4":3,"Q0":3},"question_order":[8,7,1,6,2,5,3,4,0],"survey":"sns","trial_type":"survey-likert","trial_index":3,"time_elapsed":69287,"internal_node_id":"0.0-3.0","experiment":"validation","task_version":"2.0","jspsych_version":"6.3.1","infrequency":0},{"responses":{"Q09":"3","Q05":"3","Q08":"4","Q11":"0","Q07":"4","Q04":"3","Q10":"4","Q02":"4","Q03":"4","Q01":"3","Q06":"3"},"rt":39859,"item_order":[8,4,7,10,6,3,9,1,2,0,5],"radio_events":[6660,9164.300000000745,13360.199999999255,17092.099999999627,20968,24420.099999999627,30816.099999999627,31924,36176,37396,39182.300000000745],"key_events":[],"mouse_events":[6660,9164.300000000745,12314.199999999255,13360.199999999255,17092.099999999627,20968,24420.099999999627,29286.300000000745,30816.099999999627,31924,35648,36176,37396,38362,39182.300000000745,39858],"straightlining":0.36363636363636365,"zigzagging":0.3,"honeypot":0,"survey":"nfc10","trial_type":"survey-template","trial_index":4,"time_elapsed":109149,"internal_node_id":"0.0-4.0","experiment":"validation","task_version":"2.0","jspsych_version":"6.3.1","infrequency":0},{"value":0,"trial_type":"call-function","trial_index":5,"time_elapsed":109151,"internal_node_id":"0.0-5.0","experiment":"validation","task_version":"2.0","jspsych_version":"6.3.1","interactions":"[]"}]