[{"view_history":[{"page_index":0,"viewing_time":9745.09999999404}],"rt":9745.899999976158,"trial_type":"instructions","trial_index":0,"time_elapsed":9841,"internal_node_id":"0.0-0.0","experiment":"validation","task_version":"2.0","jspsych_version":"6.3.1"},{"rt":14347.5,"responses":{"age":"35","gender-categorical":"Female","gender-free-response":"","ethnicity":"Not Hispanic or Latino","race":["Asian"],"education":"Master degree or higher"},"survey":"demographics","trial_type":"survey-demo","trial_index":1,"time_elapsed":24191,"internal_node_id":"0.0-1.0","experiment":"validation","task_version":"2.0","jspsych_version":"6.3.1"},{"responses":{"Q06":"2","Q08":"4","Q05":"3","Q07":"3","Q04":"3","Q09":"4","Q01":"2","Q03":"3","Q02":"3"},"rt":330218.6999999881,"item_order":[5,7,4,6,3,8,0,2,1],"radio_events":[11176.699999988079,17258.899999976158,17690.59999999404,22715.5,306248.6999999881,307388.7999999821,311233.89999997616,312087,312784.89999997616,316354.39999997616,316575.09999999404,317494.7999999821,321063.39999997616,323558.39999997616,324963.6999999881,327832],"key_events":[],"mouse_events":[3952.399999976158,4135.799999982119,5927.5999999940395,6089.799999982119,10720.899999976158,11176.699999988079,15188.5,16561.5,17258.899999976158,17690.59999999404,22715.5,303285,305162.89999997616,305683,306248.6999999881,306851.39999997616,307388.7999999821,310733.5,311233.89999997616,312087,312784.89999997616,315130.5,316127.5,316354.39999997616,316575.09999999404,317275.6999999881,317494.7999999821,320845.39999997616,321063.39999997616,322288,323558.39999997616,324347.2999999821,324963.6999999881,325990.7999999821,326438.5,327832,330217.2999999821],"straightlining":0.5555555555555556,"zigzagging":0.25,"honeypot":0,"survey":"pcf","trial_type":"survey-template","trial_index":2,"time_elapsed":354415,"internal_node_id":"0.0-2.0","experiment":"validation","task_version":"2.0","jspsych_version":"6.3.1","infrequency":0},{"responses":{"Q07":"3","Q03":"1","Q08":"3","Q11":"3","Q02":"3","Q06":"3","Q01":"3","Q09":"2","Q10":"2","Q04":"2","Q05":"2"},"rt":35551.20000001788,"item_order":[6,2,7,10,1,5,0,8,9,3,4],"radio_events":[8476.200000017881,9286.600000023842,12756.200000017881,14877.40000000596,15887.800000011921,17910.30000001192,19934.80000001192,20718.20000001788,23209.70000001788,27586.5,30300.40000000596,34848.5],"key_events":[],"mouse_events":[8145.700000017881,8476.200000017881,9286.600000023842,10386,12334.600000023842,12756.200000017881,14877.40000000596,15887.800000011921,16651.80000001192,17576.100000023842,17910.30000001192,19934.80000001192,20718.20000001788,23209.70000001788,24250.5,27586.5,29562.40000000596,30300.40000000596,32786.20000001788,34848.5,35550.20000001788],"straightlining":0.6363636363636364,"zigzagging":0.1,"honeypot":0,"survey":"nfc10","trial_type":"survey-template","trial_index":3,"time_elapsed":389970,"internal_node_id":"0.0-3.0","experiment":"validation","task_version":"2.0","jspsych_version":"6.3.1","infrequency":1},{"rt":39477.09999999404,"response":{"Q1":4,"Q2":3,"Q3":4,"Q0":4,"Q7":4,"Q6":3,"Q5":4,"Q8":0,"Q4":4},"question_order":[1,2,3,0,7,6,5,8,4],"survey":"sns","trial_type":"survey-likert","trial_index":4,"time_elapsed":429452,"internal_node_id":"0.0-4.0","experiment":"validation","task_version":"2.0","jspsych_version":"6.3.1","infrequency":0},{"value":1,"trial_type":"call-function","trial_index":5,"time_elapsed":429454,"internal_node_id":"0.0-5.0","experiment":"validation","task_version":"2.0","jspsych_version":"6.3.1","interactions":"[{\"event\":\"blur\",\"trial\":2,\"time\":310042},{\"event\":\"focus\",\"trial\":2,\"time\":317287},{\"event\":\"blur\",\"trial\":2,\"time\":318204},{\"event\":\"focus\",\"trial\":2,\"time\":326316}]"}]