[{"success":true,"timeout":false,"failed_images":[],"failed_audio":[],"failed_video":[],"trial_type":"preload","trial_index":0,"time_elapsed":2197,"internal_node_id":"0.0-0.0","experiment":"validation","task_version":"2.0","jspsych_version":"6.3.1"},{"success":true,"trial_type":"fullscreen","trial_index":1,"time_elapsed":4609,"internal_node_id":"0.0-1.0","experiment":"validation","task_version":"2.0","jspsych_version":"6.3.1"},{"view_history":[{"page_index":0,"viewing_time":2830.300000011921},{"page_index":1,"viewing_time":8441},{"page_index":2,"viewing_time":1998.699999988079},{"page_index":3,"viewing_time":778.3000000119209}],"rt":14048.90000000596,"trial_type":"instructions","trial_index":2,"time_elapsed":18659,"internal_node_id":"0.0-3.0","experiment":"validation","task_version":"2.0","jspsych_version":"6.3.1"},{"item":5,"shape_set":1,"distractor":"pd","choice_order":[1,3,2,0],"correct":0,"choice":0,"accuracy":1,"rt":1428,"screen_resolution":[1920,1080],"minimum_resolution":1,"all_loaded":true,"item_set":"practice","trial_type":"mars","trial_index":3,"time_elapsed":20851,"internal_node_id":"0.0-4.0-0.0","experiment":"validation","task_version":"2.0","jspsych_version":"6.3.1"},{"item":2,"shape_set":1,"distractor":"pd","choice_order":[0,2,3,1],"correct":0,"choice":0,"accuracy":1,"rt":2246.100000023842,"screen_resolution":[1920,1080],"minimum_resolution":1,"all_loaded":true,"item_set":"practice","trial_type":"mars","trial_index":4,"time_elapsed":23850,"internal_node_id":"0.0-5.0-0.0","experiment":"validation","task_version":"2.0","jspsych_version":"6.3.1"},{"item":8,"shape_set":1,"distractor":"pd","choice_order":[1,0,3,2],"correct":0,"choice":0,"accuracy":1,"rt":3675.600000023842,"screen_resolution":[1920,1080],"minimum_resolution":1,"all_loaded":true,"item_set":"practice","trial_type":"mars","trial_index":5,"time_elapsed":28285,"internal_node_id":"0.0-6.0-0.0","experiment":"validation","task_version":"2.0","jspsych_version":"6.3.1"},{"view_history":[{"page_index":0,"viewing_time":1938.3999999761581},{"page_index":1,"viewing_time":45106.10000002384}],"rt":47044.79999998212,"trial_type":"instructions","trial_index":6,"time_elapsed":75331,"internal_node_id":"0.0-7.0","experiment":"validation","task_version":"2.0","jspsych_version":"6.3.1"},{"rt":null,"stimulus":"<div style=\"font-size:24px;\">Loading puzzle:<br>1 / 12</div>","response":null,"trial_type":"html-keyboard-response","trial_index":7,"time_elapsed":76533,"internal_node_id":"0.0-8.0-1.0","experiment":"validation","task_version":"2.0","jspsych_version":"6.3.1"},{"item":45,"shape_set":1,"distractor":"pd","choice_order":[0,2,3,1],"correct":0,"choice":0,"accuracy":1,"rt":7997.199999988079,"screen_resolution":[1920,1080],"minimum_resolution":1,"all_loaded":true,"item_set":3,"short_form":2,"trial_type":"mars","trial_index":8,"time_elapsed":84533,"internal_node_id":"0.0-8.0-2.0","experiment":"validation","task_version":"2.0","jspsych_version":"6.3.1","browser_interactions":0},{"rt":null,"stimulus":"<div style=\"font-size:24px;\">Loading puzzle:<br>2 / 12</div>","response":null,"trial_type":"html-keyboard-response","trial_index":9,"time_elapsed":85735,"internal_node_id":"0.0-9.0-1.0","experiment":"validation","task_version":"2.0","jspsych_version":"6.3.1"},{"item":30,"shape_set":2,"distractor":"pd","choice_order":[0,3,2,1],"correct":0,"choice":0,"accuracy":1,"rt":9667.5,"screen_resolution":[1920,1080],"minimum_resolution":1,"all_loaded":true,"item_set":3,"short_form":2,"trial_type":"mars","trial_index":10,"time_elapsed":95405,"internal_node_id":"0.0-9.0-2.0","experiment":"validation","task_version":"2.0","jspsych_version":"6.3.1","browser_interactions":0},{"rt":null,"stimulus":"<div style=\"font-size:24px;\">Loading puzzle:<br>3 / 12</div>","response":null,"trial_type":"html-keyboard-response","trial_index":11,"time_elapsed":96607,"internal_node_id":"0.0-10.0-1.0","experiment":"validation","task_version":"2.0","jspsych_version":"6.3.1"},{"item":55,"shape_set":3,"distractor":"pd","choice_order":[3,0,1,2],"correct":0,"choice":0,"accuracy":1,"rt":7631.199999988079,"screen_resolution":[1920,1080],"minimum_resolution":1,"all_loaded":true,"item_set":3,"short_form":2,"trial_type":"mars","trial_index":12,"time_elapsed":104240,"internal_node_id":"0.0-10.0-2.0","experiment":"validation","task_version":"2.0","jspsych_version":"6.3.1","browser_interactions":0},{"rt":null,"stimulus":"<div style=\"font-size:24px;\">Loading puzzle:<br>4 / 12</div>","response":null,"trial_type":"html-keyboard-response","trial_index":13,"time_elapsed":105443,"internal_node_id":"0.0-11.0-1.0","experiment":"validation","task_version":"2.0","jspsych_version":"6.3.1"},{"item":29,"shape_set":1,"distractor":"pd","choice_order":[0,3,2,1],"correct":0,"choice":0,"accuracy":1,"rt":11765,"screen_resolution":[1920,1080],"minimum_resolution":1,"all_loaded":true,"item_set":3,"short_form":2,"trial_type":"mars","trial_index":14,"time_elapsed":117212,"internal_node_id":"0.0-11.0-2.0","experiment":"validation","task_version":"2.0","jspsych_version":"6.3.1","browser_interactions":0},{"rt":null,"stimulus":"<div style=\"font-size:24px;\">Loading puzzle:<br>5 / 12</div>","response":null,"trial_type":"html-keyboard-response","trial_index":15,"time_elapsed":118415,"internal_node_id":"0.0-12.0-1.0","experiment":"validation","task_version":"2.0","jspsych_version":"6.3.1"},{"item":64,"shape_set":1,"distractor":"pd","choice_order":[0,2,1,3],"correct":0,"choice":0,"accuracy":1,"rt":15460.40000000596,"screen_resolution":[1920,1080],"minimum_resolution":1,"all_loaded":true,"item_set":3,"short_form":2,"trial_type":"mars","trial_index":16,"time_elapsed":133880,"internal_node_id":"0.0-12.0-2.0","experiment":"validation","task_version":"2.0","jspsych_version":"6.3.1","browser_interactions":0},{"rt":null,"stimulus":"<div style=\"font-size:24px;\">Loading puzzle:<br>6 / 12</div>","response":null,"trial_type":"html-keyboard-response","trial_index":17,"time_elapsed":135083,"internal_node_id":"0.0-13.0-1.0","experiment":"validation","task_version":"2.0","jspsych_version":"6.3.1"},{"item":35,"shape_set":1,"distractor":"pd","choice_order":[2,3,1,0],"correct":0,"choice":0,"accuracy":1,"rt":8727,"screen_resolution":[1920,1080],"minimum_resolution":1,"all_loaded":true,"item_set":3,"short_form":2,"trial_type":"mars","trial_index":18,"time_elapsed":143813,"internal_node_id":"0.0-13.0-2.0","experiment":"validation","task_version":"2.0","jspsych_version":"6.3.1","browser_interactions":0},{"rt":null,"stimulus":"<div style=\"font-size:24px;\">Loading puzzle:<br>7 / 12</div>","response":null,"trial_type":"html-keyboard-response","trial_index":19,"time_elapsed":145015,"internal_node_id":"0.0-14.0-1.0","experiment":"validation","task_version":"2.0","jspsych_version":"6.3.1"},{"item":24,"shape_set":1,"distractor":"pd","choice_order":[0,2,1,3],"correct":0,"choice":0,"accuracy":1,"rt":11510.90000000596,"screen_resolution":[1920,1080],"minimum_resolution":1,"all_loaded":true,"item_set":3,"short_form":2,"trial_type":"mars","trial_index":20,"time_elapsed":156529,"internal_node_id":"0.0-14.0-2.0","experiment":"validation","task_version":"2.0","jspsych_version":"6.3.1","browser_interactions":0},{"rt":null,"stimulus":"<div style=\"font-size:24px;\">Loading puzzle:<br>8 / 12</div>","response":null,"trial_type":"html-keyboard-response","trial_index":21,"time_elapsed":157731,"internal_node_id":"0.0-15.0-1.0","experiment":"validation","task_version":"2.0","jspsych_version":"6.3.1"},{"item":17,"shape_set":3,"distractor":"pd","choice_order":[2,3,1,0],"correct":0,"choice":0,"accuracy":1,"rt":21904.5,"screen_resolution":[1920,1080],"minimum_resolution":1,"all_loaded":true,"item_set":3,"short_form":2,"trial_type":"mars","trial_index":22,"time_elapsed":179638,"internal_node_id":"0.0-15.0-2.0","experiment":"validation","task_version":"2.0","jspsych_version":"6.3.1","browser_interactions":0},{"rt":null,"stimulus":"<div style=\"font-size:24px;\">Loading puzzle:<br>9 / 12</div>","response":null,"trial_type":"html-keyboard-response","trial_index":23,"time_elapsed":180840,"internal_node_id":"0.0-16.0-1.0","experiment":"validation","task_version":"2.0","jspsych_version":"6.3.1"},{"item":58,"shape_set":3,"distractor":"md","choice_order":[1,3,2,0],"correct":0,"choice":0,"accuracy":1,"rt":15711.5,"screen_resolution":[1920,1080],"minimum_resolution":1,"all_loaded":true,"item_set":3,"short_form":2,"trial_type":"mars","trial_index":24,"time_elapsed":196555,"internal_node_id":"0.0-16.0-2.0","experiment":"validation","task_version":"2.0","jspsych_version":"6.3.1","browser_interactions":0},{"rt":null,"stimulus":"<div style=\"font-size:24px;\">Loading puzzle:<br>10 / 12</div>","response":null,"trial_type":"html-keyboard-response","trial_index":25,"time_elapsed":197757,"internal_node_id":"0.0-17.0-1.0","experiment":"validation","task_version":"2.0","jspsych_version":"6.3.1"},{"item":76,"shape_set":1,"distractor":"pd","choice_order":[1,3,2,0],"correct":0,"choice":2,"accuracy":0,"rt":21558.80000001192,"screen_resolution":[1920,1080],"minimum_resolution":1,"all_loaded":true,"item_set":3,"short_form":2,"trial_type":"mars","trial_index":26,"time_elapsed":219318,"internal_node_id":"0.0-17.0-2.0","experiment":"validation","task_version":"2.0","jspsych_version":"6.3.1","browser_interactions":0},{"rt":null,"stimulus":"<div style=\"font-size:24px;\">Loading puzzle:<br>11 / 12</div>","response":null,"trial_type":"html-keyboard-response","trial_index":27,"time_elapsed":220519,"internal_node_id":"0.0-18.0-1.0","experiment":"validation","task_version":"2.0","jspsych_version":"6.3.1"},{"item":72,"shape_set":3,"distractor":"pd","choice_order":[1,0,2,3],"correct":0,"choice":2,"accuracy":0,"rt":22410,"screen_resolution":[1920,1080],"minimum_resolution":1,"all_loaded":true,"item_set":3,"short_form":2,"trial_type":"mars","trial_index":28,"time_elapsed":242932,"internal_node_id":"0.0-18.0-2.0","experiment":"validation","task_version":"2.0","jspsych_version":"6.3.1","browser_interactions":0},{"rt":null,"stimulus":"<div style=\"font-size:24px;\">Loading puzzle:<br>12 / 12</div>","response":null,"trial_type":"html-keyboard-response","trial_index":29,"time_elapsed":244134,"internal_node_id":"0.0-19.0-1.0","experiment":"validation","task_version":"2.0","jspsych_version":"6.3.1"},{"item":66,"shape_set":2,"distractor":"pd","choice_order":[2,1,0,3],"correct":0,"choice":0,"accuracy":1,"rt":13903.200000017881,"screen_resolution":[1920,1080],"minimum_resolution":1,"all_loaded":true,"item_set":3,"short_form":2,"trial_type":"mars","trial_index":30,"time_elapsed":258039,"internal_node_id":"0.0-19.0-2.0","experiment":"validation","task_version":"2.0","jspsych_version":"6.3.1","browser_interactions":0},{"value":[0,0,0],"trial_type":"call-function","trial_index":31,"time_elapsed":258040,"internal_node_id":"0.0-20.0","experiment":"validation","task_version":"2.0","jspsych_version":"6.3.1","interactions":"[{\"event\":\"fullscreenenter\",\"trial\":1,\"time\":3633}]"}]