[{"view_history":[{"page_index":0,"viewing_time":1399.2000000029802}],"rt":1399.8999999910593,"trial_type":"instructions","trial_index":0,"time_elapsed":1406,"internal_node_id":"0.0-0.0","experiment":"validation","task_version":"1.1","jspsych_version":"6.3.1"},{"rt":9053.5,"responses":{"age":"22","gender-categorical":"Male","gender-free-response":"","ethnicity":"Not Hispanic or Latino","race":["Asian"],"education":"Bachelor degree"},"survey":"demographics","trial_type":"survey-demo","trial_index":1,"time_elapsed":10464,"internal_node_id":"0.0-1.0","experiment":"validation","task_version":"1.1","jspsych_version":"6.3.1"},{"responses":{"Q07":"0","Q08":"0","Q06":"0","Q09":"0","Q11":"4","Q10":"0","Q05":"0","Q01":"0","Q03":"0","Q02":"0","Q04":"0"},"rt":18473.09999999404,"item_order":[6,7,5,8,10,9,4,0,2,1,3],"radio_events":[2357.5999999940395,4369.29999999702,5833.70000000298,8893.79999999702,9141.79999999702,12086.70000000298,12391.40000000596,13236,13570.90000000596,15080.79999999702,17837.5],"key_events":[],"mouse_events":[2357.5999999940395,3077.0999999940395,4369.29999999702,5833.70000000298,6711.29999999702,7554.29999999702,8893.79999999702,9141.79999999702,11436.20000000298,12086.70000000298,12391.40000000596,13236,13570.90000000596,14258.29999999702,15080.79999999702,15788.20000000298,17397.29999999702,17837.5,18468],"straightlining":0.5454545454545454,"zigzagging":0.1,"honeypot":0,"survey":"neuroticism","trial_type":"survey-template","trial_index":2,"time_elapsed":28942,"internal_node_id":"0.0-2.0","experiment":"validation","task_version":"1.1","jspsych_version":"6.3.1","infrequency":0},{"responses":{"Q05":"0","Q11":"0","Q02":"4","Q04":"0","Q01":"3","Q09":"4","Q07":"4","Q10":"4","Q08":"4","Q06":"4","Q03":"4"},"rt":31438.59999999404,"item_order":[4,10,1,3,0,8,6,9,7,5,2],"radio_events":[7235.0999999940395,11848.5,14490.199999988079,17337.59999999404,18440.19999998808,19169.5,21343.59999999404,22310,25143.79999999702,27507.89999999106,28531.59999999404,30860.59999999404],"key_events":[],"mouse_events":[7235.0999999940395,11848.5,13018.39999999106,14490.199999988079,16123,17337.59999999404,17834.89999999106,18440.19999998808,19169.5,21343.59999999404,22310,24524.69999998808,25143.79999999702,27507.89999999106,28531.59999999404,30016.5,30860.59999999404,31434.5],"straightlining":0.5454545454545454,"zigzagging":0.4,"honeypot":0,"survey":"openness","trial_type":"survey-template","trial_index":3,"time_elapsed":60384,"internal_node_id":"0.0-3.0","experiment":"validation","task_version":"1.1","jspsych_version":"6.3.1","infrequency":0},{"responses":{"Q05":"4","Q03":"2","Q02":"4","Q06":"4","Q07":"2","Q01":"4","Q04":"0"},"rt":29917.09999999404,"item_order":[4,2,1,5,6,0,3],"radio_events":[9632.20000000298,13646.59999999404,15065.59999999404,16303,19227.59999999404,21263.90000000596,23267.20000000298,26661.90000000596,29430.59999999404],"key_events":[],"mouse_events":[4941.79999999702,7245.9000000059605,9632.20000000298,13646.59999999404,15065.59999999404,15808.5,16303,19227.59999999404,21263.90000000596,23267.20000000298,25505.5,26661.90000000596,28576.70000000298,29430.59999999404,29914.59999999404],"straightlining":0.7142857142857143,"zigzagging":0,"honeypot":0,"survey":"nfc6","trial_type":"survey-template","trial_index":4,"time_elapsed":90306,"internal_node_id":"0.0-4.0","experiment":"validation","task_version":"1.1","jspsych_version":"6.3.1","infrequency":0},{"value":[0,1.8051948051948052,0.5],"trial_type":"call-function","trial_index":5,"time_elapsed":90311,"internal_node_id":"0.0-5.0","experiment":"validation","task_version":"1.1","jspsych_version":"6.3.1","interactions":"[]"}]