[{"view_history":[{"page_index":0,"viewing_time":2636.100000143051}],"rt":2636.600000143051,"trial_type":"instructions","trial_index":0,"time_elapsed":2652,"internal_node_id":"0.0-0.0","experiment":"validation","task_version":"2.0","jspsych_version":"6.3.1"},{"rt":13482.5,"responses":{"age":"31","gender-categorical":"Male","gender-free-response":"","ethnicity":"Not Hispanic or Latino","race":["White"],"education":"Bachelor degree"},"survey":"demographics","trial_type":"survey-demo","trial_index":1,"time_elapsed":16139,"internal_node_id":"0.0-1.0","experiment":"validation","task_version":"2.0","jspsych_version":"6.3.1"},{"responses":{"Q06":"1","Q11":"0","Q04":"3","Q07":"2","Q08":"3","Q02":"3","Q03":"3","Q09":"3","Q01":"3","Q05":"3","Q10":"3"},"rt":76977.60000014305,"item_order":[5,10,3,6,7,1,2,8,0,4,9],"radio_events":[21331.5,27072,39160.700000047684,48933.90000009537,57858.700000047684,59259.90000009537,63153.10000014305,65871.90000009537,67401.30000019073,74012.70000004768,75892.10000014305],"key_events":[],"mouse_events":[21331.5,27072,39160.700000047684,45937.60000014305,46601.200000047684,48933.90000009537,57025.90000009537,57858.700000047684,59259.90000009537,63153.10000014305,65871.90000009537,67401.30000019073,74012.70000004768,75892.10000014305,76974.30000019073],"straightlining":0.45454545454545453,"zigzagging":0.4,"honeypot":0,"survey":"nfc10","trial_type":"survey-template","trial_index":2,"time_elapsed":93129,"internal_node_id":"0.0-2.0","experiment":"validation","task_version":"2.0","jspsych_version":"6.3.1","infrequency":0},{"rt":41792,"response":{"Q1":4,"Q5":2,"Q6":3,"Q0":2,"Q2":5,"Q3":4,"Q7":4,"Q4":5,"Q8":0},"question_order":[1,5,6,0,2,3,7,4,8],"survey":"sns","trial_type":"survey-likert","trial_index":3,"time_elapsed":134929,"internal_node_id":"0.0-3.0","experiment":"validation","task_version":"2.0","jspsych_version":"6.3.1","infrequency":0},{"responses":{"Q02":"1","Q08":"1","Q03":"2","Q07":"1","Q04":"1","Q05":"1","Q01":"1","Q06":"2","Q09":"4"},"rt":33874.799999952316,"item_order":[1,7,2,6,3,4,0,5,8],"radio_events":[17959.39999985695,19667.599999904633,21225.89999985695,22349.89999985695,23225.099999904633,25325.099999904633,26584.700000047684,28434.5,32997.299999952316],"key_events":[],"mouse_events":[10003.599999904633,17959.39999985695,19667.599999904633,21225.89999985695,22349.89999985695,23225.099999904633,25325.099999904633,26584.700000047684,27610.200000047684,28434.5,32997.299999952316,33872.39999985695],"straightlining":0.6666666666666666,"zigzagging":0.375,"honeypot":0,"survey":"pcf","trial_type":"survey-template","trial_index":4,"time_elapsed":168809,"internal_node_id":"0.0-4.0","experiment":"validation","task_version":"2.0","jspsych_version":"6.3.1","infrequency":0},{"value":0,"trial_type":"call-function","trial_index":5,"time_elapsed":168813,"internal_node_id":"0.0-5.0","experiment":"validation","task_version":"2.0","jspsych_version":"6.3.1","interactions":"[{\"event\":\"blur\",\"trial\":2,\"time\":24879},{\"event\":\"focus\",\"trial\":2,\"time\":37384},{\"event\":\"blur\",\"trial\":2,\"time\":40179},{\"event\":\"focus\",\"trial\":2,\"time\":43100},{\"event\":\"blur\",\"trial\":2,\"time\":46522},{\"event\":\"focus\",\"trial\":2,\"time\":55216},{\"event\":\"blur\",\"trial\":2,\"time\":63592},{\"event\":\"focus\",\"trial\":2,\"time\":64995},{\"event\":\"blur\",\"trial\":3,\"time\":106992},{\"event\":\"focus\",\"trial\":3,\"time\":112804},{\"event\":\"blur\",\"trial\":4,\"time\":140992},{\"event\":\"focus\",\"trial\":4,\"time\":144779},{\"event\":\"blur\",\"trial\":4,\"time\":149084},{\"event\":\"focus\",\"trial\":4,\"time\":150716}]"}]