[{"view_history":[{"page_index":0,"viewing_time":9860}],"rt":9860.59999999404,"trial_type":"instructions","trial_index":0,"time_elapsed":9877,"internal_node_id":"0.0-0.0","experiment":"validation","task_version":"1.1","jspsych_version":"6.3.1"},{"rt":8772.09999999404,"responses":{"age":"48","gender-categorical":"Male","gender-free-response":"","ethnicity":"Not Hispanic or Latino","race":["White"],"education":"Bachelor degree"},"survey":"demographics","trial_type":"survey-demo","trial_index":1,"time_elapsed":18652,"internal_node_id":"0.0-1.0","experiment":"validation","task_version":"1.1","jspsych_version":"6.3.1"},{"responses":{"Q05":"0","Q06":"3","Q11":"0","Q10":"4","Q03":"3","Q04":"2","Q07":"3","Q09":"1","Q02":"2","Q01":"3","Q08":"3"},"rt":26479.09999999404,"item_order":[4,5,10,9,2,3,6,8,1,0,7],"radio_events":[4500.5,7430.0999999940395,9580.59999999404,11667.899999976158,13097.59999999404,15734.299999982119,17263.899999976158,19877.899999976158,21707.399999976158,23825.899999976158,25674.899999976158],"key_events":[],"mouse_events":[4500.5,7430.0999999940395,9580.59999999404,10909.299999982119,11667.899999976158,13097.59999999404,15734.299999982119,17263.899999976158,19227.899999976158,19877.899999976158,21707.399999976158,23369.899999976158,23825.899999976158,25674.899999976158,26477.69999998808],"straightlining":0.2727272727272727,"zigzagging":0.5,"honeypot":0,"survey":"openness","trial_type":"survey-template","trial_index":2,"time_elapsed":45136,"internal_node_id":"0.0-2.0","experiment":"validation","task_version":"1.1","jspsych_version":"6.3.1","infrequency":0},{"responses":{"Q05":"3","Q07":"2","Q02":"3","Q06":"3","Q01":"2","Q03":"2","Q04":"1"},"rt":27342.40000000596,"item_order":[4,6,1,5,0,2,3],"radio_events":[5777.100000023842,6867.200000017881,10725.300000011921,13088.90000000596,14519.800000011921,16915.20000001788,18134.600000023842,22093,26453.5],"key_events":[],"mouse_events":[5777.100000023842,6867.200000017881,10725.300000011921,12703.90000000596,13088.90000000596,13777.600000023842,14519.800000011921,16915.20000001788,18134.600000023842,21637.80000001192,22093,26453.5,27341.5],"straightlining":0.5714285714285714,"zigzagging":0.6666666666666666,"honeypot":0,"survey":"nfc6","trial_type":"survey-template","trial_index":3,"time_elapsed":72481,"internal_node_id":"0.0-3.0","experiment":"validation","task_version":"1.1","jspsych_version":"6.3.1","infrequency":0},{"responses":{"Q09":"3","Q08":"2","Q07":"1","Q05":"3","Q11":"4","Q02":"1","Q03":"0","Q06":"3","Q04":"1","Q01":"0","Q10":"2"},"rt":22121.19999998808,"item_order":[8,7,6,4,10,1,2,5,3,0,9],"radio_events":[3476.399999976158,4294.299999982119,5723.699999988079,7431.199999988079,9195.09999999404,10951.199999988079,14164.899999976158,15989.09999999404,17169.69999998808,19653.29999998212,21486.399999976158],"key_events":[],"mouse_events":[2400.199999988079,3476.399999976158,4294.299999982119,5723.699999988079,7431.199999988079,9195.09999999404,10951.199999988079,14164.899999976158,15989.09999999404,17169.69999998808,19653.29999998212,21486.399999976158,22119.79999998212],"straightlining":0.36363636363636365,"zigzagging":0.6,"honeypot":0,"survey":"neuroticism","trial_type":"survey-template","trial_index":4,"time_elapsed":94606,"internal_node_id":"0.0-4.0","experiment":"validation","task_version":"1.1","jspsych_version":"6.3.1","infrequency":0},{"value":[0,1.2077922077922079,1.7666666666666666],"trial_type":"call-function","trial_index":5,"time_elapsed":94607,"internal_node_id":"0.0-5.0","experiment":"validation","task_version":"1.1","jspsych_version":"6.3.1","interactions":"[{\"event\":\"blur\",\"trial\":0,\"time\":4269},{\"event\":\"focus\",\"trial\":0,\"time\":5225},{\"event\":\"blur\",\"trial\":0,\"time\":7823},{\"event\":\"focus\",\"trial\":0,\"time\":8876}]"}]