[{"view_history":[{"page_index":0,"viewing_time":1739.9000000059605}],"rt":1740.5,"trial_type":"instructions","trial_index":0,"time_elapsed":1792,"internal_node_id":"0.0-0.0","experiment":"validation","task_version":"1.1","jspsych_version":"6.3.1"},{"rt":9641.30000000447,"responses":{"age":"26","gender-categorical":"Male","gender-free-response":"","ethnicity":"Not Hispanic or Latino","race":["Asian"],"education":"Bachelor degree"},"survey":"demographics","trial_type":"survey-demo","trial_index":1,"time_elapsed":11438,"internal_node_id":"0.0-1.0","experiment":"validation","task_version":"1.1","jspsych_version":"6.3.1"},{"responses":{"Q05":"1","Q09":"1","Q03":"1","Q02":"1","Q11":"4","Q07":"2","Q01":"0","Q08":"3","Q04":"0","Q06":"1","Q10":"1"},"rt":35519.5,"item_order":[4,8,2,1,10,6,0,7,3,5,9],"radio_events":[10638.5,11931.79999999702,14332.09999999404,16542.59999999404,18487,24421.5,27269.19999999553,28294.69999999553,29359.79999999702,31842,34733.79999999702],"key_events":[],"mouse_events":[7231.5999999940395,9190.19999999553,9795.89999999851,10015.19999999553,10638.5,11931.79999999702,14332.09999999404,15592.79999999702,16542.59999999404,18487,21209.59999999404,22086.09999999404,23355.89999999851,24421.5,26522.29999999702,27269.19999999553,28294.69999999553,29359.79999999702,31842,34733.79999999702,35516.19999999553],"straightlining":0.36363636363636365,"zigzagging":0.2,"honeypot":0,"survey":"neuroticism","trial_type":"survey-template","trial_index":2,"time_elapsed":46970,"internal_node_id":"0.0-2.0","experiment":"validation","task_version":"1.1","jspsych_version":"6.3.1","infrequency":0},{"responses":{"Q03":"3","Q07":"2","Q01":"3","Q06":"3","Q05":"3","Q04":"3","Q02":"3"},"rt":20105.60000000149,"item_order":[2,6,0,5,4,3,1],"radio_events":[5029.70000000298,6491.80000000447,11188.5,14094.60000000149,15201.20000000298,17592.60000000149,18969.10000000149],"key_events":[],"mouse_events":[3909.4000000059605,5029.70000000298,6491.80000000447,11188.5,13092,14094.60000000149,15201.20000000298,17592.60000000149,18969.10000000149,20104],"straightlining":0.5714285714285714,"zigzagging":0.3333333333333333,"honeypot":0,"survey":"nfc6","trial_type":"survey-template","trial_index":3,"time_elapsed":67085,"internal_node_id":"0.0-3.0","experiment":"validation","task_version":"1.1","jspsych_version":"6.3.1","infrequency":0},{"responses":{"Q10":"4","Q09":"0","Q01":"1","Q07":"2","Q02":"3","Q04":"1","Q03":"4","Q11":"0","Q05":"1","Q06":"2","Q08":"2"},"rt":40806.19999999553,"item_order":[9,8,0,6,1,3,2,10,4,5,7],"radio_events":[3046.1999999955297,8163.5,16481.39999999851,21375.89999999851,25550.69999999553,26695.69999999553,28308.19999999553,30046.5,32849.5,34838.69999999553,39123.59999999404,39965.09999999404],"key_events":[],"mouse_events":[3046.1999999955297,5216,8163.5,15528.29999999702,16481.39999999851,21375.89999999851,24700.89999999851,25550.69999999553,26695.69999999553,28308.19999999553,30046.5,32849.5,34838.69999999553,36662.59999999404,38350.09999999404,39123.59999999404,39965.09999999404,40804.19999999553],"straightlining":0.2727272727272727,"zigzagging":0.6,"honeypot":0,"survey":"openness","trial_type":"survey-template","trial_index":4,"time_elapsed":107898,"internal_node_id":"0.0-4.0","experiment":"validation","task_version":"1.1","jspsych_version":"6.3.1","infrequency":0},{"value":[0,1.2077922077922079,1.1333333333333333],"trial_type":"call-function","trial_index":5,"time_elapsed":107904,"internal_node_id":"0.0-5.0","experiment":"validation","task_version":"1.1","jspsych_version":"6.3.1","interactions":"[]"}]