[{"view_history":[{"page_index":0,"viewing_time":2209.6999999284744}],"rt":2209.899999976158,"trial_type":"instructions","trial_index":0,"time_elapsed":2278,"internal_node_id":"0.0-0.0","experiment":"validation","task_version":"1.1","jspsych_version":"6.3.1"},{"rt":14938,"responses":{"age":"26","gender-categorical":"Female","gender-free-response":"","ethnicity":"Not Hispanic or Latino","race":["White"],"education":"Bachelor degree"},"survey":"demographics","trial_type":"survey-demo","trial_index":1,"time_elapsed":17220,"internal_node_id":"0.0-1.0","experiment":"validation","task_version":"1.1","jspsych_version":"6.3.1"},{"responses":{"Q02":"2","Q01":"2","Q04":"3","Q07":"2","Q06":"3","Q03":"3","Q05":"2"},"rt":52979.10000002384,"item_order":[1,0,3,6,5,2,4],"radio_events":[26771.699999928474,30323.100000023842,31864.299999952316,33739.89999997616,40888.199999928474,45425.89999997616,51887],"key_events":[],"mouse_events":[25266.899999976158,26771.699999928474,30323.100000023842,31864.299999952316,33739.89999997616,40888.199999928474,44443.299999952316,45425.89999997616,49781.799999952316,50601.199999928474,51538.39999997616,51887,52977.5],"straightlining":0.5714285714285714,"zigzagging":0.6666666666666666,"honeypot":0,"survey":"nfc6","trial_type":"survey-template","trial_index":2,"time_elapsed":70203,"internal_node_id":"0.0-2.0","experiment":"validation","task_version":"1.1","jspsych_version":"6.3.1","infrequency":0},{"responses":{"Q06":"3","Q11":"0","Q01":"4","Q03":"4","Q08":"1","Q09":"4","Q05":"1","Q04":"2","Q10":"4","Q02":"2","Q07":"4"},"rt":29360,"item_order":[5,10,0,2,7,8,4,3,9,1,6],"radio_events":[7840,9414.300000071526,11049.200000047684,12364.800000071526,15441.399999976158,19547.300000071526,21007.200000047684,23175.100000023842,24487.700000047684,26423.399999976158,27593.600000023842],"key_events":[],"mouse_events":[7840,9414.300000071526,11049.200000047684,12364.800000071526,15441.399999976158,17628.899999976158,18706.600000023842,19547.300000071526,21007.200000047684,23175.100000023842,24487.700000047684,26423.399999976158,27593.600000023842,28625.5,29358.200000047684],"straightlining":0.36363636363636365,"zigzagging":0.4,"honeypot":0,"survey":"openness","trial_type":"survey-template","trial_index":3,"time_elapsed":99567,"internal_node_id":"0.0-3.0","experiment":"validation","task_version":"1.1","jspsych_version":"6.3.1","infrequency":0},{"responses":{"Q04":"2","Q05":"2","Q07":"4","Q01":"3","Q06":"2","Q03":"2","Q10":"3","Q09":"3","Q02":"1","Q08":"2","Q11":"4"},"rt":26083.199999928474,"item_order":[3,4,6,0,5,2,9,8,1,7,10],"radio_events":[4720.599999904633,6885,9450.299999952316,10629.799999952316,12941.799999952316,15611.299999952316,18113.199999928474,19667,21055.299999952316,22831,25273.799999952316],"key_events":[],"mouse_events":[4720.599999904633,6885,8430.599999904633,9450.299999952316,10629.799999952316,12941.799999952316,15611.299999952316,18113.199999928474,19667,21055.299999952316,22831,25273.799999952316,26081.399999976158],"straightlining":0.45454545454545453,"zigzagging":0.3,"honeypot":0,"survey":"neuroticism","trial_type":"survey-template","trial_index":4,"time_elapsed":125655,"internal_node_id":"0.0-4.0","experiment":"validation","task_version":"1.1","jspsych_version":"6.3.1","infrequency":0},{"value":[0,1.3896103896103895,1.3666666666666667],"trial_type":"call-function","trial_index":5,"time_elapsed":125657,"internal_node_id":"0.0-5.0","experiment":"validation","task_version":"1.1","jspsych_version":"6.3.1","interactions":"[]"}]