[{"view_history":[{"page_index":0,"viewing_time":16734.700000047684}],"rt":16735.600000023842,"trial_type":"instructions","trial_index":0,"time_elapsed":16781,"internal_node_id":"0.0-0.0","experiment":"validation","task_version":"1.1","jspsych_version":"6.3.1"},{"rt":13517.200000047684,"responses":{"age":"38","gender-categorical":"Male","gender-free-response":"","ethnicity":"Not Hispanic or Latino","race":["White"],"education":"Master degree or higher"},"survey":"demographics","trial_type":"survey-demo","trial_index":1,"time_elapsed":30302,"internal_node_id":"0.0-1.0","experiment":"validation","task_version":"1.1","jspsych_version":"6.3.1"},{"responses":{"Q09":"1","Q07":"1","Q01":"0","Q02":"0","Q05":"0","Q06":"4","Q08":"1","Q03":"2","Q04":"1","Q11":"3","Q10":"1"},"rt":25524.299999952316,"item_order":[8,6,0,1,4,5,7,2,3,10,9],"radio_events":[7546.100000023842,8498.799999952316,11538,12649.799999952316,13737.899999976158,14882,17113.700000047684,20009.799999952316,22338,23857.799999952316,24793.799999952316],"key_events":[],"mouse_events":[6122.100000023842,7546.100000023842,8498.799999952316,11538,12649.799999952316,13737.899999976158,14882,17113.700000047684,20009.799999952316,22338,23857.799999952316,24793.799999952316,25521.899999976158],"straightlining":0.45454545454545453,"zigzagging":0.2,"honeypot":0,"survey":"neuroticism","trial_type":"survey-template","trial_index":2,"time_elapsed":55832,"internal_node_id":"0.0-2.0","experiment":"validation","task_version":"1.1","jspsych_version":"6.3.1","infrequency":0},{"responses":{"Q06":"2","Q08":"3","Q05":"1","Q01":"3","Q04":"1","Q11":"0","Q10":"1","Q02":"2","Q03":"1","Q09":"2","Q07":"2"},"rt":23914.899999976158,"item_order":[5,7,4,0,3,10,9,1,2,8,6],"radio_events":[3673.1999999284744,5305.199999928474,6769.5,7977.199999928474,9249.099999904633,11361.199999928474,14241.099999904633,15849.099999904633,17617.099999904633,19657.299999952316,23025.099999904633],"key_events":[],"mouse_events":[3673.1999999284744,5305.199999928474,6769.5,7977.199999928474,9249.099999904633,11361.199999928474,14241.099999904633,15849.099999904633,17617.099999904633,19657.299999952316,23025.099999904633,23913.299999952316],"straightlining":0.36363636363636365,"zigzagging":0.4,"honeypot":0,"survey":"openness","trial_type":"survey-template","trial_index":3,"time_elapsed":79750,"internal_node_id":"0.0-3.0","experiment":"validation","task_version":"1.1","jspsych_version":"6.3.1","infrequency":0},{"responses":{"Q05":"3","Q07":"2","Q01":"3","Q03":"1","Q04":"3","Q06":"3","Q02":"3"},"rt":21916.400000095367,"item_order":[4,6,0,2,3,5,1],"radio_events":[3203.100000023842,7187.100000023842,8915,10634.900000095367,15691.100000023842,18843.400000095367,21043.300000071526],"key_events":[],"mouse_events":[3203.100000023842,7187.100000023842,8915,10634.900000095367,15691.100000023842,18843.400000095367,21043.300000071526,21915.100000023842],"straightlining":0.7142857142857143,"zigzagging":0.3333333333333333,"honeypot":0,"survey":"nfc6","trial_type":"survey-template","trial_index":4,"time_elapsed":101669,"internal_node_id":"0.0-4.0","experiment":"validation","task_version":"1.1","jspsych_version":"6.3.1","infrequency":0},{"value":[0,1.5324675324675323,0.9333333333333333],"trial_type":"call-function","trial_index":5,"time_elapsed":101672,"internal_node_id":"0.0-5.0","experiment":"validation","task_version":"1.1","jspsych_version":"6.3.1","interactions":"[]"}]