[{"view_history":[{"page_index":0,"viewing_time":1734.9000000953674}],"rt":1735.3000001907349,"trial_type":"instructions","trial_index":0,"time_elapsed":1743,"internal_node_id":"0.0-0.0","experiment":"validation","task_version":"2.0","jspsych_version":"6.3.1"},{"rt":14086.099999904633,"responses":{"age":"19","gender-categorical":"Female","gender-free-response":"","ethnicity":"Not Hispanic or Latino","race":["White"],"education":"Some college"},"survey":"demographics","trial_type":"survey-demo","trial_index":1,"time_elapsed":15832,"internal_node_id":"0.0-1.0","experiment":"validation","task_version":"2.0","jspsych_version":"6.3.1"},{"responses":{"Q03":"3","Q05":"1","Q07":"3","Q09":"2","Q01":"1","Q11":"0","Q10":"1","Q02":"2","Q06":"3","Q04":"1","Q08":"2"},"rt":75037.2999997139,"item_order":[2,4,6,8,0,10,9,1,5,3,7],"radio_events":[7771.799999713898,12565.199999809265,15137.699999809265,20083.599999904633,23067.199999809265,29175,36240.90000009537,50131.90000009537,54973,61345.40000009537,71265.90000009537,72928.69999980927,74051.59999990463],"key_events":[],"mouse_events":[4482.400000095367,6240.400000095367,7771.799999713898,12565.199999809265,15137.699999809265,20083.599999904633,23067.199999809265,29175,36240.90000009537,50131.90000009537,54973,61345.40000009537,71265.90000009537,72928.69999980927,74051.59999990463,75034.69999980927],"straightlining":0.36363636363636365,"zigzagging":0.7,"honeypot":0,"survey":"nfc10","trial_type":"survey-template","trial_index":2,"time_elapsed":90873,"internal_node_id":"0.0-2.0","experiment":"validation","task_version":"2.0","jspsych_version":"6.3.1","infrequency":0},{"responses":{"Q05":"0","Q09":"4","Q01":"4","Q04":"2","Q02":"3","Q03":"2","Q08":"3","Q06":"1","Q07":"4"},"rt":40742,"item_order":[4,8,0,3,1,2,7,5,6],"radio_events":[4382.800000190735,5834.400000095367,9464.900000095367,14393.099999904633,19081.599999904633,20742.599999904633,25414.800000190735,28358.900000095367,37013.199999809265,39489.90000009537],"key_events":[],"mouse_events":[4382.800000190735,5834.400000095367,9464.900000095367,14393.099999904633,19081.599999904633,20742.599999904633,25414.800000190735,28358.900000095367,35779.199999809265,37013.199999809265,39489.90000009537,40740],"straightlining":0.2222222222222222,"zigzagging":0.5,"honeypot":0,"survey":"pcf","trial_type":"survey-template","trial_index":3,"time_elapsed":131617,"internal_node_id":"0.0-3.0","experiment":"validation","task_version":"2.0","jspsych_version":"6.3.1","infrequency":0},{"rt":32131.199999809265,"response":{"Q1":0,"Q4":4,"Q7":3,"Q6":0,"Q2":0,"Q8":0,"Q0":0,"Q5":5,"Q3":1},"question_order":[1,4,7,6,2,8,0,5,3],"survey":"sns","trial_type":"survey-likert","trial_index":4,"time_elapsed":163752,"internal_node_id":"0.0-4.0","experiment":"validation","task_version":"2.0","jspsych_version":"6.3.1","infrequency":0},{"value":0,"trial_type":"call-function","trial_index":5,"time_elapsed":163753,"internal_node_id":"0.0-5.0","experiment":"validation","task_version":"2.0","jspsych_version":"6.3.1","interactions":"[]"}]