[{"view_history":[{"page_index":0,"viewing_time":1830.7999999523163}],"rt":1831.2000000476837,"trial_type":"instructions","trial_index":0,"time_elapsed":1852,"internal_node_id":"0.0-0.0","experiment":"validation","task_version":"1.1","jspsych_version":"6.3.1"},{"rt":18504.5,"responses":{"age":"23","gender-categorical":"Female","gender-free-response":"","ethnicity":"Not Hispanic or Latino","race":["Asian","White"],"education":"Some college"},"survey":"demographics","trial_type":"survey-demo","trial_index":1,"time_elapsed":20360,"internal_node_id":"0.0-1.0","experiment":"validation","task_version":"1.1","jspsych_version":"6.3.1"},{"responses":{"Q06":"3","Q05":"4","Q07":"3","Q11":"4","Q09":"3","Q08":"1","Q04":"3","Q03":"1","Q10":"0","Q02":"1","Q01":"3"},"rt":30943.5,"item_order":[5,4,6,10,8,7,3,2,9,1,0],"radio_events":[10336.5,13433.700000047684,15812.099999904633,17336,19660.700000047684,21665.900000095367,23469.799999952316,25241.5,26774.799999952316,28610.400000095367,30254.299999952316],"key_events":[],"mouse_events":[10336.5,13433.700000047684,15812.099999904633,17336,19660.700000047684,21665.900000095367,23469.799999952316,25241.5,26774.799999952316,28610.400000095367,30254.299999952316,30938.400000095367],"straightlining":0.45454545454545453,"zigzagging":0,"honeypot":0,"survey":"neuroticism","trial_type":"survey-template","trial_index":2,"time_elapsed":51311,"internal_node_id":"0.0-2.0","experiment":"validation","task_version":"1.1","jspsych_version":"6.3.1","infrequency":0},{"responses":{"Q07":"4","Q01":"4","Q10":"4","Q05":"0","Q03":"2","Q04":"2","Q06":"4","Q02":"4","Q09":"4","Q11":"0","Q08":"4"},"rt":26363.10000014305,"item_order":[6,0,9,4,2,3,5,1,8,10,7],"radio_events":[2911.7000000476837,4986,7052.400000095367,8521.5,15554.100000143051,16856.5,19422.700000047684,20773.10000014305,21973.400000095367,23365.700000047684,25461],"key_events":[],"mouse_events":[2911.7000000476837,4986,7052.400000095367,8521.5,10536.299999952316,15554.100000143051,16856.5,19422.700000047684,20773.10000014305,21973.400000095367,23365.700000047684,25461,26359],"straightlining":0.5454545454545454,"zigzagging":0.5,"honeypot":0,"survey":"openness","trial_type":"survey-template","trial_index":3,"time_elapsed":77679,"internal_node_id":"0.0-3.0","experiment":"validation","task_version":"1.1","jspsych_version":"6.3.1","infrequency":0},{"responses":{"Q04":"3","Q03":"3","Q02":"3","Q01":"3","Q07":"2","Q05":"1","Q06":"2"},"rt":33286.5,"item_order":[3,2,1,0,6,4,5],"radio_events":[8349.400000095367,10295.299999952316,13188.100000143051,14373.600000143051,16715.5,23359.60000014305,32441.200000047684],"key_events":[],"mouse_events":[8349.400000095367,10295.299999952316,13188.100000143051,14373.600000143051,16715.5,23359.60000014305,32441.200000047684,33283.5],"straightlining":0.42857142857142855,"zigzagging":0.5,"honeypot":0,"survey":"nfc6","trial_type":"survey-template","trial_index":4,"time_elapsed":110968,"internal_node_id":"0.0-4.0","experiment":"validation","task_version":"1.1","jspsych_version":"6.3.1","infrequency":0},{"value":[0,1.4285714285714286,1],"trial_type":"call-function","trial_index":5,"time_elapsed":110972,"internal_node_id":"0.0-5.0","experiment":"validation","task_version":"1.1","jspsych_version":"6.3.1","interactions":"[]"}]