[{"view_history":[{"page_index":0,"viewing_time":2970.5}],"rt":2970.7000000029802,"trial_type":"instructions","trial_index":0,"time_elapsed":2989,"internal_node_id":"0.0-0.0","experiment":"validation","task_version":"2.0","jspsych_version":"6.3.1"},{"rt":17288.300000000745,"responses":{"age":"48","gender-categorical":"Male","gender-free-response":"","ethnicity":"Not Hispanic or Latino","race":["White"],"education":"Associate degree"},"survey":"demographics","trial_type":"survey-demo","trial_index":1,"time_elapsed":20279,"internal_node_id":"0.0-1.0","experiment":"validation","task_version":"2.0","jspsych_version":"6.3.1"},{"rt":35489.900000002235,"response":{"Q0":3,"Q7":5,"Q4":4,"Q3":4,"Q2":4,"Q5":5,"Q6":0,"Q1":4,"Q8":0},"question_order":[0,7,4,3,2,5,6,1,8],"survey":"sns","trial_type":"survey-likert","trial_index":2,"time_elapsed":55774,"internal_node_id":"0.0-2.0","experiment":"validation","task_version":"2.0","jspsych_version":"6.3.1","infrequency":0},{"responses":{"Q06":"3","Q10":"3","Q11":"0","Q01":"3","Q08":"4","Q05":"4","Q03":"4","Q07":"3","Q04":"4","Q09":"3","Q02":"4"},"rt":54854.39999999851,"item_order":[5,9,10,0,7,4,2,6,3,8,1],"radio_events":[5835.300000000745,11737,16007.10000000149,18994.39999999851,24025.39999999851,27399.699999999255,31281.39999999851,32771,39594.800000000745,43193.60000000149,45016.300000000745,47621,53652.300000000745],"key_events":[],"mouse_events":[5315.800000000745,5835.300000000745,10411.60000000149,11737,15460.800000000745,16007.10000000149,18994.39999999851,24025.39999999851,27399.699999999255,31281.39999999851,32771,39594.800000000745,43193.60000000149,45016.300000000745,47621,53652.300000000745,54852.89999999851],"straightlining":0.45454545454545453,"zigzagging":0.3,"honeypot":0,"survey":"nfc10","trial_type":"survey-template","trial_index":3,"time_elapsed":110631,"internal_node_id":"0.0-3.0","experiment":"validation","task_version":"2.0","jspsych_version":"6.3.1","infrequency":0},{"responses":{"Q08":"3","Q03":"3","Q05":"3","Q02":"3","Q01":"3","Q06":"4","Q07":"4","Q04":"3","Q09":"4"},"rt":26924.20000000298,"item_order":[7,2,4,1,0,5,6,3,8],"radio_events":[2555.2000000029802,9113,9763.10000000149,11491,13819.300000000745,17571.300000000745,19265.300000000745,24496.900000002235,25489.400000002235],"key_events":[],"mouse_events":[2555.2000000029802,7387.60000000149,8603,9113,9763.10000000149,11491,12385.400000002235,13819.300000000745,17571.300000000745,18856,19265.300000000745,22467.10000000149,24496.900000002235,25489.400000002235,26923.20000000298],"straightlining":0.6666666666666666,"zigzagging":0.25,"honeypot":0,"survey":"pcf","trial_type":"survey-template","trial_index":4,"time_elapsed":137559,"internal_node_id":"0.0-4.0","experiment":"validation","task_version":"2.0","jspsych_version":"6.3.1","infrequency":0},{"value":0,"trial_type":"call-function","trial_index":5,"time_elapsed":137561,"internal_node_id":"0.0-5.0","experiment":"validation","task_version":"2.0","jspsych_version":"6.3.1","interactions":"[]"}]