[{"view_history":[{"page_index":0,"viewing_time":3010.8000000715256}],"rt":3011.2000000476837,"trial_type":"instructions","trial_index":0,"time_elapsed":3019,"internal_node_id":"0.0-0.0","experiment":"validation","task_version":"1.1","jspsych_version":"6.3.1"},{"rt":13325.5,"responses":{"age":"32","gender-categorical":"Male","gender-free-response":"","ethnicity":"Hispanic or Latino","race":["White"],"education":"Bachelor degree"},"survey":"demographics","trial_type":"survey-demo","trial_index":1,"time_elapsed":16348,"internal_node_id":"0.0-1.0","experiment":"validation","task_version":"1.1","jspsych_version":"6.3.1"},{"responses":{"Q03":"3","Q04":"3","Q02":"3","Q01":"3","Q06":"3","Q07":"2","Q05":"4"},"rt":102567.09999990463,"item_order":[2,3,1,0,5,6,4],"radio_events":[4062.2999999523163,7733.5,13195.699999928474,88014.19999992847,91689.39999997616,95591.59999990463,101467.69999992847],"key_events":[],"mouse_events":[4062.2999999523163,7733.5,12211.699999928474,13195.699999928474,88014.19999992847,91689.39999997616,95591.59999990463,96493.69999992847,100923.19999992847,101467.69999992847,102565.5],"straightlining":0.42857142857142855,"zigzagging":0.16666666666666666,"honeypot":0,"survey":"nfc6","trial_type":"survey-template","trial_index":2,"time_elapsed":118921,"internal_node_id":"0.0-2.0","experiment":"validation","task_version":"1.1","jspsych_version":"6.3.1","infrequency":0},{"responses":{"Q08":"2","Q11":"4","Q07":"3","Q03":"3","Q09":"1","Q02":"2","Q04":"3","Q01":"3","Q10":"4","Q05":"3","Q06":"3"},"rt":37488.699999928474,"item_order":[7,10,6,2,8,1,3,0,9,4,5],"radio_events":[9002.5,12194.799999952316,14876.899999976158,16322.399999976158,17678.600000023842,19272.699999928474,21645,27254.899999976158,29664.899999976158,33178.5,34331.39999997616],"key_events":[],"mouse_events":[9002.5,10716.699999928474,11578.600000023842,12194.799999952316,14876.899999976158,16322.399999976158,17678.600000023842,19272.699999928474,21645,25432.899999976158,26708.5,27254.899999976158,28874.299999952316,29664.899999976158,31803,32568.899999976158,33178.5,34331.39999997616,37486.89999997616],"straightlining":0.45454545454545453,"zigzagging":0.2,"honeypot":0,"survey":"neuroticism","trial_type":"survey-template","trial_index":3,"time_elapsed":156416,"internal_node_id":"0.0-3.0","experiment":"validation","task_version":"1.1","jspsych_version":"6.3.1","infrequency":0},{"responses":{"Q03":"0","Q08":"3","Q05":"1","Q10":"0","Q07":"1","Q04":"2","Q11":"0","Q01":"1","Q06":"3","Q09":"1","Q02":"1"},"rt":59267.39999997616,"item_order":[2,7,4,9,6,3,10,0,5,8,1],"radio_events":[8295.399999976158,23065.600000023842,25796.200000047684,28099.800000071526,31653.5,39683.39999997616,41807.60000002384,44633.700000047684,47267.39999997616,50321.39999997616,54182,56339.5],"key_events":[],"mouse_events":[5719.899999976158,7549.100000023842,8295.399999976158,22279.600000023842,23065.600000023842,25796.200000047684,28099.800000071526,30895.399999976158,31653.5,39153.39999997616,39683.39999997616,41807.60000002384,44633.700000047684,47267.39999997616,50321.39999997616,54182,56339.5,59265.60000002384],"straightlining":0.36363636363636365,"zigzagging":0.5,"honeypot":0,"survey":"openness","trial_type":"survey-template","trial_index":4,"time_elapsed":215688,"internal_node_id":"0.0-4.0","experiment":"validation","task_version":"1.1","jspsych_version":"6.3.1","infrequency":0},{"value":[0,1.2467532467532467,0.8666666666666667],"trial_type":"call-function","trial_index":5,"time_elapsed":215691,"internal_node_id":"0.0-5.0","experiment":"validation","task_version":"1.1","jspsych_version":"6.3.1","interactions":"[{\"event\":\"blur\",\"trial\":2,\"time\":66226},{\"event\":\"focus\",\"trial\":2,\"time\":88635}]"}]