[{"view_history":[{"page_index":0,"viewing_time":1988.7000000001863}],"rt":1988.9000000003725,"trial_type":"instructions","trial_index":0,"time_elapsed":2000,"internal_node_id":"0.0-0.0","experiment":"validation","task_version":"1.1","jspsych_version":"6.3.1"},{"rt":13310.700000000186,"responses":{"age":"26","gender-categorical":"Male","gender-free-response":"","ethnicity":"Not Hispanic or Latino","race":["White"],"education":"Some college"},"survey":"demographics","trial_type":"survey-demo","trial_index":1,"time_elapsed":15313,"internal_node_id":"0.0-1.0","experiment":"validation","task_version":"1.1","jspsych_version":"6.3.1"},{"responses":{"Q05":"0","Q03":"4","Q08":"3","Q07":"4","Q11":"0","Q01":"4","Q06":"3","Q10":"4","Q09":"4","Q02":"3","Q04":"2"},"rt":38885.700000000186,"item_order":[4,2,7,6,10,0,5,9,8,1,3],"radio_events":[6740.4000000003725,7108.700000000186,10244.5,12180.5,13812.5,15892.600000000559,19740.60000000056,21028.700000000186,24268.60000000056,24980.300000000745,28236.5,30900.5,34972],"key_events":[],"mouse_events":[5420.4000000003725,6740.4000000003725,7108.700000000186,10244.5,12180.5,13812.5,15892.600000000559,19740.60000000056,21028.700000000186,23132.700000000186,24268.60000000056,24980.300000000745,28236.5,30900.5,34972,38884.5],"straightlining":0.36363636363636365,"zigzagging":0.4,"honeypot":0,"survey":"openness","trial_type":"survey-template","trial_index":2,"time_elapsed":54202,"internal_node_id":"0.0-2.0","experiment":"validation","task_version":"1.1","jspsych_version":"6.3.1","infrequency":0},{"responses":{"Q04":"0","Q10":"4","Q11":"4","Q01":"3","Q09":"2","Q08":"3","Q05":"3","Q03":"3","Q02":"4","Q07":"3","Q06":"0"},"rt":33669.299999999814,"item_order":[3,9,10,0,8,7,4,2,1,6,5],"radio_events":[3268.2999999998137,4132.299999999814,6684.199999999255,7852.299999999814,14076.299999999814,16724.199999999255,19460.199999999255,20468.199999999255,21684,29084.199999999255,30723.89999999944,33299.89999999944],"key_events":[],"mouse_events":[3268.2999999998137,4132.299999999814,5764.199999999255,6684.199999999255,7852.299999999814,14076.299999999814,16724.199999999255,19460.199999999255,20468.199999999255,21684,28492.299999999814,29084.199999999255,30723.89999999944,33299.89999999944,33668.299999999814],"straightlining":0.2727272727272727,"zigzagging":0.5,"honeypot":0,"survey":"neuroticism","trial_type":"survey-template","trial_index":3,"time_elapsed":87874,"internal_node_id":"0.0-3.0","experiment":"validation","task_version":"1.1","jspsych_version":"6.3.1","infrequency":0},{"responses":{"Q06":"0","Q05":"0","Q02":"0","Q07":"2","Q01":"0","Q04":"1","Q03":"1"},"rt":34997.59999999963,"item_order":[5,4,1,6,0,3,2],"radio_events":[14573,19452.700000000186,22516.89999999944,24804.89999999944,28021,31076.89999999944,34340.799999999814],"key_events":[],"mouse_events":[14573,19452.700000000186,22516.89999999944,24364.89999999944,24804.89999999944,27181,27564.799999999814,28021,31076.89999999944,34340.799999999814,34996.89999999944],"straightlining":0.5714285714285714,"zigzagging":0,"honeypot":0,"survey":"nfc6","trial_type":"survey-template","trial_index":4,"time_elapsed":122874,"internal_node_id":"0.0-4.0","experiment":"validation","task_version":"1.1","jspsych_version":"6.3.1","infrequency":0},{"value":[0,1.2077922077922079,0.9],"trial_type":"call-function","trial_index":5,"time_elapsed":122875,"internal_node_id":"0.0-5.0","experiment":"validation","task_version":"1.1","jspsych_version":"6.3.1","interactions":"[]"}]