[{"view_history":[{"page_index":0,"viewing_time":6267.79999999702}],"rt":6268.79999999702,"trial_type":"instructions","trial_index":0,"time_elapsed":6271,"internal_node_id":"0.0-0.0","experiment":"validation","task_version":"1.1","jspsych_version":"6.3.1"},{"rt":36220.60000000894,"responses":{"age":"30","gender-categorical":"Male","gender-free-response":"","ethnicity":"Not Hispanic or Latino","race":["Black or African American"],"education":"Bachelor degree"},"survey":"demographics","trial_type":"survey-demo","trial_index":1,"time_elapsed":42494,"internal_node_id":"0.0-1.0","experiment":"validation","task_version":"1.1","jspsych_version":"6.3.1"},{"responses":{"Q08":"0","Q02":"0","Q10":"0","Q09":"1","Q07":"3","Q06":"3","Q04":"1","Q11":"4","Q01":"1","Q03":"1","Q05":"0"},"rt":87707.09999999404,"item_order":[7,1,9,8,6,5,3,10,0,2,4],"radio_events":[41397,44388.20000000298,45713.40000000596,54318.70000000298,55773.40000000596,65722.20000000298,66044.09999999404,68096.29999999702,72060.79999999702,78791.79999999702,81059.79999999702,86539.90000000596],"key_events":[],"mouse_events":[41397,42671.59999999404,44388.20000000298,45713.40000000596,53123.5,54318.70000000298,55773.40000000596,65722.20000000298,66044.09999999404,68096.29999999702,69742.20000000298,72060.79999999702,75532.70000000298,78791.79999999702,81059.79999999702,85847.40000000596,86539.90000000596,87705.29999999702],"straightlining":0.45454545454545453,"zigzagging":0.4,"honeypot":0,"survey":"neuroticism","trial_type":"survey-template","trial_index":2,"time_elapsed":130206,"internal_node_id":"0.0-2.0","experiment":"validation","task_version":"1.1","jspsych_version":"6.3.1","infrequency":0},{"responses":{"Q04":"0","Q06":"4","Q08":"4","Q11":"0","Q02":"3","Q10":"0","Q01":"4","Q07":"4","Q09":"4","Q05":"0","Q03":"4"},"rt":361639.299999997,"item_order":[3,5,7,10,1,9,0,6,8,4,2],"radio_events":[163191.09999999404,164786.59999999404,305476.200000003,307655.09999999404,312959.299999997,318276.799999997,326246.89999999106,339173.200000003,340276.799999997,351419.5,355253.59999999404],"key_events":[],"mouse_events":[161906.29999999702,163191.09999999404,164786.59999999404,167235.29999999702,303398.299999997,305476.200000003,307655.09999999404,310736.39999999106,312035.89999999106,312959.299999997,318276.799999997,326246.89999999106,327953.5,339173.200000003,340276.799999997,351419.5,353326.5,355253.59999999404,361636.59999999404],"straightlining":0.45454545454545453,"zigzagging":0.4,"honeypot":0,"survey":"openness","trial_type":"survey-template","trial_index":3,"time_elapsed":491849,"internal_node_id":"0.0-3.0","experiment":"validation","task_version":"1.1","jspsych_version":"6.3.1","infrequency":0},{"responses":{"Q04":"4","Q05":"4","Q02":"3","Q06":"4","Q03":"0","Q07":"2","Q01":"3"},"rt":108536.40000000596,"item_order":[3,4,1,5,2,6,0],"radio_events":[73001.70000000298,75573.20000000298,84839.60000000894,85943.60000000894,92890.5,101203.60000000894,107340.40000000596],"key_events":[],"mouse_events":[73001.70000000298,75573.20000000298,79148.20000000298,82490.70000000298,83975.90000000596,84839.60000000894,85943.60000000894,88636.70000000298,92890.5,94215.40000000596,100250.29999999702,101203.60000000894,102969.90000000596,106577.70000000298,107340.40000000596,108534.79999999702],"straightlining":0.42857142857142855,"zigzagging":0.6666666666666666,"honeypot":0,"survey":"nfc6","trial_type":"survey-template","trial_index":4,"time_elapsed":600390,"internal_node_id":"0.0-4.0","experiment":"validation","task_version":"1.1","jspsych_version":"6.3.1","infrequency":0},{"value":[0,1.3376623376623376,1.4666666666666668],"trial_type":"call-function","trial_index":5,"time_elapsed":600391,"internal_node_id":"0.0-5.0","experiment":"validation","task_version":"1.1","jspsych_version":"6.3.1","interactions":"[{\"event\":\"blur\",\"trial\":4,\"time\":494569},{\"event\":\"focus\",\"trial\":4,\"time\":498400}]"}]