[{"view_history":[{"page_index":0,"viewing_time":1515.5}],"rt":1515.7000000476837,"trial_type":"instructions","trial_index":0,"time_elapsed":1548,"internal_node_id":"0.0-0.0","experiment":"validation","task_version":"2.0","jspsych_version":"6.3.1"},{"rt":9110.699999928474,"responses":{"age":"22","gender-categorical":"Female","gender-free-response":"","ethnicity":"Not Hispanic or Latino","race":["White"],"education":"Associate degree"},"survey":"demographics","trial_type":"survey-demo","trial_index":1,"time_elapsed":10660,"internal_node_id":"0.0-1.0","experiment":"validation","task_version":"2.0","jspsych_version":"6.3.1"},{"responses":{"Q03":"3","Q04":"4","Q08":"3","Q02":"3","Q09":"4","Q06":"4","Q01":"3","Q05":"2","Q07":"4"},"rt":30429.800000071526,"item_order":[2,3,7,1,8,5,0,4,6],"radio_events":[4413.100000023842,8132.899999976158,11212.700000047684,15236.899999976158,19029,22628.899999976158,24372.899999976158,26172.800000071526,29132.700000047684],"key_events":[],"mouse_events":[4413.100000023842,8132.899999976158,11212.700000047684,15236.899999976158,19029,22628.899999976158,24372.899999976158,26172.800000071526,29132.700000047684,30428.899999976158],"straightlining":0.4444444444444444,"zigzagging":0.625,"honeypot":0,"survey":"pcf","trial_type":"survey-template","trial_index":2,"time_elapsed":41093,"internal_node_id":"0.0-2.0","experiment":"validation","task_version":"2.0","jspsych_version":"6.3.1","infrequency":0},{"responses":{"Q03":"3","Q05":"4","Q10":"2","Q01":"2","Q07":"3","Q06":"3","Q11":"0","Q02":"4","Q04":"3","Q09":"3","Q08":"3"},"rt":63630.200000047684,"item_order":[2,4,9,0,6,5,10,1,3,8,7],"radio_events":[5020.700000047684,9140.799999952316,18980.899999976158,20404.899999976158,23532.799999952316,27020.799999952316,30180.799999952316,34892.799999952316,53220.799999952316,57468.89999997616,60572.700000047684,63044.89999997616],"key_events":[],"mouse_events":[5020.700000047684,9140.799999952316,18980.899999976158,20404.899999976158,23532.799999952316,27020.799999952316,30180.799999952316,34892.799999952316,53220.799999952316,57468.89999997616,60572.700000047684,63044.89999997616,63629.10000002384],"straightlining":0.36363636363636365,"zigzagging":0.3,"honeypot":0,"survey":"nfc10","trial_type":"survey-template","trial_index":3,"time_elapsed":104726,"internal_node_id":"0.0-3.0","experiment":"validation","task_version":"2.0","jspsych_version":"6.3.1","infrequency":0},{"rt":65571.89999997616,"response":{"Q7":4,"Q6":0,"Q8":0,"Q5":3,"Q1":1,"Q3":3,"Q4":4,"Q0":1,"Q2":1},"question_order":[7,6,8,5,1,3,4,0,2],"survey":"sns","trial_type":"survey-likert","trial_index":4,"time_elapsed":170303,"internal_node_id":"0.0-4.0","experiment":"validation","task_version":"2.0","jspsych_version":"6.3.1","infrequency":0},{"value":0,"trial_type":"call-function","trial_index":5,"time_elapsed":170305,"internal_node_id":"0.0-5.0","experiment":"validation","task_version":"2.0","jspsych_version":"6.3.1","interactions":"[{\"event\":\"blur\",\"trial\":4,\"time\":129863},{\"event\":\"focus\",\"trial\":4,\"time\":141836}]"}]