[{"view_history":[{"page_index":0,"viewing_time":3480.199999988079}],"rt":3480.5999999940395,"trial_type":"instructions","trial_index":0,"time_elapsed":3498,"internal_node_id":"0.0-0.0","experiment":"validation","task_version":"2.0","jspsych_version":"6.3.1"},{"rt":12057.79999999702,"responses":{"age":"41","gender-categorical":"Male","gender-free-response":"","ethnicity":"Not Hispanic or Latino","race":["White"],"education":"Master degree or higher"},"survey":"demographics","trial_type":"survey-demo","trial_index":1,"time_elapsed":15559,"internal_node_id":"0.0-1.0","experiment":"validation","task_version":"2.0","jspsych_version":"6.3.1"},{"responses":{"Q08":"4","Q01":"3","Q02":"3","Q03":"4","Q04":"3","Q05":"3","Q09":"4","Q07":"4","Q06":"3"},"rt":63579.29999999702,"item_order":[7,0,1,2,3,4,8,6,5],"radio_events":[5113.79999999702,5752.5999999940395,13345.79999999702,17650.40000000596,18697.29999999702,28382,30246.59999999404,37052.90000000596,49013.20000000298,57028.79999999702],"key_events":[],"mouse_events":[5113.79999999702,5752.5999999940395,12474.79999999702,13345.79999999702,16781.29999999702,17650.40000000596,18697.29999999702,26022.79999999702,27135.29999999702,28382,30246.59999999404,37052.90000000596,49013.20000000298,56245.40000000596,57028.79999999702,63575.5],"straightlining":0.5555555555555556,"zigzagging":0.625,"honeypot":0,"survey":"pcf","trial_type":"survey-template","trial_index":2,"time_elapsed":79147,"internal_node_id":"0.0-2.0","experiment":"validation","task_version":"2.0","jspsych_version":"6.3.1","infrequency":0},{"rt":40469.70000000298,"response":{"Q8":0,"Q1":4,"Q4":5,"Q6":0,"Q2":5,"Q7":5,"Q0":5,"Q5":4,"Q3":5},"question_order":[8,1,4,6,2,7,0,5,3],"survey":"sns","trial_type":"survey-likert","trial_index":3,"time_elapsed":119627,"internal_node_id":"0.0-3.0","experiment":"validation","task_version":"2.0","jspsych_version":"6.3.1","infrequency":0},{"responses":{"Q06":"3","Q11":"0","Q04":"2","Q08":"0","Q09":"3","Q07":"3","Q03":"4","Q01":"3","Q05":"4","Q10":"2","Q02":"2"},"rt":76606.5,"item_order":[5,10,3,7,8,6,2,0,4,9,1],"radio_events":[6448.4000000059605,15373.70000000298,23144.30000001192,25527.70000000298,30368.10000000894,34156.5,39033,43530.5,45722.10000000894,54980.10000000894,58440.30000001192,71463.30000001192,75113.70000000298],"key_events":[],"mouse_events":[6448.4000000059605,14277.90000000596,15373.70000000298,23144.30000001192,25527.70000000298,30368.10000000894,33534.10000000894,34156.5,39033,43530.5,45722.10000000894,54980.10000000894,58440.30000001192,69139.70000000298,71463.30000001192,75113.70000000298,76602.40000000596],"straightlining":0.36363636363636365,"zigzagging":0,"honeypot":0,"survey":"nfc10","trial_type":"survey-template","trial_index":4,"time_elapsed":196241,"internal_node_id":"0.0-4.0","experiment":"validation","task_version":"2.0","jspsych_version":"6.3.1","infrequency":0},{"value":0,"trial_type":"call-function","trial_index":5,"time_elapsed":196248,"internal_node_id":"0.0-5.0","experiment":"validation","task_version":"2.0","jspsych_version":"6.3.1","interactions":"[]"}]