[{"view_history":[{"page_index":0,"viewing_time":3575}],"rt":3575.6000000089407,"trial_type":"instructions","trial_index":0,"time_elapsed":3593,"internal_node_id":"0.0-0.0","experiment":"validation","task_version":"1.1","jspsych_version":"6.3.1"},{"rt":11290.39999999106,"responses":{"age":"32","gender-categorical":"Female","gender-free-response":"","ethnicity":"Not Hispanic or Latino","race":["Asian","White"],"education":"Master degree or higher"},"survey":"demographics","trial_type":"survey-demo","trial_index":1,"time_elapsed":14889,"internal_node_id":"0.0-1.0","experiment":"validation","task_version":"1.1","jspsych_version":"6.3.1"},{"responses":{"Q03":"3","Q07":"2","Q01":"3","Q06":"3","Q05":"4","Q02":"4","Q04":"3"},"rt":72544.70000000298,"item_order":[2,6,0,5,4,1,3],"radio_events":[11523.90000000596,13862.20000000298,21067.10000000894,25024.60000000894,33607.20000000298,42440.70000000298,47511.5,52512.70000000298,71477.20000000298],"key_events":[],"mouse_events":[11523.90000000596,13862.20000000298,21067.10000000894,25024.60000000894,33607.20000000298,42440.70000000298,47511.5,52512.70000000298,71477.20000000298,72540.5],"straightlining":0.2857142857142857,"zigzagging":0.5,"honeypot":0,"survey":"nfc6","trial_type":"survey-template","trial_index":2,"time_elapsed":87442,"internal_node_id":"0.0-2.0","experiment":"validation","task_version":"1.1","jspsych_version":"6.3.1","infrequency":0},{"responses":{"Q10":"4","Q06":"3","Q02":"3","Q05":"1","Q04":"0","Q01":"4","Q07":"4","Q11":"0","Q03":"4","Q09":"4","Q08":"3"},"rt":56079.90000000596,"item_order":[9,5,1,4,3,0,6,10,2,8,7],"radio_events":[8290.70000000298,14293.29999999702,18604.20000000298,20631.5,31701.20000000298,33214.79999999702,34916,37333.70000000298,40019.60000000894,45747.5,49343.20000000298,52740.70000000298,54658.79999999702],"key_events":[],"mouse_events":[8290.70000000298,14293.29999999702,18604.20000000298,20631.5,31701.20000000298,33214.79999999702,34107.40000000596,34916,37333.70000000298,40019.60000000894,45747.5,49343.20000000298,52740.70000000298,54658.79999999702,56076.60000000894],"straightlining":0.36363636363636365,"zigzagging":0.6,"honeypot":0,"survey":"openness","trial_type":"survey-template","trial_index":3,"time_elapsed":143528,"internal_node_id":"0.0-3.0","experiment":"validation","task_version":"1.1","jspsych_version":"6.3.1","infrequency":0},{"responses":{"Q08":"0","Q01":"1","Q02":"0","Q05":"0","Q10":"2","Q07":"1","Q09":"1","Q04":"1","Q11":"4","Q06":"1","Q03":"1"},"rt":45844.5,"item_order":[7,0,1,4,9,6,8,3,10,5,2],"radio_events":[12107.20000000298,16520.79999999702,17793.20000000298,20951.70000000298,24525.29999999702,26987.40000000596,31178.20000000298,36425.59999999404,38649.79999999702,39988.5,42794.79999999702,44736.59999999404],"key_events":[],"mouse_events":[12107.20000000298,15238.70000000298,16520.79999999702,17793.20000000298,20951.70000000298,24525.29999999702,26987.40000000596,31178.20000000298,36425.59999999404,38649.79999999702,39988.5,42794.79999999702,44736.59999999404,45841.40000000596],"straightlining":0.2727272727272727,"zigzagging":0.3,"honeypot":0,"survey":"neuroticism","trial_type":"survey-template","trial_index":4,"time_elapsed":189378,"internal_node_id":"0.0-4.0","experiment":"validation","task_version":"1.1","jspsych_version":"6.3.1","infrequency":0},{"value":[0,0.922077922077922,1.4000000000000001],"trial_type":"call-function","trial_index":5,"time_elapsed":189382,"internal_node_id":"0.0-5.0","experiment":"validation","task_version":"1.1","jspsych_version":"6.3.1","interactions":"[{\"event\":\"blur\",\"trial\":2,\"time\":37394},{\"event\":\"focus\",\"trial\":2,\"time\":37518},{\"event\":\"blur\",\"trial\":2,\"time\":38302},{\"event\":\"focus\",\"trial\":2,\"time\":39022}]"}]