[{"view_history":[{"page_index":0,"viewing_time":8828}],"rt":8829,"trial_type":"instructions","trial_index":0,"time_elapsed":8848,"internal_node_id":"0.0-0.0","experiment":"validation","task_version":"1.1","jspsych_version":"6.3.1"},{"rt":32262,"responses":{"age":"28","gender-categorical":"Female","gender-free-response":"","ethnicity":"Not Hispanic or Latino","race":["Black or African American"],"education":"Master degree or higher"},"survey":"demographics","trial_type":"survey-demo","trial_index":1,"time_elapsed":41139,"internal_node_id":"0.0-1.0","experiment":"validation","task_version":"1.1","jspsych_version":"6.3.1"},{"responses":{"Q03":"1","Q05":"3","Q07":"2","Q04":"1","Q02":"2","Q06":"2","Q01":"1"},"rt":49752,"item_order":[2,4,6,3,1,5,0],"radio_events":[15108,33565,37885,39781,40748,42629,47616],"key_events":[],"mouse_events":[15108,28344,33565,37885,39781,40748,42629,44014,47616,49751],"straightlining":0.42857142857142855,"zigzagging":0.6666666666666666,"honeypot":0,"survey":"nfc6","trial_type":"survey-template","trial_index":2,"time_elapsed":90906,"internal_node_id":"0.0-2.0","experiment":"validation","task_version":"1.1","jspsych_version":"6.3.1","infrequency":0},{"responses":{"Q06":"2","Q07":"0","Q11":"4","Q03":"0","Q08":"0","Q04":"3","Q01":"3","Q09":"1","Q10":"0","Q02":"0","Q05":"1"},"rt":52472,"item_order":[5,6,10,2,7,3,0,8,9,1,4],"radio_events":[3647,10573,13676,20718,22958,25838,31081,32389,34743,39662,42190,43742,46784,49433],"key_events":[],"mouse_events":[3647,10573,13676,20718,22958,25838,29391,31081,32389,34743,37173,39662,42190,43742,46784,49433,52471],"straightlining":0.36363636363636365,"zigzagging":0.6,"honeypot":0,"survey":"neuroticism","trial_type":"survey-template","trial_index":3,"time_elapsed":143399,"internal_node_id":"0.0-3.0","experiment":"validation","task_version":"1.1","jspsych_version":"6.3.1","infrequency":0},{"responses":{"Q06":"2","Q01":"4","Q05":"0","Q11":"0","Q04":"0","Q02":"4","Q09":"3","Q03":"2","Q08":"3","Q07":"4","Q10":"2"},"rt":72268,"item_order":[5,0,4,10,3,1,8,2,7,6,9],"radio_events":[18211,19931,24134,29272,30463,35078,39672,44254,46540,51533,69445],"key_events":[],"mouse_events":[6438,14763,15956,18211,19931,21654,24134,29272,30463,35078,39672,42612,44254,46540,50247,51030,51533,52697,61641,69445,72268],"straightlining":0.36363636363636365,"zigzagging":0.5,"honeypot":0,"survey":"openness","trial_type":"survey-template","trial_index":4,"time_elapsed":215685,"internal_node_id":"0.0-4.0","experiment":"validation","task_version":"1.1","jspsych_version":"6.3.1","infrequency":0},{"value":[0,1.155844155844156,1.7666666666666666],"trial_type":"call-function","trial_index":5,"time_elapsed":215697,"internal_node_id":"0.0-5.0","experiment":"validation","task_version":"1.1","jspsych_version":"6.3.1","interactions":"[{\"event\":\"focus\",\"trial\":0,\"time\":6},{\"event\":\"blur\",\"trial\":2,\"time\":60417},{\"event\":\"focus\",\"trial\":2,\"time\":69389},{\"event\":\"blur\",\"trial\":4,\"time\":143872},{\"event\":\"focus\",\"trial\":4,\"time\":149785}]"}]