[{"view_history":[{"page_index":0,"viewing_time":4098.299999998882}],"rt":4100,"trial_type":"instructions","trial_index":0,"time_elapsed":4136,"internal_node_id":"0.0-0.0","experiment":"validation","task_version":"1.1","jspsych_version":"6.3.1"},{"rt":7880.9000000003725,"responses":{"age":"38","gender-categorical":"Male","gender-free-response":"","ethnicity":"Not Hispanic or Latino","race":["White"],"education":"Master degree or higher"},"survey":"demographics","trial_type":"survey-demo","trial_index":1,"time_elapsed":12025,"internal_node_id":"0.0-1.0","experiment":"validation","task_version":"1.1","jspsych_version":"6.3.1"},{"responses":{"Q06":"0","Q05":"1","Q02":"0","Q04":"0","Q01":"0","Q07":"2","Q03":"0"},"rt":18065,"item_order":[5,4,1,3,0,6,2],"radio_events":[4150.5,8446.199999999255,11518.099999999627,13222,15102,16678,17509.900000000373],"key_events":[],"mouse_events":[4150.5,7576.199999999255,8022.299999998882,8446.199999999255,11518.099999999627,12822.299999998882,13222,14613.599999999627,14677.699999999255,15102,16174.400000000373,16678,17509.900000000373,18062.900000000373],"straightlining":0.42857142857142855,"zigzagging":0.6666666666666666,"honeypot":0,"survey":"nfc6","trial_type":"survey-template","trial_index":2,"time_elapsed":30113,"internal_node_id":"0.0-2.0","experiment":"validation","task_version":"1.1","jspsych_version":"6.3.1","infrequency":0},{"responses":{"Q09":"3","Q10":"1","Q07":"3","Q04":"1","Q08":"4","Q11":"0","Q06":"4","Q01":"3","Q02":"3","Q03":"1","Q05":"0"},"rt":18260,"item_order":[8,9,6,3,7,10,5,0,1,2,4],"radio_events":[2210.199999999255,3458.0999999996275,5026.4000000003725,6851.199999999255,10138.599999999627,10754,12329.599999999627,13530.199999999255,14361.599999999627,16049.699999999255,17809.699999999255],"key_events":[],"mouse_events":[2210.199999999255,3458.0999999996275,5026.4000000003725,6851.199999999255,8794,10138.599999999627,10754,12329.599999999627,13530.199999999255,14361.599999999627,16049.699999999255,17809.699999999255,18257.900000000373],"straightlining":0.36363636363636365,"zigzagging":0,"honeypot":0,"survey":"openness","trial_type":"survey-template","trial_index":3,"time_elapsed":48378,"internal_node_id":"0.0-3.0","experiment":"validation","task_version":"1.1","jspsych_version":"6.3.1","infrequency":0},{"responses":{"Q08":"0","Q09":"4","Q05":"0","Q10":"0","Q03":"0","Q06":"0","Q07":"0","Q01":"0","Q04":"0","Q11":"0","Q02":"0"},"rt":16954.300000000745,"item_order":[7,8,4,9,2,5,6,0,3,10,1],"radio_events":[3487.9000000003725,4512.5,5216.0999999996275,6471.800000000745,7631.5,8295.599999999627,10551.800000000745,11551.599999999627,13015.900000000373,15487.599999999627,16295.700000001118],"key_events":[],"mouse_events":[3487.9000000003725,4512.5,5216.0999999996275,6471.800000000745,7631.5,8295.599999999627,10551.800000000745,11551.599999999627,13015.900000000373,14400,15487.599999999627,15983.900000000373,16295.700000001118,16951.800000000745],"straightlining":0.6363636363636364,"zigzagging":0.5,"honeypot":0,"survey":"neuroticism","trial_type":"survey-template","trial_index":4,"time_elapsed":65337,"internal_node_id":"0.0-4.0","experiment":"validation","task_version":"1.1","jspsych_version":"6.3.1","infrequency":1},{"value":[1,1.4285714285714284,1.1666666666666665],"trial_type":"call-function","trial_index":5,"time_elapsed":65340,"internal_node_id":"0.0-5.0","experiment":"validation","task_version":"1.1","jspsych_version":"6.3.1","interactions":"[]"}]