[{"view_history":[{"page_index":0,"viewing_time":4540.799999952316}],"rt":4541.400000095367,"trial_type":"instructions","trial_index":0,"time_elapsed":4547,"internal_node_id":"0.0-0.0","experiment":"validation","task_version":"1.1","jspsych_version":"6.3.1"},{"rt":16874.200000047684,"responses":{"age":"50","gender-categorical":"Male","gender-free-response":"","ethnicity":"Not Hispanic or Latino","race":["Black or African American"],"education":"Bachelor degree"},"survey":"demographics","trial_type":"survey-demo","trial_index":1,"time_elapsed":21424,"internal_node_id":"0.0-1.0","experiment":"validation","task_version":"1.1","jspsych_version":"6.3.1"},{"responses":{"Q05":"0","Q08":"1","Q03":"0","Q10":"2","Q11":"4","Q09":"2","Q01":"0","Q06":"2","Q07":"1","Q04":"0","Q02":"0"},"rt":58979.09999990463,"item_order":[4,7,2,9,10,8,0,5,6,3,1],"radio_events":[29317.299999952316,32317.400000095367,37161,38313.200000047684,40479.200000047684,43671.09999990463,48805.200000047684,52139.09999990463,54499.09999990463,56343.200000047684,58051.09999990463],"key_events":[],"mouse_events":[29317.299999952316,32317.400000095367,35616.700000047684,37161,37933.299999952316,38313.200000047684,40479.200000047684,43671.09999990463,48805.200000047684,52139.09999990463,54499.09999990463,56343.200000047684,58051.09999990463,58977.09999990463],"straightlining":0.45454545454545453,"zigzagging":0.1,"honeypot":0,"survey":"neuroticism","trial_type":"survey-template","trial_index":2,"time_elapsed":80408,"internal_node_id":"0.0-2.0","experiment":"validation","task_version":"1.1","jspsych_version":"6.3.1","infrequency":0},{"responses":{"Q06":"4","Q04":"4","Q02":"4","Q03":"4","Q07":"2","Q01":"4","Q05":"4"},"rt":43965.299999952316,"item_order":[5,3,1,2,6,0,4],"radio_events":[13476.200000047684,16142,25434.099999904633,28776,31072.099999904633,33608.299999952316,36398.09999990463,40026],"key_events":[],"mouse_events":[13476.200000047684,16142,25434.099999904633,28776,31072.099999904633,33608.299999952316,36398.09999990463,40026,43964.200000047684],"straightlining":0.5714285714285714,"zigzagging":0.5,"honeypot":0,"survey":"nfc6","trial_type":"survey-template","trial_index":3,"time_elapsed":124376,"internal_node_id":"0.0-3.0","experiment":"validation","task_version":"1.1","jspsych_version":"6.3.1","infrequency":0},{"responses":{"Q08":"4","Q03":"4","Q04":"2","Q02":"1","Q11":"0","Q10":"4","Q09":"1","Q07":"2","Q01":"2","Q05":"1","Q06":"4"},"rt":44507.5,"item_order":[7,2,3,1,10,9,8,6,0,4,5],"radio_events":[9781.799999952316,14427.799999952316,18309.700000047684,21321.799999952316,23749.700000047684,25891.700000047684,29245.599999904633,31319.700000047684,36163.90000009537,37975.799999952316,41027.700000047684],"key_events":[],"mouse_events":[9781.799999952316,14427.799999952316,18309.700000047684,20495.900000095367,21321.799999952316,23749.700000047684,25891.700000047684,29245.599999904633,31319.700000047684,36163.90000009537,37975.799999952316,41027.700000047684,44505.799999952316],"straightlining":0.36363636363636365,"zigzagging":0.5,"honeypot":0,"survey":"openness","trial_type":"survey-template","trial_index":4,"time_elapsed":168888,"internal_node_id":"0.0-4.0","experiment":"validation","task_version":"1.1","jspsych_version":"6.3.1","infrequency":0},{"value":[0,1.3896103896103895,1.1],"trial_type":"call-function","trial_index":5,"time_elapsed":168890,"internal_node_id":"0.0-5.0","experiment":"validation","task_version":"1.1","jspsych_version":"6.3.1","interactions":"[]"}]