[{"view_history":[{"page_index":0,"viewing_time":2761.4000000003725}],"rt":2761.7000000001863,"trial_type":"instructions","trial_index":0,"time_elapsed":2926,"internal_node_id":"0.0-0.0","experiment":"validation","task_version":"2.0","jspsych_version":"6.3.1"},{"rt":12213.5,"responses":{"age":"60","gender-categorical":"Female","gender-free-response":"","ethnicity":"Not Hispanic or Latino","race":["White"],"education":"Bachelor degree"},"survey":"demographics","trial_type":"survey-demo","trial_index":1,"time_elapsed":15142,"internal_node_id":"0.0-1.0","experiment":"validation","task_version":"2.0","jspsych_version":"6.3.1"},{"rt":35618.299999999814,"response":{"Q6":0,"Q7":5,"Q1":4,"Q2":5,"Q4":4,"Q5":5,"Q8":0,"Q3":5,"Q0":3},"question_order":[6,7,1,2,4,5,8,3,0],"survey":"sns","trial_type":"survey-likert","trial_index":2,"time_elapsed":50766,"internal_node_id":"0.0-2.0","experiment":"validation","task_version":"2.0","jspsych_version":"6.3.1","infrequency":0},{"responses":{"Q04":"4","Q03":"4","Q11":"0","Q06":"0","Q08":"4","Q05":"4","Q02":"3","Q01":"3","Q10":"4","Q07":"3","Q09":"3"},"rt":40603,"item_order":[3,2,10,5,7,4,1,0,9,6,8],"radio_events":[12348.19999999972,13776.19999999972,16270,20089.799999999814,22619.899999999907,25437.899999999907,29485.899999999907,32060,34577.69999999972,38248.09999999963,39512.09999999963],"key_events":[],"mouse_events":[12348.19999999972,13776.19999999972,16270,20089.799999999814,22619.899999999907,25437.899999999907,29485.899999999907,32060,34577.69999999972,38248.09999999963,39512.09999999963,40600.39999999991],"straightlining":0.45454545454545453,"zigzagging":0.4,"honeypot":0,"survey":"nfc10","trial_type":"survey-template","trial_index":3,"time_elapsed":91375,"internal_node_id":"0.0-3.0","experiment":"validation","task_version":"2.0","jspsych_version":"6.3.1","infrequency":0},{"responses":{"Q03":"4","Q04":"3","Q01":"4","Q06":"4","Q07":"4","Q09":"4","Q02":"4","Q05":"4","Q08":"3"},"rt":52888.200000000186,"item_order":[2,3,0,5,6,8,1,4,7],"radio_events":[8126.5,10332.299999999814,12506.200000000186,16008.299999999814,17630.299999999814,21700.100000000093,24388.100000000093,29296.299999999814,31244.299999999814,35812.5,38344.299999999814,39496.299999999814,40580.5,41930.799999999814,47868.299999999814,51436.39999999991],"key_events":[],"mouse_events":[8126.5,10332.299999999814,12506.200000000186,16008.299999999814,17630.299999999814,21700.100000000093,24388.100000000093,29296.299999999814,31244.299999999814,32913.39999999991,35812.5,37440.700000000186,38344.299999999814,39496.299999999814,40580.5,41930.799999999814,44630,47868.299999999814,51436.39999999991,52886],"straightlining":0.6666666666666666,"zigzagging":0.625,"honeypot":0,"survey":"pcf","trial_type":"survey-template","trial_index":4,"time_elapsed":144266,"internal_node_id":"0.0-4.0","experiment":"validation","task_version":"2.0","jspsych_version":"6.3.1","infrequency":0},{"value":0,"trial_type":"call-function","trial_index":5,"time_elapsed":144268,"internal_node_id":"0.0-5.0","experiment":"validation","task_version":"2.0","jspsych_version":"6.3.1","interactions":"[{\"event\":\"blur\",\"trial\":3,\"time\":56764},{\"event\":\"focus\",\"trial\":3,\"time\":59410}]"}]