[{"view_history":[{"page_index":0,"viewing_time":2488.60000000149}],"rt":2489.10000000149,"trial_type":"instructions","trial_index":0,"time_elapsed":2511,"internal_node_id":"0.0-0.0","experiment":"validation","task_version":"2.0","jspsych_version":"6.3.1"},{"rt":10383.19999999553,"responses":{"age":"24","gender-categorical":"Male","gender-free-response":"","ethnicity":"Not Hispanic or Latino","race":["Black or African American"],"education":"Some college"},"survey":"demographics","trial_type":"survey-demo","trial_index":1,"time_elapsed":12898,"internal_node_id":"0.0-1.0","experiment":"validation","task_version":"2.0","jspsych_version":"6.3.1"},{"responses":{"Q05":"1","Q01":"1","Q07":"1","Q11":"0","Q02":"0","Q10":"1","Q06":"0","Q03":"1","Q08":"0","Q09":"0","Q04":"0"},"rt":51747.30000000447,"item_order":[4,0,6,10,1,9,5,2,7,8,3],"radio_events":[9347,19362.20000000298,22404.30000000447,27297.5,31826.5,33560.80000000447,36916.10000000149,40718.5,42481.60000000149,45270.30000000447,46912.60000000149,51004.30000000447],"key_events":[],"mouse_events":[5077.5,6776.39999999851,7525.20000000298,9347,18343.10000000149,18948.70000000298,19362.20000000298,22010.30000000447,22404.30000000447,27297.5,31826.5,33560.80000000447,36383,36916.10000000149,40718.5,42481.60000000149,45270.30000000447,46912.60000000149,47410.39999999851,48837.39999999851,51004.30000000447,51744.5],"straightlining":0.45454545454545453,"zigzagging":0.4,"honeypot":0,"survey":"nfc10","trial_type":"survey-template","trial_index":2,"time_elapsed":64654,"internal_node_id":"0.0-2.0","experiment":"validation","task_version":"2.0","jspsych_version":"6.3.1","infrequency":0},{"rt":62806,"response":{"Q6":1,"Q0":3,"Q2":5,"Q4":3,"Q7":4,"Q1":4,"Q5":4,"Q3":5,"Q8":0},"question_order":[6,0,2,4,7,1,5,3,8],"survey":"sns","trial_type":"survey-likert","trial_index":3,"time_elapsed":127469,"internal_node_id":"0.0-3.0","experiment":"validation","task_version":"2.0","jspsych_version":"6.3.1","infrequency":0},{"responses":{"Q01":"2","Q02":"3","Q05":"2","Q07":"3","Q04":"1","Q08":"4","Q06":"3","Q09":"4","Q03":"3"},"rt":42714.89999999851,"item_order":[0,1,4,6,3,7,5,8,2],"radio_events":[4846.29999999702,6871,8274.70000000298,9747.89999999851,10964.79999999702,14845.89999999851,17341.10000000149,33174.5,34751.89999999851,41015.10000000149],"key_events":[],"mouse_events":[3550.10000000149,4846.29999999702,6871,8274.70000000298,9747.89999999851,10964.79999999702,14845.89999999851,17341.10000000149,31958.79999999702,33174.5,34751.89999999851,40294.89999999851,41015.10000000149,42712.60000000149],"straightlining":0.4444444444444444,"zigzagging":0.5,"honeypot":0,"survey":"pcf","trial_type":"survey-template","trial_index":4,"time_elapsed":170191,"internal_node_id":"0.0-4.0","experiment":"validation","task_version":"2.0","jspsych_version":"6.3.1","infrequency":0},{"value":0,"trial_type":"call-function","trial_index":5,"time_elapsed":170196,"internal_node_id":"0.0-5.0","experiment":"validation","task_version":"2.0","jspsych_version":"6.3.1","interactions":"[{\"event\":\"blur\",\"trial\":2,\"time\":14406},{\"event\":\"focus\",\"trial\":2,\"time\":15425},{\"event\":\"blur\",\"trial\":2,\"time\":16196},{\"event\":\"focus\",\"trial\":2,\"time\":17779},{\"event\":\"focus\",\"trial\":2,\"time\":17780},{\"event\":\"blur\",\"trial\":2,\"time\":26794},{\"event\":\"focus\",\"trial\":2,\"time\":26886},{\"event\":\"blur\",\"trial\":2,\"time\":27486},{\"event\":\"focus\",\"trial\":2,\"time\":27535},{\"event\":\"blur\",\"trial\":2,\"time\":27791},{\"event\":\"focus\",\"trial\":2,\"time\":27869},{\"event\":\"blur\",\"trial\":3,\"time\":72393},{\"event\":\"focus\",\"trial\":3,\"time\":72869},{\"event\":\"blur\",\"trial\":3,\"time\":87408},{\"event\":\"focus\",\"trial\":3,\"time\":110588}]"}]