[{"view_history":[{"page_index":0,"viewing_time":3309}],"rt":3309.4000005722046,"trial_type":"instructions","trial_index":0,"time_elapsed":3314,"internal_node_id":"0.0-0.0","experiment":"validation","task_version":"1.1","jspsych_version":"6.3.1"},{"rt":17004.79999923706,"responses":{"age":"49","gender-categorical":"Male","gender-free-response":"","ethnicity":"Not Hispanic or Latino","race":["White"],"education":"Bachelor degree"},"survey":"demographics","trial_type":"survey-demo","trial_index":1,"time_elapsed":20322,"internal_node_id":"0.0-1.0","experiment":"validation","task_version":"1.1","jspsych_version":"6.3.1"},{"responses":{"Q04":"4","Q05":"4","Q03":"4","Q07":"2","Q02":"4","Q01":"4","Q06":"4"},"rt":36842.800000190735,"item_order":[3,4,2,6,1,0,5],"radio_events":[14639.199999809265,15427.300000190735,16069.39999961853,16635,17220.89999961853,17792.5,18483,21091.199999809265,25353.199999809265,27605],"key_events":[],"mouse_events":[14638.10000038147,14639.199999809265,15426.199999809265,15427.300000190735,16068.5,16069.39999961853,16633.89999961853,16635,17220,17220.89999961853,17791.5,17792.5,18481.60000038147,18483,21090.10000038147,21091.199999809265,25352,25353.199999809265,27603.5,27605,36841.60000038147],"straightlining":0.5714285714285714,"zigzagging":0.3333333333333333,"honeypot":0,"survey":"nfc6","trial_type":"survey-template","trial_index":2,"time_elapsed":57169,"internal_node_id":"0.0-2.0","experiment":"validation","task_version":"1.1","jspsych_version":"6.3.1","infrequency":0},{"responses":{"Q08":"0","Q09":"0","Q10":"0","Q11":"4","Q03":"0","Q06":"0","Q02":"0","Q05":"0","Q01":"0","Q07":"0","Q04":"0"},"rt":23814.89999961853,"item_order":[7,8,9,10,2,5,1,4,0,6,3],"radio_events":[4230.800000190735,4824.39999961853,5838.89999961853,8912.5,11104.599999427795,14012.300000190735,16428.300000190735,17360.599999427795,18040.39999961853,20490.5,22690.39999961853],"key_events":[],"mouse_events":[4229.699999809265,4230.800000190735,4823.39999961853,4824.39999961853,5837.699999809265,5838.89999961853,6769.599999427795,8911.5,8912.5,11103.5,11104.599999427795,14011.099999427795,14012.300000190735,16427.199999809265,16428.300000190735,17359.5,17360.599999427795,18039.39999961853,18040.39999961853,20489.5,20490.5,22689.300000190735,22690.39999961853,23813.39999961853],"straightlining":0.5454545454545454,"zigzagging":0.5,"honeypot":0,"survey":"neuroticism","trial_type":"survey-template","trial_index":3,"time_elapsed":80988,"internal_node_id":"0.0-3.0","experiment":"validation","task_version":"1.1","jspsych_version":"6.3.1","infrequency":0},{"responses":{"Q07":"4","Q01":"4","Q06":"4","Q10":"4","Q09":"3","Q03":"4","Q11":"0","Q02":"2","Q08":"4","Q05":"1","Q04":"1"},"rt":25195.300000190735,"item_order":[6,0,5,9,8,2,10,1,7,4,3],"radio_events":[2921.699999809265,5057.5,7452.199999809265,9080.300000190735,10575.60000038147,13477.300000190735,17233.800000190735,19189.60000038147,20689.10000038147,23165.300000190735,24279.199999809265],"key_events":[],"mouse_events":[2920.6000003814697,2921.699999809265,5056.5,5057.5,7450.60000038147,7452.199999809265,9079.199999809265,9080.300000190735,10574.60000038147,10575.60000038147,13476.10000038147,13477.300000190735,17232.699999809265,17233.800000190735,19188.400000572205,19189.60000038147,20688,20689.10000038147,23164.199999809265,23165.300000190735,24278,24279.199999809265,25193.800000190735],"straightlining":0.45454545454545453,"zigzagging":0.4,"honeypot":0,"survey":"openness","trial_type":"survey-template","trial_index":4,"time_elapsed":106188,"internal_node_id":"0.0-4.0","experiment":"validation","task_version":"1.1","jspsych_version":"6.3.1","infrequency":0},{"value":[0,1.5714285714285714,1.2333333333333334],"trial_type":"call-function","trial_index":5,"time_elapsed":106190,"internal_node_id":"0.0-5.0","experiment":"validation","task_version":"1.1","jspsych_version":"6.3.1","interactions":"[]"}]