[{"view_history":[{"page_index":0,"viewing_time":3518.60000000149}],"rt":3518.89999999851,"trial_type":"instructions","trial_index":0,"time_elapsed":3527,"internal_node_id":"0.0-0.0","experiment":"validation","task_version":"1.1","jspsych_version":"6.3.1"},{"rt":32824.5,"responses":{"age":"35","gender-categorical":"Female","gender-free-response":"","ethnicity":"Not Hispanic or Latino","race":["White"],"education":"Some college"},"survey":"demographics","trial_type":"survey-demo","trial_index":1,"time_elapsed":36353,"internal_node_id":"0.0-1.0","experiment":"validation","task_version":"1.1","jspsych_version":"6.3.1"},{"responses":{"Q08":"2","Q07":"4","Q02":"2","Q09":"3","Q10":"4","Q05":"1","Q04":"1","Q01":"3","Q11":"0","Q03":"4","Q06":"3"},"rt":34491.39999999851,"item_order":[7,6,1,8,9,4,3,0,10,2,5],"radio_events":[7006.80000000447,9429,13276.60000000149,14944.70000000298,19344.60000000149,21636.60000000149,23960.5,25566.39999999851,28352.5,31136.5,33706.39999999851],"key_events":[],"mouse_events":[7006.80000000447,9429,13276.60000000149,14944.70000000298,19344.60000000149,21636.60000000149,23960.5,25566.39999999851,28352.5,31136.5,33706.39999999851,34490.5],"straightlining":0.2727272727272727,"zigzagging":0.3,"honeypot":0,"survey":"openness","trial_type":"survey-template","trial_index":2,"time_elapsed":70848,"internal_node_id":"0.0-2.0","experiment":"validation","task_version":"1.1","jspsych_version":"6.3.1","infrequency":0},{"responses":{"Q09":"3","Q05":"3","Q08":"2","Q01":"1","Q03":"1","Q04":"1","Q06":"2","Q10":"2","Q02":"2","Q11":"4","Q07":"2"},"rt":27105.20000000298,"item_order":[8,4,7,0,2,3,5,9,1,10,6],"radio_events":[4110.80000000447,5818.80000000447,7256.80000000447,9088.70000000298,10342.80000000447,11164.70000000298,14480.60000000149,16304.5,20026.60000000149,22350.80000000447,26042.39999999851],"key_events":[],"mouse_events":[4110.80000000447,5818.80000000447,7256.80000000447,9088.70000000298,10342.80000000447,11164.70000000298,14480.60000000149,16304.5,18050.5,20026.60000000149,22350.80000000447,23066.60000000149,26042.39999999851,27104.39999999851],"straightlining":0.45454545454545453,"zigzagging":0.3,"honeypot":0,"survey":"neuroticism","trial_type":"survey-template","trial_index":3,"time_elapsed":97955,"internal_node_id":"0.0-3.0","experiment":"validation","task_version":"1.1","jspsych_version":"6.3.1","infrequency":0},{"responses":{"Q05":"2","Q02":"3","Q06":"3","Q01":"2","Q03":"3","Q07":"2","Q04":"3"},"rt":33413.39999999851,"item_order":[4,1,5,0,2,6,3],"radio_events":[7596.89999999851,13350.89999999851,17250.89999999851,20328.89999999851,22434.89999999851,26750.79999999702,32718.60000000149],"key_events":[],"mouse_events":[7596.89999999851,13350.89999999851,17250.89999999851,20328.89999999851,22434.89999999851,26750.79999999702,32718.60000000149,33412.79999999702],"straightlining":0.42857142857142855,"zigzagging":0.8333333333333334,"honeypot":0,"survey":"nfc6","trial_type":"survey-template","trial_index":4,"time_elapsed":131371,"internal_node_id":"0.0-4.0","experiment":"validation","task_version":"1.1","jspsych_version":"6.3.1","infrequency":0},{"value":[0,1.155844155844156,1.4333333333333333],"trial_type":"call-function","trial_index":5,"time_elapsed":131372,"internal_node_id":"0.0-5.0","experiment":"validation","task_version":"1.1","jspsych_version":"6.3.1","interactions":"[]"}]