[{"view_history":[{"page_index":0,"viewing_time":7420.5}],"rt":7422.20000000298,"trial_type":"instructions","trial_index":0,"time_elapsed":7831,"internal_node_id":"0.0-0.0","experiment":"validation","task_version":"1.1","jspsych_version":"6.3.1"},{"rt":15936.60000000149,"responses":{"age":"23","gender-categorical":"Female","gender-free-response":"","ethnicity":"Not Hispanic or Latino","race":["White"],"education":"Bachelor degree"},"survey":"demographics","trial_type":"survey-demo","trial_index":1,"time_elapsed":23883,"internal_node_id":"0.0-1.0","experiment":"validation","task_version":"1.1","jspsych_version":"6.3.1"},{"responses":{"Q05":"3","Q06":"3","Q07":"2","Q04":"3","Q03":"3","Q01":"3","Q02":"3"},"rt":46856.09999999404,"item_order":[4,5,6,3,2,0,1],"radio_events":[12682.79999999702,23373.5,26544.39999999851,34033,37666,41631.39999999851,45720.09999999404],"key_events":[],"mouse_events":[12682.79999999702,23373.5,26544.39999999851,34033,37666,40974.19999999553,41631.39999999851,45720.09999999404,46800.19999999553],"straightlining":0.5714285714285714,"zigzagging":0.3333333333333333,"honeypot":0,"survey":"nfc6","trial_type":"survey-template","trial_index":2,"time_elapsed":70928,"internal_node_id":"0.0-2.0","experiment":"validation","task_version":"1.1","jspsych_version":"6.3.1","infrequency":0},{"responses":{"Q09":"3","Q02":"0","Q10":"0","Q04":"1","Q03":"1","Q05":"0","Q06":"4","Q08":"0","Q11":"4","Q01":"1","Q07":"1"},"rt":40017.40000000596,"item_order":[8,1,9,3,2,4,5,7,10,0,6],"radio_events":[7980.4000000059605,13491.70000000298,16055.60000000149,21326.60000000149,23922.70000000298,26042.40000000596,29933.80000000447,32079.10000000149,34169.20000000298,36899.80000000447,39025.70000000298],"key_events":[],"mouse_events":[7980.4000000059605,13491.70000000298,16055.60000000149,21326.60000000149,23922.70000000298,26042.40000000596,29933.80000000447,32079.10000000149,34169.20000000298,36899.80000000447,39025.70000000298,40013.5],"straightlining":0.36363636363636365,"zigzagging":0.4,"honeypot":0,"survey":"neuroticism","trial_type":"survey-template","trial_index":3,"time_elapsed":110952,"internal_node_id":"0.0-3.0","experiment":"validation","task_version":"1.1","jspsych_version":"6.3.1","infrequency":0},{"responses":{"Q10":"0","Q05":"1","Q01":"3","Q09":"3","Q11":"0","Q02":"3","Q07":"4","Q04":"1","Q03":"0","Q08":"2","Q06":"3"},"rt":46239.19999999553,"item_order":[9,4,0,8,10,1,6,3,2,7,5],"radio_events":[5108.10000000149,9297.69999999553,13959.10000000149,19480.5,22210.39999999851,28178.89999999851,31786.69999999553,35808.19999999553,38361.10000000149,42384,45312.29999999702],"key_events":[],"mouse_events":[5108.10000000149,9297.69999999553,13959.10000000149,19480.5,22210.39999999851,28178.89999999851,31786.69999999553,35808.19999999553,38361.10000000149,42384,45312.29999999702,46234.79999999702],"straightlining":0.36363636363636365,"zigzagging":0.3,"honeypot":0,"survey":"openness","trial_type":"survey-template","trial_index":4,"time_elapsed":157196,"internal_node_id":"0.0-4.0","experiment":"validation","task_version":"1.1","jspsych_version":"6.3.1","infrequency":0},{"value":[0,1.2987012987012987,1.0333333333333334],"trial_type":"call-function","trial_index":5,"time_elapsed":157292,"internal_node_id":"0.0-5.0","experiment":"validation","task_version":"1.1","jspsych_version":"6.3.1","interactions":"[]"}]