[{"view_history":[{"page_index":0,"viewing_time":1683}],"rt":1683.2999999970198,"trial_type":"instructions","trial_index":0,"time_elapsed":1705,"internal_node_id":"0.0-0.0","experiment":"validation","task_version":"1.1","jspsych_version":"6.3.1"},{"rt":13842.300000011921,"responses":{"age":"26","gender-categorical":"Female","gender-free-response":"","ethnicity":"Not Hispanic or Latino","race":["Asian","Black or African American"],"education":"Bachelor degree"},"survey":"demographics","trial_type":"survey-demo","trial_index":1,"time_elapsed":15550,"internal_node_id":"0.0-1.0","experiment":"validation","task_version":"1.1","jspsych_version":"6.3.1"},{"responses":{"Q05":"2","Q04":"1","Q07":"2","Q01":"1","Q06":"1","Q02":"1","Q03":"3"},"rt":46811.79999999702,"item_order":[4,3,6,0,5,1,2],"radio_events":[9729.20000000298,14301.10000000894,17017.20000000298,21378.90000000596,26026.90000000596,27764.79999999702,37358.60000000894,41672.79999999702,45996.60000000894],"key_events":[],"mouse_events":[9729.20000000298,14301.10000000894,17017.20000000298,21378.90000000596,26026.90000000596,27764.79999999702,37358.60000000894,41672.79999999702,45996.60000000894,46810.60000000894],"straightlining":0.5714285714285714,"zigzagging":0.5,"honeypot":0,"survey":"nfc6","trial_type":"survey-template","trial_index":2,"time_elapsed":62366,"internal_node_id":"0.0-2.0","experiment":"validation","task_version":"1.1","jspsych_version":"6.3.1","infrequency":0},{"responses":{"Q04":"3","Q07":"3","Q10":"2","Q08":"1","Q03":"2","Q02":"1","Q11":"4","Q09":"3","Q01":"2","Q05":"2","Q06":"3"},"rt":38428.29999999702,"item_order":[3,6,9,7,2,1,10,8,0,4,5],"radio_events":[6311.4000000059605,9237.29999999702,11557.5,14887.60000000894,21283.20000000298,25217.20000000298,27677.10000000894,30680.90000000596,32031.29999999702,34801.20000000298,37791],"key_events":[],"mouse_events":[6311.4000000059605,9237.29999999702,11557.5,13955.40000000596,14887.60000000894,21283.20000000298,24355.29999999702,25217.20000000298,27677.10000000894,29851.29999999702,30680.90000000596,32031.29999999702,34801.20000000298,37791,38427],"straightlining":0.36363636363636365,"zigzagging":0.6,"honeypot":0,"survey":"neuroticism","trial_type":"survey-template","trial_index":3,"time_elapsed":100798,"internal_node_id":"0.0-3.0","experiment":"validation","task_version":"1.1","jspsych_version":"6.3.1","infrequency":0},{"responses":{"Q03":"2","Q10":"2","Q06":"3","Q08":"2","Q04":"3","Q09":"3","Q01":"3","Q05":"1","Q07":"4","Q02":"3","Q11":"0"},"rt":34462.69999998808,"item_order":[2,9,5,7,3,8,0,4,6,1,10],"radio_events":[8865.5,9921.5,12497.29999999702,14801.59999999404,17627.29999999702,21173.09999999404,23401.09999999404,24767.19999998808,29851.5,30969,33706.89999999106],"key_events":[],"mouse_events":[8865.5,9921.5,12497.29999999702,14801.59999999404,17627.29999999702,20055.5,21173.09999999404,23401.09999999404,24767.19999998808,27313.39999999106,29851.5,30969,33706.89999999106,34461.19999998808],"straightlining":0.2727272727272727,"zigzagging":0.3,"honeypot":0,"survey":"openness","trial_type":"survey-template","trial_index":4,"time_elapsed":135264,"internal_node_id":"0.0-4.0","experiment":"validation","task_version":"1.1","jspsych_version":"6.3.1","infrequency":0},{"value":[0,1.2077922077922079,1.4000000000000001],"trial_type":"call-function","trial_index":5,"time_elapsed":135266,"internal_node_id":"0.0-5.0","experiment":"validation","task_version":"1.1","jspsych_version":"6.3.1","interactions":"[]"}]