[{"view_history":[{"page_index":0,"viewing_time":3497.4000000059605}],"rt":3497.9000000059605,"trial_type":"instructions","trial_index":0,"time_elapsed":3514,"internal_node_id":"0.0-0.0","experiment":"validation","task_version":"2.0","jspsych_version":"6.3.1"},{"rt":11099.300000011921,"responses":{"age":"30","gender-categorical":"Female","gender-free-response":"","ethnicity":"Not Hispanic or Latino","race":["White"],"education":"Master degree or higher"},"survey":"demographics","trial_type":"survey-demo","trial_index":1,"time_elapsed":14618,"internal_node_id":"0.0-1.0","experiment":"validation","task_version":"2.0","jspsych_version":"6.3.1"},{"responses":{"Q09":"3","Q07":"1","Q11":"0","Q08":"3","Q10":"1","Q02":"0","Q01":"1","Q06":"0","Q03":"2","Q05":"3","Q04":"1"},"rt":70357.5,"item_order":[8,6,10,7,9,1,0,5,2,4,3],"radio_events":[3987.2000000178814,9886.90000000596,11505,16528.80000001192,26440.59999999404,32556.90000000596,36895.5,38708.09999999404,45170.90000000596,48426.80000001192,52044.09999999404,58854.70000001788,64824.70000001788,69684.59999999404],"key_events":[],"mouse_events":[3987.2000000178814,9886.90000000596,10766.90000000596,11505,16528.80000001192,25880.59999999404,26440.59999999404,32556.90000000596,36895.5,38708.09999999404,45170.90000000596,47300.90000000596,48426.80000001192,52044.09999999404,58854.70000001788,64824.70000001788,69042.80000001192,69684.59999999404,70350.5],"straightlining":0.36363636363636365,"zigzagging":0.5,"honeypot":0,"survey":"nfc10","trial_type":"survey-template","trial_index":2,"time_elapsed":84983,"internal_node_id":"0.0-2.0","experiment":"validation","task_version":"2.0","jspsych_version":"6.3.1","infrequency":0},{"responses":{"Q04":"1","Q01":"2","Q07":"2","Q09":"4","Q05":"2","Q03":"2","Q08":"3","Q02":"1","Q06":"2"},"rt":34555.30000001192,"item_order":[3,0,6,8,4,2,7,1,5],"radio_events":[4948.300000011921,8513.300000011921,13047.300000011921,15619.300000011921,19552.09999999404,22061.20000001788,25049.09999999404,27067.09999999404,30937.30000001192,33909.30000001192],"key_events":[],"mouse_events":[4948.300000011921,7791.300000011921,8513.300000011921,13047.300000011921,15619.300000011921,19552.09999999404,22061.20000001788,25049.09999999404,27067.09999999404,30937.30000001192,33909.30000001192,34548.70000001788],"straightlining":0.5555555555555556,"zigzagging":0.375,"honeypot":0,"survey":"pcf","trial_type":"survey-template","trial_index":3,"time_elapsed":119544,"internal_node_id":"0.0-3.0","experiment":"validation","task_version":"2.0","jspsych_version":"6.3.1","infrequency":0},{"rt":41309.29999998212,"response":{"Q8":0,"Q0":5,"Q4":4,"Q5":1,"Q6":2,"Q1":5,"Q2":5,"Q3":5,"Q7":3},"question_order":[8,0,4,5,6,1,2,3,7],"survey":"sns","trial_type":"survey-likert","trial_index":4,"time_elapsed":160859,"internal_node_id":"0.0-4.0","experiment":"validation","task_version":"2.0","jspsych_version":"6.3.1","infrequency":0},{"value":0,"trial_type":"call-function","trial_index":5,"time_elapsed":160861,"internal_node_id":"0.0-5.0","experiment":"validation","task_version":"2.0","jspsych_version":"6.3.1","interactions":"[]"}]