[{"view_history":[{"page_index":0,"viewing_time":2913.600000143051}],"rt":2914,"trial_type":"instructions","trial_index":0,"time_elapsed":2921,"internal_node_id":"0.0-0.0","experiment":"validation","task_version":"2.0","jspsych_version":"6.3.1"},{"rt":12599.300000190735,"responses":{"age":"32","gender-categorical":"Female","gender-free-response":"","ethnicity":"Not Hispanic or Latino","race":["White"],"education":"High school"},"survey":"demographics","trial_type":"survey-demo","trial_index":1,"time_elapsed":15539,"internal_node_id":"0.0-1.0","experiment":"validation","task_version":"2.0","jspsych_version":"6.3.1"},{"rt":43236.799999952316,"response":{"Q8":0,"Q0":0,"Q5":2,"Q3":0,"Q2":0,"Q7":2,"Q4":2,"Q1":0,"Q6":3},"question_order":[8,0,5,3,2,7,4,1,6],"survey":"sns","trial_type":"survey-likert","trial_index":2,"time_elapsed":58788,"internal_node_id":"0.0-2.0","experiment":"validation","task_version":"2.0","jspsych_version":"6.3.1","infrequency":0},{"responses":{"Q03":"3","Q11":"0","Q10":"1","Q06":"1","Q07":"1","Q02":"1","Q08":"1","Q09":"2","Q01":"3","Q05":"2","Q04":"1"},"rt":69218.09999990463,"item_order":[2,10,9,5,6,1,7,8,0,4,3],"radio_events":[15809.400000095367,20045.299999952316,28171.299999952316,33012.90000009537,38434.90000009537,42366.700000047684,44964.799999952316,48368.59999990463,50456.799999952316,60140.59999990463,64858.40000009537,66844.5,67722.5],"key_events":[],"mouse_events":[15809.400000095367,18907.099999904633,20045.299999952316,28171.299999952316,33012.90000009537,37537,38434.90000009537,41186.90000009537,42366.700000047684,44964.799999952316,47308.700000047684,48368.59999990463,50456.799999952316,53680.299999952316,53948.5,54960.299999952316,55258.700000047684,56348.5,60140.59999990463,64858.40000009537,66844.5,67722.5,69216.40000009537],"straightlining":0.5454545454545454,"zigzagging":0.6,"honeypot":0,"survey":"nfc10","trial_type":"survey-template","trial_index":3,"time_elapsed":128017,"internal_node_id":"0.0-3.0","experiment":"validation","task_version":"2.0","jspsych_version":"6.3.1","infrequency":0},{"responses":{"Q03":"2","Q05":"1","Q07":"2","Q04":"2","Q06":"2","Q02":"1","Q08":"2","Q01":"2","Q09":"4"},"rt":34254.40000009537,"item_order":[2,4,6,3,5,1,7,0,8],"radio_events":[6693.599999904633,7961.5,9659.5,15047.299999952316,15469.400000095367,18421.299999952316,22399.299999952316,23917.299999952316,26975.5,29289.400000095367],"key_events":[],"mouse_events":[353.09999990463257,6693.599999904633,7961.5,9659.5,13115.400000095367,14465.5,15047.299999952316,15469.400000095367,18421.299999952316,22399.299999952316,23917.299999952316,26163.5,26975.5,29289.400000095367,34253.299999952316],"straightlining":0.6666666666666666,"zigzagging":0.5,"honeypot":0,"survey":"pcf","trial_type":"survey-template","trial_index":4,"time_elapsed":162281,"internal_node_id":"0.0-4.0","experiment":"validation","task_version":"2.0","jspsych_version":"6.3.1","infrequency":0},{"value":0,"trial_type":"call-function","trial_index":5,"time_elapsed":162286,"internal_node_id":"0.0-5.0","experiment":"validation","task_version":"2.0","jspsych_version":"6.3.1","interactions":"[]"}]