[{"view_history":[{"page_index":0,"viewing_time":2627.5999999940395}],"rt":2629.7000000029802,"trial_type":"instructions","trial_index":0,"time_elapsed":2696,"internal_node_id":"0.0-0.0","experiment":"validation","task_version":"1.1","jspsych_version":"6.3.1"},{"rt":29515.30000001192,"responses":{"age":"30","gender-categorical":"Male","gender-free-response":"","ethnicity":"Not Hispanic or Latino","race":["White"],"education":"Associate degree"},"survey":"demographics","trial_type":"survey-demo","trial_index":1,"time_elapsed":32235,"internal_node_id":"0.0-1.0","experiment":"validation","task_version":"1.1","jspsych_version":"6.3.1"},{"responses":{"Q05":"0","Q06":"2","Q01":"1","Q09":"3","Q11":"4","Q10":"1","Q08":"0","Q07":"2","Q03":"0","Q04":"0","Q02":"0"},"rt":48824.40000000596,"item_order":[4,5,0,8,10,9,7,6,2,3,1],"radio_events":[6268.29999999702,6665.5,8537.09999999404,11125.29999999702,23105.79999999702,27144.09999999404,31262,38145.20000000298,40249.79999999702,41410.20000000298,44280.09999999404,45921.59999999404,47555.5],"key_events":[],"mouse_events":[6268.29999999702,6665.5,8537.09999999404,11125.29999999702,23105.79999999702,27144.09999999404,31262,38145.20000000298,40249.79999999702,41410.20000000298,44280.09999999404,45921.59999999404,47555.5,48804.59999999404],"straightlining":0.36363636363636365,"zigzagging":0.3,"honeypot":0,"survey":"neuroticism","trial_type":"survey-template","trial_index":2,"time_elapsed":81094,"internal_node_id":"0.0-2.0","experiment":"validation","task_version":"1.1","jspsych_version":"6.3.1","infrequency":0},{"responses":{"Q08":"3","Q05":"1","Q03":"4","Q09":"3","Q11":"0","Q01":"3","Q02":"3","Q06":"3","Q07":"3","Q04":"2","Q10":"4"},"rt":30011.29999999702,"item_order":[7,4,2,8,10,0,1,5,6,3,9],"radio_events":[3471.7999999970198,5914.29999999702,6802.899999991059,9811.20000000298,13238,16100.59999999404,18701.70000000298,21126.39999999106,23238.70000000298,24387,26762.39999999106,28916.09999999404],"key_events":[],"mouse_events":[3471.7999999970198,5914.29999999702,6802.899999991059,9811.20000000298,13238,16100.59999999404,18701.70000000298,21126.39999999106,23238.70000000298,24387,26762.39999999106,28916.09999999404,29993.20000000298],"straightlining":0.36363636363636365,"zigzagging":0.3,"honeypot":0,"survey":"openness","trial_type":"survey-template","trial_index":3,"time_elapsed":111129,"internal_node_id":"0.0-3.0","experiment":"validation","task_version":"1.1","jspsych_version":"6.3.1","infrequency":0},{"responses":{"Q04":"1","Q07":"2","Q05":"3","Q06":"1","Q03":"2","Q01":"1","Q02":"2"},"rt":32862.5,"item_order":[3,6,4,5,2,0,1],"radio_events":[6823,11108.29999999702,14951.60000000894,15605,21074.10000000894,23631,26051.60000000894,30118.90000000596,32113.70000000298],"key_events":[],"mouse_events":[6823,11108.29999999702,14951.60000000894,15605,21074.10000000894,23631,26051.60000000894,30118.90000000596,32113.70000000298,32849.40000000596],"straightlining":0.42857142857142855,"zigzagging":0.8333333333333334,"honeypot":0,"survey":"nfc6","trial_type":"survey-template","trial_index":4,"time_elapsed":144011,"internal_node_id":"0.0-4.0","experiment":"validation","task_version":"1.1","jspsych_version":"6.3.1","infrequency":0},{"value":[0,1.155844155844156,1.4333333333333333],"trial_type":"call-function","trial_index":5,"time_elapsed":144022,"internal_node_id":"0.0-5.0","experiment":"validation","task_version":"1.1","jspsych_version":"6.3.1","interactions":"[{\"event\":\"blur\",\"trial\":1,\"time\":5150},{\"event\":\"focus\",\"trial\":1,\"time\":6337},{\"event\":\"blur\",\"trial\":1,\"time\":8570},{\"event\":\"focus\",\"trial\":1,\"time\":16936}]"}]