[{"view_history":[{"page_index":0,"viewing_time":15786.700000017881}],"rt":15788,"trial_type":"instructions","trial_index":0,"time_elapsed":15806,"internal_node_id":"0.0-0.0","experiment":"validation","task_version":"1.1","jspsych_version":"6.3.1"},{"rt":31173.09999999404,"responses":{"age":"30","gender-categorical":"Male","gender-free-response":"","ethnicity":"Not Hispanic or Latino","race":["White"],"education":"Master degree or higher"},"survey":"demographics","trial_type":"survey-demo","trial_index":1,"time_elapsed":46982,"internal_node_id":"0.0-1.0","experiment":"validation","task_version":"1.1","jspsych_version":"6.3.1"},{"responses":{"Q06":"3","Q11":"0","Q02":"3","Q01":"3","Q10":"1","Q08":"3","Q03":"3","Q05":"0","Q07":"4","Q04":"1","Q09":"3"},"rt":51337.90000000596,"item_order":[5,10,1,0,9,7,2,4,6,3,8],"radio_events":[13961,19817.40000000596,23549.59999999404,26077.90000000596,30096.79999998212,32193.09999999404,36675.59999999404,38392.69999998808,40848.69999998808,44081.59999999404,49406.5],"key_events":[],"mouse_events":[11391.799999982119,13961,19817.40000000596,23549.59999999404,26077.90000000596,28355.5,30096.79999998212,32193.09999999404,35110.09999999404,36675.59999999404,38392.69999998808,40848.69999998808,42979.29999998212,44081.59999999404,49406.5,51335.79999998212],"straightlining":0.45454545454545453,"zigzagging":0.3,"honeypot":0,"survey":"openness","trial_type":"survey-template","trial_index":2,"time_elapsed":98324,"internal_node_id":"0.0-2.0","experiment":"validation","task_version":"1.1","jspsych_version":"6.3.1","infrequency":0},{"responses":{"Q09":"3","Q04":"1","Q02":"0","Q05":"0","Q10":"1","Q06":"3","Q08":"0","Q03":"1","Q07":"2","Q01":"1","Q11":"4"},"rt":42860.40000000596,"item_order":[8,3,1,4,9,5,7,2,6,0,10],"radio_events":[8892.90000000596,10218.199999988079,13929.699999988079,16280.90000000596,16308.40000000596,18462.09999999404,20354.5,22659.40000000596,28248.79999998212,29768.5,31374.90000000596,39694.40000000596],"key_events":[],"mouse_events":[7185.799999982119,8892.90000000596,10218.199999988079,12336.40000000596,13929.699999988079,16280.90000000596,16308.40000000596,18462.09999999404,20354.5,22659.40000000596,26683.09999999404,28248.79999998212,29768.5,31374.90000000596,38455.90000000596,39694.40000000596,42858.09999999404],"straightlining":0.45454545454545453,"zigzagging":0.3,"honeypot":0,"survey":"neuroticism","trial_type":"survey-template","trial_index":3,"time_elapsed":141189,"internal_node_id":"0.0-3.0","experiment":"validation","task_version":"1.1","jspsych_version":"6.3.1","infrequency":0},{"responses":{"Q01":"0","Q04":"3","Q05":"3","Q07":"2","Q06":"3","Q02":"3","Q03":"3"},"rt":71805.29999998212,"item_order":[0,3,4,6,5,1,2],"radio_events":[12253.40000000596,21266.5,34846,39778.79999998212,55471.29999998212,60467.79999998212,67814],"key_events":[],"mouse_events":[12253.40000000596,21266.5,34846,39778.79999998212,55471.29999998212,60467.79999998212,67814,71804.29999998212],"straightlining":0.42857142857142855,"zigzagging":0.5,"honeypot":0,"survey":"nfc6","trial_type":"survey-template","trial_index":4,"time_elapsed":212997,"internal_node_id":"0.0-4.0","experiment":"validation","task_version":"1.1","jspsych_version":"6.3.1","infrequency":0},{"value":[0,1.3376623376623376,1.1],"trial_type":"call-function","trial_index":5,"time_elapsed":212998,"internal_node_id":"0.0-5.0","experiment":"validation","task_version":"1.1","jspsych_version":"6.3.1","interactions":"[]"}]