[{"view_history":[{"page_index":0,"viewing_time":2776.6999999284744}],"rt":2776.899999976158,"trial_type":"instructions","trial_index":0,"time_elapsed":2815,"internal_node_id":"0.0-0.0","experiment":"validation","task_version":"2.0","jspsych_version":"6.3.1"},{"rt":11828.699999928474,"responses":{"age":"18","gender-categorical":"Male","gender-free-response":"","ethnicity":"Not Hispanic or Latino","race":["White"],"education":"High school"},"survey":"demographics","trial_type":"survey-demo","trial_index":1,"time_elapsed":14654,"internal_node_id":"0.0-1.0","experiment":"validation","task_version":"2.0","jspsych_version":"6.3.1"},{"responses":{"Q04":"3","Q03":"3","Q05":"2","Q01":"1","Q07":"2","Q02":"1","Q09":"1","Q10":"1","Q06":"1","Q11":"0","Q08":"3"},"rt":98470.39999997616,"item_order":[3,2,4,0,6,1,8,9,5,10,7],"radio_events":[10626.199999928474,14373.699999928474,20977.5,55896.39999997616,64359.699999928474,67259.19999992847,70897.89999997616,73579.79999995232,78411.59999990463,80201.39999997616,84495.19999992847,88167.09999990463,94159.89999997616,97879.89999997616],"key_events":[],"mouse_events":[10626.199999928474,14373.699999928474,19824.599999904633,20977.5,55896.39999997616,60004.699999928474,62763.799999952316,64359.699999928474,67259.19999992847,70897.89999997616,73579.79999995232,78411.59999990463,80201.39999997616,83110.59999990463,84495.19999992847,88167.09999990463,94159.89999997616,96087.5,97118.5,97879.89999997616,98464.89999997616],"straightlining":0.6363636363636364,"zigzagging":0.5,"honeypot":0,"survey":"nfc10","trial_type":"survey-template","trial_index":2,"time_elapsed":113139,"internal_node_id":"0.0-2.0","experiment":"validation","task_version":"2.0","jspsych_version":"6.3.1","infrequency":0},{"responses":{"Q01":"1","Q05":"1","Q09":"4","Q03":"1","Q07":"1","Q04":"1","Q06":"1","Q08":"3","Q02":"2"},"rt":30692.799999952316,"item_order":[0,4,8,2,6,3,5,7,1],"radio_events":[3889.2999999523163,6308.299999952316,8957.699999928474,13135.299999952316,14400.600000023842,22057.899999976158,25781,26669.899999976158,28995.699999928474,29997.399999976158],"key_events":[],"mouse_events":[3889.2999999523163,5188.399999976158,6308.299999952316,8253.899999976158,8957.699999928474,13135.299999952316,14400.600000023842,22057.899999976158,23550.100000023842,25781,26669.899999976158,28995.699999928474,29997.399999976158,30688.600000023842],"straightlining":0.6666666666666666,"zigzagging":0.375,"honeypot":0,"survey":"pcf","trial_type":"survey-template","trial_index":3,"time_elapsed":143847,"internal_node_id":"0.0-3.0","experiment":"validation","task_version":"2.0","jspsych_version":"6.3.1","infrequency":0},{"rt":48196.5,"response":{"Q1":3,"Q0":3,"Q7":3,"Q4":3,"Q6":1,"Q2":2,"Q5":4,"Q8":0,"Q3":2},"question_order":[1,0,7,4,6,2,5,8,3],"survey":"sns","trial_type":"survey-likert","trial_index":4,"time_elapsed":192055,"internal_node_id":"0.0-4.0","experiment":"validation","task_version":"2.0","jspsych_version":"6.3.1","infrequency":0},{"value":0,"trial_type":"call-function","trial_index":5,"time_elapsed":192057,"internal_node_id":"0.0-5.0","experiment":"validation","task_version":"2.0","jspsych_version":"6.3.1","interactions":"[]"}]