[{"view_history":[{"page_index":0,"viewing_time":1767.0999999996275}],"rt":1767.300000000745,"trial_type":"instructions","trial_index":0,"time_elapsed":1782,"internal_node_id":"0.0-0.0","experiment":"validation","task_version":"2.0","jspsych_version":"6.3.1"},{"rt":10515,"responses":{"age":"23","gender-categorical":"Female","gender-free-response":"","ethnicity":"Not Hispanic or Latino","race":["White"],"education":"Bachelor degree"},"survey":"demographics","trial_type":"survey-demo","trial_index":1,"time_elapsed":12298,"internal_node_id":"0.0-1.0","experiment":"validation","task_version":"2.0","jspsych_version":"6.3.1"},{"responses":{"Q09":"3","Q04":"3","Q03":"1","Q05":"3","Q08":"4","Q07":"3","Q02":"1","Q11":"0","Q06":"0","Q01":"1","Q10":"1"},"rt":60488,"item_order":[8,3,2,4,7,6,1,10,5,0,9],"radio_events":[7114.5999999996275,8128.5999999996275,10830.400000000373,11524.599999999627,15790.5,17914.599999999627,21626.400000000373,23982.5,37416.5,41850.300000000745,50436.5,52724.800000000745,59886.5],"key_events":[3216.800000000745,4278.5,6588.300000000745,7114.5999999996275,8128.5999999996275,10830.400000000373,11524.599999999627,15790.5,17452.5,17914.599999999627,21626.400000000373,23982.5,37416.5,41850.300000000745,50128.59999999963,50436.5,52724.800000000745,59886.5,60486.59999999963],"mouse_events":[],"straightlining":0.45454545454545453,"zigzagging":0.3,"honeypot":0,"survey":"nfc10","trial_type":"survey-template","trial_index":2,"time_elapsed":72789,"internal_node_id":"0.0-2.0","experiment":"validation","task_version":"2.0","jspsych_version":"6.3.1","infrequency":0},{"rt":29254,"response":{"Q4":4,"Q6":4,"Q5":4,"Q3":5,"Q2":5,"Q0":3,"Q8":0,"Q1":3,"Q7":5},"question_order":[4,6,5,3,2,0,8,1,7],"survey":"sns","trial_type":"survey-likert","trial_index":3,"time_elapsed":102047,"internal_node_id":"0.0-3.0","experiment":"validation","task_version":"2.0","jspsych_version":"6.3.1","infrequency":0},{"responses":{"Q03":"0","Q09":"4","Q05":"1","Q07":"1","Q02":"0","Q06":"0","Q01":"0","Q08":"4","Q04":"1"},"rt":25355.800000000745,"item_order":[2,8,4,6,1,5,0,7,3],"radio_events":[7512.700000001118,9452.60000000149,10946.900000000373,12194.800000000745,14004.700000001118,18554.800000000745,19070.900000000373,22374.700000001118,24914.5],"key_events":[7104.9000000003725,7512.700000001118,9452.60000000149,10946.900000000373,12194.800000000745,14004.700000001118,14504.700000001118,16738.5,17192.700000001118,18154.60000000149,18554.800000000745,19070.900000000373,19949.5,22374.700000001118,24638.900000000373,24914.5,25354.900000000373],"mouse_events":[],"straightlining":0.5555555555555556,"zigzagging":0.375,"honeypot":0,"survey":"pcf","trial_type":"survey-template","trial_index":4,"time_elapsed":127405,"internal_node_id":"0.0-4.0","experiment":"validation","task_version":"2.0","jspsych_version":"6.3.1","infrequency":0},{"value":0,"trial_type":"call-function","trial_index":5,"time_elapsed":127406,"internal_node_id":"0.0-5.0","experiment":"validation","task_version":"2.0","jspsych_version":"6.3.1","interactions":"[]"}]