[{"view_history":[{"page_index":0,"viewing_time":4186.5999999996275}],"rt":4187.5999999996275,"trial_type":"instructions","trial_index":0,"time_elapsed":4209,"internal_node_id":"0.0-0.0","experiment":"validation","task_version":"1.1","jspsych_version":"6.3.1"},{"rt":26902,"responses":{"age":"50","gender-categorical":"Female","gender-free-response":"","ethnicity":"Not Hispanic or Latino","race":["White"],"education":"Associate degree"},"survey":"demographics","trial_type":"survey-demo","trial_index":1,"time_elapsed":31115,"internal_node_id":"0.0-1.0","experiment":"validation","task_version":"1.1","jspsych_version":"6.3.1"},{"responses":{"Q04":"3","Q07":"2","Q05":"3","Q06":"3","Q03":"3","Q02":"3","Q01":"2"},"rt":69079.20000000112,"item_order":[3,6,4,5,2,1,0],"radio_events":[15854.5,20606.400000000373,26960.200000001118,45544,52267.60000000149,56809.90000000037,64181.70000000112],"key_events":[],"mouse_events":[15854.5,20606.400000000373,26960.200000001118,45544,52267.60000000149,56809.90000000037,64181.70000000112,69077.80000000075],"straightlining":0.42857142857142855,"zigzagging":0.5,"honeypot":0,"survey":"nfc6","trial_type":"survey-template","trial_index":2,"time_elapsed":100199,"internal_node_id":"0.0-2.0","experiment":"validation","task_version":"1.1","jspsych_version":"6.3.1","infrequency":0},{"responses":{"Q09":"1","Q11":"4","Q02":"1","Q03":"3","Q08":"1","Q04":"3","Q05":"1","Q10":"2","Q01":"3","Q06":"2","Q07":"4"},"rt":78169,"item_order":[8,10,1,2,7,3,4,9,0,5,6],"radio_events":[9290.099999999627,14129.799999998882,24929.89999999851,28439.799999998882,41039.5,45015.59999999963,49917.5,53781.39999999851,58189.29999999888,68703.39999999851,75635.09999999963],"key_events":[],"mouse_events":[9290.099999999627,14129.799999998882,24929.89999999851,28439.799999998882,41039.5,45015.59999999963,49917.5,53781.39999999851,58189.29999999888,68703.39999999851,75635.09999999963,78167.19999999925],"straightlining":0.45454545454545453,"zigzagging":0.4,"honeypot":0,"survey":"neuroticism","trial_type":"survey-template","trial_index":3,"time_elapsed":178373,"internal_node_id":"0.0-3.0","experiment":"validation","task_version":"1.1","jspsych_version":"6.3.1","infrequency":0},{"responses":{"Q08":"2","Q11":"0","Q02":"2","Q10":"4","Q04":"2","Q07":"4","Q01":"4","Q06":"2","Q09":"3","Q03":"4","Q05":"0"},"rt":106352.30000000075,"item_order":[7,10,1,9,3,6,0,5,8,2,4],"radio_events":[11610.200000001118,16002.10000000149,26484,32243.800000000745,38631.800000000745,43783.800000000745,47259.70000000112,60045.60000000149,64893.5,71033.5,75737.20000000112,83455.30000000075,102094.90000000037],"key_events":[],"mouse_events":[11610.200000001118,16002.10000000149,26484,32243.800000000745,38631.800000000745,43783.800000000745,47259.70000000112,60045.60000000149,64893.5,71033.5,75737.20000000112,83455.30000000075,102094.90000000037,106350.60000000149],"straightlining":0.36363636363636365,"zigzagging":0.2,"honeypot":0,"survey":"openness","trial_type":"survey-template","trial_index":4,"time_elapsed":284730,"internal_node_id":"0.0-4.0","experiment":"validation","task_version":"1.1","jspsych_version":"6.3.1","infrequency":0},{"value":[0,1.2467532467532467,1.1],"trial_type":"call-function","trial_index":5,"time_elapsed":284732,"internal_node_id":"0.0-5.0","experiment":"validation","task_version":"1.1","jspsych_version":"6.3.1","interactions":"[]"}]