[{"view_history":[{"page_index":0,"viewing_time":2401.9000000953674}],"rt":2402.4000000953674,"trial_type":"instructions","trial_index":0,"time_elapsed":2419,"internal_node_id":"0.0-0.0","experiment":"validation","task_version":"1.1","jspsych_version":"6.3.1"},{"rt":10157.5,"responses":{"age":"20","gender-categorical":"Female","gender-free-response":"","ethnicity":"Not Hispanic or Latino","race":["White"],"education":"Some college"},"survey":"demographics","trial_type":"survey-demo","trial_index":1,"time_elapsed":12581,"internal_node_id":"0.0-1.0","experiment":"validation","task_version":"1.1","jspsych_version":"6.3.1"},{"responses":{"Q05":"3","Q01":"1","Q03":"2","Q06":"1","Q02":"3","Q04":"1","Q07":"2"},"rt":35358.09999990463,"item_order":[4,0,2,5,1,3,6],"radio_events":[5691.300000190735,9364.5,13428,20110.900000095367,25408.5,30775.400000095367,33925.40000009537],"key_events":[],"mouse_events":[4505.800000190735,5088.800000190735,5691.300000190735,8928.099999904633,9364.5,11849.5,12548.900000095367,13428,19555.099999904633,20110.900000095367,24354.5,24888.699999809265,25408.5,29810.300000190735,30295.900000095367,30775.400000095367,33141.5,33925.40000009537,35355],"straightlining":0.42857142857142855,"zigzagging":0.5,"honeypot":0,"survey":"nfc6","trial_type":"survey-template","trial_index":2,"time_elapsed":47953,"internal_node_id":"0.0-2.0","experiment":"validation","task_version":"1.1","jspsych_version":"6.3.1","infrequency":0},{"responses":{"Q06":"3","Q11":"4","Q01":"3","Q09":"1","Q03":"3","Q08":"0","Q04":"4","Q02":"1","Q07":"4","Q05":"3","Q10":"1"},"rt":37942.199999809265,"item_order":[5,10,0,8,2,7,3,1,6,4,9],"radio_events":[6347.099999904633,9610.5,12577.699999809265,18235.699999809265,20737.799999713898,25700.5,28221.599999904633,30498.5,32841.59999990463,35029.699999809265,37375.09999990463],"key_events":[],"mouse_events":[5713.799999713898,6347.099999904633,9116.799999713898,9610.5,12577.699999809265,18235.699999809265,20164,20737.799999713898,22304.599999904633,23399.599999904633,24334.699999809265,25700.5,28221.599999904633,30498.5,32413.599999904633,32841.59999990463,34376.699999809265,35029.699999809265,36541.59999990463,37375.09999990463,37939],"straightlining":0.45454545454545453,"zigzagging":0.3,"honeypot":0,"survey":"neuroticism","trial_type":"survey-template","trial_index":3,"time_elapsed":85902,"internal_node_id":"0.0-3.0","experiment":"validation","task_version":"1.1","jspsych_version":"6.3.1","infrequency":0},{"responses":{"Q05":"0","Q10":"4","Q04":"1","Q06":"3","Q03":"4","Q02":"3","Q07":"3","Q08":"3","Q09":"3","Q11":"0","Q01":"3"},"rt":29445,"item_order":[4,9,3,5,2,1,6,7,8,10,0],"radio_events":[2404.300000190735,5079.200000286102,7341.200000286102,11400.10000038147,14682.60000038147,15903.300000190735,19289.10000038147,21283.10000038147,22457.300000190735,24913.800000190735,27495.5],"key_events":[],"mouse_events":[2404.300000190735,4621.60000038147,5079.200000286102,7341.200000286102,9943.900000095367,11400.10000038147,12967.400000095367,14682.60000038147,15387.700000286102,15903.300000190735,19289.10000038147,21283.10000038147,22457.300000190735,24466.900000095367,24913.800000190735,27495.5,28389.900000095367,29441.800000190735],"straightlining":0.36363636363636365,"zigzagging":0.3,"honeypot":0,"survey":"openness","trial_type":"survey-template","trial_index":4,"time_elapsed":115362,"internal_node_id":"0.0-4.0","experiment":"validation","task_version":"1.1","jspsych_version":"6.3.1","infrequency":0},{"value":[0,1.2467532467532467,1.1],"trial_type":"call-function","trial_index":5,"time_elapsed":115365,"internal_node_id":"0.0-5.0","experiment":"validation","task_version":"1.1","jspsych_version":"6.3.1","interactions":"[]"}]