[{"view_history":[{"page_index":0,"viewing_time":2570.300000011921}],"rt":2571.6000000089407,"trial_type":"instructions","trial_index":0,"time_elapsed":2610,"internal_node_id":"0.0-0.0","experiment":"validation","task_version":"2.0","jspsych_version":"6.3.1"},{"rt":12508.79999999702,"responses":{"age":"28","gender-categorical":"Male","gender-free-response":"","ethnicity":"Not Hispanic or Latino","race":["Black or African American"],"education":"Bachelor degree"},"survey":"demographics","trial_type":"survey-demo","trial_index":1,"time_elapsed":15138,"internal_node_id":"0.0-1.0","experiment":"validation","task_version":"2.0","jspsych_version":"6.3.1"},{"responses":{"Q08":"3","Q01":"3","Q09":"4","Q05":"2","Q04":"3","Q03":"3","Q02":"2","Q07":"3","Q06":"4"},"rt":74654.79999999702,"item_order":[7,0,8,4,3,2,1,6,5],"radio_events":[5714.899999991059,24285.69999998808,25985.19999998808,28119.79999999702,38150.69999998808,54389.39999999106,60273.5,61540.39999999106,65350.79999999702,73061.5],"key_events":[],"mouse_events":[5714.899999991059,6670.5,9004.29999999702,11040.09999999404,13448.39999999106,22373.69999998808,23304.09999999404,24285.69999998808,25985.19999998808,28119.79999999702,37156.59999999404,38150.69999998808,54389.39999999106,58076.09999999404,60273.5,61540.39999999106,65350.79999999702,73061.5,74651.39999999106],"straightlining":0.5555555555555556,"zigzagging":0.5,"honeypot":0,"survey":"pcf","trial_type":"survey-template","trial_index":2,"time_elapsed":89813,"internal_node_id":"0.0-2.0","experiment":"validation","task_version":"2.0","jspsych_version":"6.3.1","infrequency":0},{"rt":54983,"response":{"Q0":2,"Q6":1,"Q7":4,"Q5":4,"Q4":4,"Q8":0,"Q3":4,"Q2":3,"Q1":3},"question_order":[0,6,7,5,4,8,3,2,1],"survey":"sns","trial_type":"survey-likert","trial_index":3,"time_elapsed":144814,"internal_node_id":"0.0-3.0","experiment":"validation","task_version":"2.0","jspsych_version":"6.3.1","infrequency":0},{"responses":{"Q06":"1","Q02":"1","Q04":"1","Q11":"0","Q07":"2","Q10":"1","Q08":"1","Q03":"1","Q09":"0","Q05":"1","Q01":"1"},"rt":83663.70000000298,"item_order":[5,1,3,10,6,9,7,2,8,4,0],"radio_events":[5851.70000000298,18836.20000000298,23146,43606.79999999702,50346.89999999106,59246.89999999106,65378,68529.29999999702,72264.79999999702,79042.5,82344.20000000298],"key_events":[],"mouse_events":[5851.70000000298,6981,10319.79999999702,11859,13497.89999999106,18836.20000000298,23146,43606.79999999702,49118,50346.89999999106,58204.79999999702,59246.89999999106,65378,68529.29999999702,72264.79999999702,79042.5,82344.20000000298,83659.70000000298],"straightlining":0.45454545454545453,"zigzagging":0.1,"honeypot":0,"survey":"nfc10","trial_type":"survey-template","trial_index":4,"time_elapsed":228495,"internal_node_id":"0.0-4.0","experiment":"validation","task_version":"2.0","jspsych_version":"6.3.1","infrequency":0},{"value":0,"trial_type":"call-function","trial_index":5,"time_elapsed":228561,"internal_node_id":"0.0-5.0","experiment":"validation","task_version":"2.0","jspsych_version":"6.3.1","interactions":"[]"}]