[{"view_history":[{"page_index":0,"viewing_time":2648.9000000059605}],"rt":2652.5999999940395,"trial_type":"instructions","trial_index":0,"time_elapsed":2754,"internal_node_id":"0.0-0.0","experiment":"validation","task_version":"1.1","jspsych_version":"6.3.1"},{"rt":24055.90000000596,"responses":{"age":"20","gender-categorical":"Female","gender-free-response":"","ethnicity":"Hispanic or Latino","race":["White"],"education":"Some college"},"survey":"demographics","trial_type":"survey-demo","trial_index":1,"time_elapsed":26837,"internal_node_id":"0.0-1.0","experiment":"validation","task_version":"1.1","jspsych_version":"6.3.1"},{"responses":{"Q05":"0","Q03":"4","Q04":"2","Q02":"4","Q10":"4","Q01":"3","Q08":"3","Q09":"3","Q07":"3","Q06":"3","Q11":"0"},"rt":38008.79999999702,"item_order":[4,2,3,1,9,0,7,8,6,5,10],"radio_events":[6038.20000000298,7422.79999999702,10284.90000000596,15172.40000000596,17235.5,23036.90000000596,24474.29999999702,25412.79999999702,26557.09999999404,29993.40000000596,35691.79999999702],"key_events":[],"mouse_events":[6038.20000000298,7422.79999999702,10284.90000000596,12376.29999999702,14254.40000000596,15172.40000000596,17235.5,18324.90000000596,23036.90000000596,24474.29999999702,25412.79999999702,26557.09999999404,29993.40000000596,31301.70000000298,35691.79999999702,37997.20000000298],"straightlining":0.36363636363636365,"zigzagging":0.2,"honeypot":0,"survey":"openness","trial_type":"survey-template","trial_index":2,"time_elapsed":64874,"internal_node_id":"0.0-2.0","experiment":"validation","task_version":"1.1","jspsych_version":"6.3.1","infrequency":0},{"responses":{"Q04":"4","Q08":"1","Q07":"3","Q10":"2","Q11":"4","Q06":"4","Q02":"1","Q01":"3","Q09":"3","Q05":"1","Q03":"2"},"rt":40755.79999999702,"item_order":[3,7,6,9,10,5,1,0,8,4,2],"radio_events":[3258.5,7464.20000000298,9915.59999999404,12523.70000000298,15193.20000000298,17929.29999999702,21525.79999999702,22905.40000000596,26695.90000000596,28322.90000000596,30026.79999999702,33077.70000000298,38789.90000000596],"key_events":[],"mouse_events":[3258.5,4856.9000000059605,7464.20000000298,8913.09999999404,9915.59999999404,12523.70000000298,15193.20000000298,17929.29999999702,20071.5,21525.79999999702,22905.40000000596,24258.59999999404,26695.90000000596,28322.90000000596,30026.79999999702,31682,33077.70000000298,34219.20000000298,38789.90000000596,40750],"straightlining":0.36363636363636365,"zigzagging":0.5,"honeypot":0,"survey":"neuroticism","trial_type":"survey-template","trial_index":3,"time_elapsed":105648,"internal_node_id":"0.0-3.0","experiment":"validation","task_version":"1.1","jspsych_version":"6.3.1","infrequency":0},{"responses":{"Q03":"1","Q01":"0","Q04":"2","Q05":"3","Q06":"0","Q07":"2","Q02":"2"},"rt":42057,"item_order":[2,0,3,4,5,6,1],"radio_events":[12095.199999988079,15969.09999999404,20428.5,25274.29999999702,34633.79999999702,37066.19999998808,40850.5],"key_events":[],"mouse_events":[12095.199999988079,15969.09999999404,20428.5,25274.29999999702,32211.39999999106,34633.79999999702,37066.19999998808,40850.5,42051.79999999702],"straightlining":0.42857142857142855,"zigzagging":0.16666666666666666,"honeypot":0,"survey":"nfc6","trial_type":"survey-template","trial_index":4,"time_elapsed":147720,"internal_node_id":"0.0-4.0","experiment":"validation","task_version":"1.1","jspsych_version":"6.3.1","infrequency":0},{"value":[0,1.155844155844156,0.8666666666666666],"trial_type":"call-function","trial_index":5,"time_elapsed":147730,"internal_node_id":"0.0-5.0","experiment":"validation","task_version":"1.1","jspsych_version":"6.3.1","interactions":"[{\"event\":\"blur\",\"trial\":1,\"time\":19984},{\"event\":\"focus\",\"trial\":1,\"time\":19989}]"}]