[{"view_history":[{"page_index":0,"viewing_time":1666.0999999642372}],"rt":1666.5999999642372,"trial_type":"instructions","trial_index":0,"time_elapsed":1676,"internal_node_id":"0.0-0.0","experiment":"validation","task_version":"2.0","jspsych_version":"6.3.1"},{"rt":9161.400000035763,"responses":{"age":"24","gender-categorical":"Female","gender-free-response":"","ethnicity":"Not Hispanic or Latino","race":["White"],"education":"Master degree or higher"},"survey":"demographics","trial_type":"survey-demo","trial_index":1,"time_elapsed":10842,"internal_node_id":"0.0-1.0","experiment":"validation","task_version":"2.0","jspsych_version":"6.3.1"},{"responses":{"Q07":"3","Q06":"3","Q08":"3","Q01":"4","Q05":"3","Q03":"2","Q04":"4","Q09":"4","Q02":"2"},"rt":30958.899999976158,"item_order":[6,5,7,0,4,2,3,8,1],"radio_events":[4297.600000023842,6413.300000011921,7907.699999988079,8625.800000011921,12833,14715.199999988079,15643.600000023842,17145.69999998808,21893.899999976158,23945.399999976158,24615.19999998808,27021.19999998808,30349.30000001192],"key_events":[],"mouse_events":[4297.600000023842,6413.300000011921,7907.699999988079,8625.800000011921,10766,11598.100000023842,12187.199999988079,12833,14715.199999988079,15643.600000023842,17145.69999998808,21893.899999976158,23945.399999976158,24615.19999998808,27021.19999998808,29832.30000001192,30349.30000001192,30955],"straightlining":0.4444444444444444,"zigzagging":0.5,"honeypot":0,"survey":"pcf","trial_type":"survey-template","trial_index":2,"time_elapsed":41808,"internal_node_id":"0.0-2.0","experiment":"validation","task_version":"2.0","jspsych_version":"6.3.1","infrequency":0},{"responses":{"Q07":"1","Q11":"0","Q06":"3","Q08":"4","Q09":"3","Q02":"3","Q04":"3","Q10":"3","Q03":"2","Q01":"1","Q05":"3"},"rt":73747.70000004768,"item_order":[6,10,5,7,8,1,3,9,2,0,4],"radio_events":[6726.300000011921,18109.400000035763,26436.900000035763,40848.40000003576,43538.200000047684,46194.200000047684,49028.40000003576,53341.5,56952.700000047684,60312.200000047684,62928.60000002384,65270.90000003576,66490.30000001192,72950.5],"key_events":[],"mouse_events":[6726.300000011921,18109.400000035763,25774.600000023842,26436.900000035763,32874.5,34262.60000002384,40136.10000002384,40299.200000047684,40848.40000003576,43538.200000047684,45653.10000002384,46194.200000047684,48406.90000003576,49028.40000003576,53341.5,56323.200000047684,56952.700000047684,60312.200000047684,62403.80000001192,62928.60000002384,65270.90000003576,66005.70000004768,66490.30000001192,69671.80000001192,70948,72425.90000003576,72950.5,73742.70000004768],"straightlining":0.36363636363636365,"zigzagging":0.5,"honeypot":0,"survey":"nfc10","trial_type":"survey-template","trial_index":3,"time_elapsed":115561,"internal_node_id":"0.0-3.0","experiment":"validation","task_version":"2.0","jspsych_version":"6.3.1","infrequency":0},{"rt":35442.60000002384,"response":{"Q4":4,"Q2":4,"Q0":3,"Q5":3,"Q8":0,"Q6":1,"Q3":4,"Q7":5,"Q1":4},"question_order":[4,2,0,5,8,6,3,7,1],"survey":"sns","trial_type":"survey-likert","trial_index":4,"time_elapsed":151009,"internal_node_id":"0.0-4.0","experiment":"validation","task_version":"2.0","jspsych_version":"6.3.1","infrequency":0},{"value":0,"trial_type":"call-function","trial_index":5,"time_elapsed":151012,"internal_node_id":"0.0-5.0","experiment":"validation","task_version":"2.0","jspsych_version":"6.3.1","interactions":"[]"}]