[{"view_history":[{"page_index":0,"viewing_time":1754.1000000238419}],"rt":1754.4000000953674,"trial_type":"instructions","trial_index":0,"time_elapsed":1786,"internal_node_id":"0.0-0.0","experiment":"validation","task_version":"1.1","jspsych_version":"6.3.1"},{"rt":11700.400000095367,"responses":{"age":"34","gender-categorical":"Male","gender-free-response":"","ethnicity":"Not Hispanic or Latino","race":["White"],"education":"Master degree or higher"},"survey":"demographics","trial_type":"survey-demo","trial_index":1,"time_elapsed":13489,"internal_node_id":"0.0-1.0","experiment":"validation","task_version":"1.1","jspsych_version":"6.3.1"},{"responses":{"Q09":"1","Q07":"3","Q02":"1","Q08":"2","Q03":"2","Q01":"2","Q04":"1","Q05":"1","Q06":"2","Q10":"2","Q11":"4"},"rt":22794.899999976158,"item_order":[8,6,1,7,2,0,3,4,5,9,10],"radio_events":[2987.399999976158,8206,8945.899999976158,10008.399999976158,11280.799999952316,12455.899999976158,15226.799999952316,16435.399999976158,18601,19906.199999928474,22041.600000023842],"key_events":[],"mouse_events":[2987.399999976158,4352.899999976158,5562.5,6400.699999928474,7385.5,8206,8945.899999976158,10008.399999976158,11280.799999952316,12455.899999976158,15226.799999952316,16435.399999976158,18601,19906.199999928474,21184,22041.600000023842,22793.199999928474],"straightlining":0.45454545454545453,"zigzagging":0.3,"honeypot":0,"survey":"neuroticism","trial_type":"survey-template","trial_index":2,"time_elapsed":36290,"internal_node_id":"0.0-2.0","experiment":"validation","task_version":"1.1","jspsych_version":"6.3.1","infrequency":0},{"responses":{"Q06":"3","Q02":"2","Q08":"2","Q07":"3","Q10":"4","Q09":"3","Q04":"1","Q05":"0","Q11":"0","Q01":"3","Q03":"3"},"rt":23343.200000047684,"item_order":[5,1,7,6,9,8,3,4,10,0,2],"radio_events":[4218,5767.399999976158,7883.5,9385,11325.700000047684,13080.899999976158,16387.300000071526,17635.399999976158,19166.100000023842,20435.300000071526,22346.600000023842],"key_events":[],"mouse_events":[4218,5767.399999976158,7883.5,9385,11325.700000047684,13080.899999976158,15402.200000047684,16387.300000071526,17635.399999976158,19166.100000023842,20435.300000071526,21565.200000047684,22346.600000023842,23341.800000071526],"straightlining":0.2727272727272727,"zigzagging":0.6,"honeypot":0,"survey":"openness","trial_type":"survey-template","trial_index":3,"time_elapsed":59637,"internal_node_id":"0.0-3.0","experiment":"validation","task_version":"1.1","jspsych_version":"6.3.1","infrequency":0},{"responses":{"Q05":"2","Q04":"3","Q07":"2","Q01":"3","Q06":"3","Q02":"3","Q03":"3"},"rt":23984.700000047684,"item_order":[4,3,6,0,5,1,2],"radio_events":[5113.100000023842,7668.200000047684,10739.800000071526,13021.600000023842,15342.200000047684,20081.600000023842,22773.100000023842],"key_events":[],"mouse_events":[5113.100000023842,7668.200000047684,10739.800000071526,13021.600000023842,15342.200000047684,20081.600000023842,21888.100000023842,22773.100000023842,23983.800000071526],"straightlining":0.42857142857142855,"zigzagging":0.5,"honeypot":0,"survey":"nfc6","trial_type":"survey-template","trial_index":4,"time_elapsed":83625,"internal_node_id":"0.0-4.0","experiment":"validation","task_version":"1.1","jspsych_version":"6.3.1","infrequency":0},{"value":[0,1.155844155844156,1.4],"trial_type":"call-function","trial_index":5,"time_elapsed":83627,"internal_node_id":"0.0-5.0","experiment":"validation","task_version":"1.1","jspsych_version":"6.3.1","interactions":"[]"}]