[{"view_history":[{"page_index":0,"viewing_time":4111}],"rt":4115.39999961853,"trial_type":"instructions","trial_index":0,"time_elapsed":4301,"internal_node_id":"0.0-0.0","experiment":"validation","task_version":"1.1","jspsych_version":"6.3.1"},{"rt":27976.5,"responses":{"age":"43","gender-categorical":"Female","gender-free-response":"","ethnicity":"Hispanic or Latino","race":["White","Rather not say"],"education":"Bachelor degree"},"survey":"demographics","trial_type":"survey-demo","trial_index":1,"time_elapsed":32294,"internal_node_id":"0.0-1.0","experiment":"validation","task_version":"1.1","jspsych_version":"6.3.1"},{"responses":{"Q06":"2","Q09":"3","Q03":"2","Q08":"1","Q10":"2","Q05":"0","Q04":"1","Q01":"3","Q07":"2","Q02":"1","Q11":"4"},"rt":57976.59999990463,"item_order":[5,8,2,7,9,4,3,0,6,1,10],"radio_events":[14978,19468.099999904633,23918.5,26514.89999961853,29634.39999961853,32688.199999809265,42728.2999997139,45254.89999961853,48107.7999997139,50934.89999961853,56369.09999990463],"key_events":[],"mouse_events":[14978,19468.099999904633,23918.5,26514.89999961853,29634.39999961853,32688.199999809265,42728.2999997139,45254.89999961853,48107.7999997139,50934.89999961853,56369.09999990463,57969],"straightlining":0.36363636363636365,"zigzagging":0.7,"honeypot":0,"survey":"neuroticism","trial_type":"survey-template","trial_index":2,"time_elapsed":90295,"internal_node_id":"0.0-2.0","experiment":"validation","task_version":"1.1","jspsych_version":"6.3.1","infrequency":0},{"responses":{"Q01":"3","Q07":"2","Q04":"3","Q06":"3","Q03":"3","Q05":"3","Q02":"3"},"rt":65614.69999980927,"item_order":[0,6,3,5,2,4,1],"radio_events":[13792.5,16273.699999809265,41571.199999809265,46738.40000009537,55762.59999990463,59676.300000190735,64724.199999809265],"key_events":[],"mouse_events":[13792.5,16273.699999809265,40369.90000009537,41571.199999809265,46738.40000009537,55762.59999990463,59676.300000190735,64724.199999809265,65608.30000019073],"straightlining":0.5714285714285714,"zigzagging":0.3333333333333333,"honeypot":0,"survey":"nfc6","trial_type":"survey-template","trial_index":3,"time_elapsed":155925,"internal_node_id":"0.0-3.0","experiment":"validation","task_version":"1.1","jspsych_version":"6.3.1","infrequency":0},{"responses":{"Q08":"3","Q04":"2","Q01":"2","Q07":"4","Q09":"2","Q11":"0","Q10":"3","Q06":"4","Q02":"4","Q03":"1","Q05":"0"},"rt":58297.699999809265,"item_order":[7,3,0,6,8,10,9,5,1,2,4],"radio_events":[15623.099999904633,18946.300000190735,26369.599999904633,30090.199999809265,35429.59999990463,40059,45558.5,50138,52744.699999809265,55405.699999809265,57405.90000009537],"key_events":[],"mouse_events":[15074,15623.099999904633,18946.300000190735,26369.599999904633,30090.199999809265,35429.59999990463,40059,45558.5,50138,52744.699999809265,55405.699999809265,57405.90000009537,58289.59999990463],"straightlining":0.2727272727272727,"zigzagging":0.4,"honeypot":0,"survey":"openness","trial_type":"survey-template","trial_index":4,"time_elapsed":214239,"internal_node_id":"0.0-4.0","experiment":"validation","task_version":"1.1","jspsych_version":"6.3.1","infrequency":0},{"value":[0,1.2077922077922079,1.4333333333333331],"trial_type":"call-function","trial_index":5,"time_elapsed":214248,"internal_node_id":"0.0-5.0","experiment":"validation","task_version":"1.1","jspsych_version":"6.3.1","interactions":"[]"}]