[{"view_history":[{"page_index":0,"viewing_time":2230.5}],"rt":2230.699999809265,"trial_type":"instructions","trial_index":0,"time_elapsed":2247,"internal_node_id":"0.0-0.0","experiment":"validation","task_version":"1.1","jspsych_version":"6.3.1"},{"rt":23684.599999904633,"responses":{"age":"33","gender-categorical":"Female","gender-free-response":"","ethnicity":"Not Hispanic or Latino","race":["White"],"education":"Bachelor degree"},"survey":"demographics","trial_type":"survey-demo","trial_index":1,"time_elapsed":25933,"internal_node_id":"0.0-1.0","experiment":"validation","task_version":"1.1","jspsych_version":"6.3.1"},{"responses":{"Q10":"3","Q08":"4","Q09":"4","Q06":"4","Q07":"4","Q11":"0","Q02":"4","Q03":"3","Q01":"4","Q04":"1","Q05":"0"},"rt":36670.59999990463,"item_order":[9,7,8,5,6,10,1,2,0,3,4],"radio_events":[10789.900000095367,14534.200000286102,15458.400000095367,16735.700000286102,19548.099999904633,21728.300000190735,23651.700000286102,26123.099999904633,31286.800000190735,34860.2000002861,36376.5],"key_events":[],"mouse_events":[10789.900000095367,14534.200000286102,15458.400000095367,16735.700000286102,19548.099999904633,21728.300000190735,23651.700000286102,26123.099999904633,31286.800000190735,34860.2000002861,35435.40000009537,35997.300000190735,36376.5,36669.5],"straightlining":0.45454545454545453,"zigzagging":0.6,"honeypot":0,"survey":"openness","trial_type":"survey-template","trial_index":2,"time_elapsed":62606,"internal_node_id":"0.0-2.0","experiment":"validation","task_version":"1.1","jspsych_version":"6.3.1","infrequency":0},{"responses":{"Q08":"1","Q10":"1","Q01":"1","Q03":"2","Q05":"3","Q11":"4","Q04":"0","Q06":"1","Q07":"1","Q02":"1","Q09":"1"},"rt":51455.40000009537,"item_order":[7,9,0,2,4,10,3,5,6,1,8],"radio_events":[8286.099999904633,11205.5,17073.400000095367,21090,24500.599999904633,29353.299999713898,30257.299999713898,33895.7999997139,38586.59999990463,41639.09999990463,41929.09999990463,46530.7999997139],"key_events":[],"mouse_events":[8286.099999904633,9558.199999809265,11205.5,11907.699999809265,17073.400000095367,21090,24500.599999904633,29353.299999713898,30257.299999713898,33895.7999997139,38586.59999990463,40528,41639.09999990463,41929.09999990463,43790.40000009537,46530.7999997139,51454.59999990463],"straightlining":0.5454545454545454,"zigzagging":0.4,"honeypot":0,"survey":"neuroticism","trial_type":"survey-template","trial_index":3,"time_elapsed":114064,"internal_node_id":"0.0-3.0","experiment":"validation","task_version":"1.1","jspsych_version":"6.3.1","infrequency":0},{"responses":{"Q05":"3","Q06":"3","Q01":"3","Q02":"4","Q03":"3","Q04":"1","Q07":"2"},"rt":59811.800000190735,"item_order":[4,5,0,1,2,3,6],"radio_events":[9831.700000286102,30599.800000190735,38773,42477.7000002861,46688.2000002861,51885.40000009537,59155.10000038147],"key_events":[],"mouse_events":[9831.700000286102,30599.800000190735,35253.5,38445,38773,42477.7000002861,46269.2000002861,46688.2000002861,51474.90000009537,51885.40000009537,53005.2000002861,58718,59155.10000038147,59811.2000002861],"straightlining":0.5714285714285714,"zigzagging":0.3333333333333333,"honeypot":0,"survey":"nfc6","trial_type":"survey-template","trial_index":4,"time_elapsed":173878,"internal_node_id":"0.0-4.0","experiment":"validation","task_version":"1.1","jspsych_version":"6.3.1","infrequency":0},{"value":[0,1.5714285714285714,1.3333333333333333],"trial_type":"call-function","trial_index":5,"time_elapsed":173879,"internal_node_id":"0.0-5.0","experiment":"validation","task_version":"1.1","jspsych_version":"6.3.1","interactions":"[]"}]