[{"view_history":[{"page_index":0,"viewing_time":3224.2999999988824}],"rt":3224.89999999851,"trial_type":"instructions","trial_index":0,"time_elapsed":3240,"internal_node_id":"0.0-0.0","experiment":"validation","task_version":"2.0","jspsych_version":"6.3.1"},{"rt":8750.900000000373,"responses":{"age":"24","gender-categorical":"Female","gender-free-response":"","ethnicity":"Not Hispanic or Latino","race":["Asian"],"education":"Bachelor degree"},"survey":"demographics","trial_type":"survey-demo","trial_index":1,"time_elapsed":11995,"internal_node_id":"0.0-1.0","experiment":"validation","task_version":"2.0","jspsych_version":"6.3.1"},{"responses":{"Q08":"4","Q02":"4","Q09":"4","Q04":"3","Q03":"4","Q06":"4","Q05":"3","Q01":"3","Q07":"3"},"rt":39332.09999999963,"item_order":[7,1,8,3,2,5,4,0,6],"radio_events":[5375.4000000003725,10797.099999999627,11186.099999999627,14773.099999999627,15534.199999999255,17484.199999999255,22046.099999999627,25884.299999998882,31260.5,31605.799999998882,33009.90000000037,33796.09999999963,38570.5],"key_events":[],"mouse_events":[5375.4000000003725,10797.099999999627,11186.099999999627,14773.099999999627,15534.199999999255,17484.199999999255,22046.099999999627,25441.900000000373,25884.299999998882,30216.699999999255,31260.5,31605.799999998882,33009.90000000037,33796.09999999963,36980.90000000037,38279.09999999963,38570.5,39330.29999999888],"straightlining":0.4444444444444444,"zigzagging":0.375,"honeypot":0,"survey":"pcf","trial_type":"survey-template","trial_index":2,"time_elapsed":51336,"internal_node_id":"0.0-2.0","experiment":"validation","task_version":"2.0","jspsych_version":"6.3.1","infrequency":0},{"responses":{"Q06":"3","Q08":"3","Q11":"0","Q03":"3","Q09":"2","Q02":"3","Q07":"3","Q01":"2","Q10":"2","Q05":"1","Q04":"1"},"rt":55273,"item_order":[5,7,10,2,8,1,6,0,9,4,3],"radio_events":[6466.300000000745,9384.200000001118,10114.800000000745,12525.700000001118,15963.300000000745,21504.900000000373,26532.300000000745,31978.599999999627,32914.70000000112,36179.5,42711.70000000112,48701.70000000112,53770.09999999963,54364.70000000112,54634.09999999963],"key_events":[],"mouse_events":[5589.9000000003725,6176.200000001118,6466.300000000745,9384.200000001118,10114.800000000745,12525.700000001118,15963.300000000745,20943.900000000373,21504.900000000373,26179.900000000373,26532.300000000745,31978.599999999627,32914.70000000112,35778.800000000745,36179.5,42319.90000000037,42711.70000000112,48701.70000000112,53019.59999999963,53448.5,53770.09999999963,54364.70000000112,54634.09999999963,55006.09999999963,55268.800000000745],"straightlining":0.5454545454545454,"zigzagging":0.5,"honeypot":0,"survey":"nfc10","trial_type":"survey-template","trial_index":3,"time_elapsed":106616,"internal_node_id":"0.0-3.0","experiment":"validation","task_version":"2.0","jspsych_version":"6.3.1","infrequency":0},{"rt":49852.09999999963,"response":{"Q5":5,"Q8":0,"Q4":5,"Q2":3,"Q7":4,"Q6":1,"Q1":3,"Q3":4,"Q0":3},"question_order":[5,8,4,2,7,6,1,3,0],"survey":"sns","trial_type":"survey-likert","trial_index":4,"time_elapsed":156477,"internal_node_id":"0.0-4.0","experiment":"validation","task_version":"2.0","jspsych_version":"6.3.1","infrequency":0},{"value":0,"trial_type":"call-function","trial_index":5,"time_elapsed":156481,"internal_node_id":"0.0-5.0","experiment":"validation","task_version":"2.0","jspsych_version":"6.3.1","interactions":"[]"}]