[{"view_history":[{"page_index":0,"viewing_time":1565.300000011921}],"rt":1565.4000000059605,"trial_type":"instructions","trial_index":0,"time_elapsed":1580,"internal_node_id":"0.0-0.0","experiment":"validation","task_version":"2.0","jspsych_version":"6.3.1"},{"rt":9711.90000000596,"responses":{"age":"27","gender-categorical":"Female","gender-free-response":"","ethnicity":"Not Hispanic or Latino","race":["White"],"education":"Master degree or higher"},"survey":"demographics","trial_type":"survey-demo","trial_index":1,"time_elapsed":11294,"internal_node_id":"0.0-1.0","experiment":"validation","task_version":"2.0","jspsych_version":"6.3.1"},{"responses":{"Q07":"4","Q08":"1","Q04":"3","Q02":"3","Q09":"3","Q11":"0","Q01":"3","Q06":"3","Q05":"3","Q03":"4","Q10":"3"},"rt":148502.20000001788,"item_order":[6,7,3,1,8,10,0,5,4,2,9],"radio_events":[8613.5,15540.600000023842,18732.90000000596,22260.90000000596,78029.20000001788,83196.90000000596,92861.5,94301.40000000596,112693.60000002384,128581.30000001192,138757.20000001788,139861.60000002384,143436.60000002384],"key_events":[],"mouse_events":[8613.5,13213.600000023842,13708.90000000596,15540.600000023842,18732.90000000596,20764.80000001192,22260.90000000596,71054.10000002384,73629,74341.20000001788,78029.20000001788,81748.60000002384,83196.90000000596,85661.30000001192,92332.80000001192,92861.5,94301.40000000596,112133.20000001788,112693.60000002384,116692.60000002384,126909.40000000596,127812.10000002384,128173.5,128581.30000001192,129556.60000002384,131780.60000002384,135269.30000001192,138757.20000001788,139861.60000002384,143436.60000002384,148501.20000001788],"straightlining":0.45454545454545453,"zigzagging":0.1,"honeypot":0,"survey":"nfc10","trial_type":"survey-template","trial_index":2,"time_elapsed":159799,"internal_node_id":"0.0-2.0","experiment":"validation","task_version":"2.0","jspsych_version":"6.3.1","infrequency":0},{"responses":{"Q09":"4","Q03":"1","Q08":"2","Q05":"2","Q07":"2","Q06":"1","Q01":"2","Q04":"0","Q02":"3"},"rt":34141.59999999404,"item_order":[8,2,7,4,6,5,0,3,1],"radio_events":[6004.5999999940395,10701,15404.90000000596,16148.59999999404,19524.70000001788,22244.40000000596,25732.20000001788,29117.09999999404,32412.80000001192],"key_events":[],"mouse_events":[6004.5999999940395,9764.90000000596,10701,13220.5,15404.90000000596,16148.59999999404,18100.59999999404,19524.70000001788,22244.40000000596,24796.59999999404,25732.20000001788,29117.09999999404,30804.90000000596,31316.30000001192,32412.80000001192,33220.20000001788,34140.59999999404],"straightlining":0.4444444444444444,"zigzagging":0.5,"honeypot":0,"survey":"pcf","trial_type":"survey-template","trial_index":3,"time_elapsed":193943,"internal_node_id":"0.0-3.0","experiment":"validation","task_version":"2.0","jspsych_version":"6.3.1","infrequency":0},{"rt":34317.69999998808,"response":{"Q3":4,"Q4":4,"Q7":4,"Q2":5,"Q8":0,"Q5":4,"Q1":4,"Q0":4,"Q6":2},"question_order":[3,4,7,2,8,5,1,0,6],"survey":"sns","trial_type":"survey-likert","trial_index":4,"time_elapsed":228263,"internal_node_id":"0.0-4.0","experiment":"validation","task_version":"2.0","jspsych_version":"6.3.1","infrequency":0},{"value":0,"trial_type":"call-function","trial_index":5,"time_elapsed":228264,"internal_node_id":"0.0-5.0","experiment":"validation","task_version":"2.0","jspsych_version":"6.3.1","interactions":"[{\"event\":\"blur\",\"trial\":2,\"time\":36390},{\"event\":\"focus\",\"trial\":2,\"time\":77529}]"}]