[{"view_history":[{"page_index":0,"viewing_time":6455.199999988079}],"rt":6457.4000000059605,"trial_type":"instructions","trial_index":0,"time_elapsed":7326,"internal_node_id":"0.0-0.0","experiment":"validation","task_version":"1.1","jspsych_version":"6.3.1"},{"rt":23506.59999999404,"responses":{"age":"51","gender-categorical":"Male","gender-free-response":"","ethnicity":"Not Hispanic or Latino","race":["Black or African American"],"education":"Master degree or higher"},"survey":"demographics","trial_type":"survey-demo","trial_index":1,"time_elapsed":30834,"internal_node_id":"0.0-1.0","experiment":"validation","task_version":"1.1","jspsych_version":"6.3.1"},{"responses":{"Q08":"3","Q02":"4","Q06":"3","Q07":"4","Q09":"4","Q05":"0","Q10":"2","Q04":"0","Q11":"0","Q01":"4","Q03":"2"},"rt":49153.69999998808,"item_order":[7,1,5,6,8,4,9,3,10,0,2],"radio_events":[15927.40000000596,17015.69999998808,22439.19999998808,25064.5,29695.09999999404,31351.40000000596,35224.59999999404,37839.40000000596,39999.30000001192,42535.40000000596,47655.09999999404],"key_events":[],"mouse_events":[14415.800000011921,15927.40000000596,17015.69999998808,21543.30000001192,22439.19999998808,25064.5,27727.69999998808,29695.09999999404,31351.40000000596,35224.59999999404,37839.40000000596,39999.30000001192,42535.40000000596,47655.09999999404,49151.19999998808],"straightlining":0.36363636363636365,"zigzagging":0.4,"honeypot":0,"survey":"openness","trial_type":"survey-template","trial_index":2,"time_elapsed":79996,"internal_node_id":"0.0-2.0","experiment":"validation","task_version":"1.1","jspsych_version":"6.3.1","infrequency":0},{"responses":{"Q03":"1","Q06":"1","Q05":"4","Q04":"0","Q07":"2","Q02":"4","Q01":"0"},"rt":89497.09999999404,"item_order":[2,5,4,3,6,1,0],"radio_events":[56655.40000000596,68183.5,71727.69999998808,75976.30000001192,78375.59999999404,84215.5,88519.5],"key_events":[],"mouse_events":[56655.40000000596,65847.90000000596,67183.59999999404,68183.5,71239.80000001192,71727.69999998808,75976.30000001192,78375.59999999404,84215.5,88519.5,89495.59999999404],"straightlining":0.42857142857142855,"zigzagging":0.16666666666666666,"honeypot":0,"survey":"nfc6","trial_type":"survey-template","trial_index":3,"time_elapsed":169499,"internal_node_id":"0.0-3.0","experiment":"validation","task_version":"1.1","jspsych_version":"6.3.1","infrequency":0},{"responses":{"Q07":"2","Q02":"0","Q11":"4","Q09":"4","Q01":"2","Q06":"2","Q04":"2","Q03":"1","Q08":"0","Q05":"0","Q10":"0"},"rt":30900.5,"item_order":[6,1,10,8,0,5,3,2,7,4,9],"radio_events":[7777.5999999940395,9297.799999982119,11537.799999982119,15177.59999999404,16786.19999998808,18289.899999976158,20465.5,24081.69999998808,26569.5,28689.5,30017.59999999404],"key_events":[],"mouse_events":[7777.5999999940395,9297.799999982119,11537.799999982119,15177.59999999404,16786.19999998808,18289.899999976158,20465.5,24081.69999998808,25577.69999998808,26569.5,28689.5,30017.59999999404,30897.69999998808],"straightlining":0.36363636363636365,"zigzagging":0.5,"honeypot":0,"survey":"neuroticism","trial_type":"survey-template","trial_index":4,"time_elapsed":200404,"internal_node_id":"0.0-4.0","experiment":"validation","task_version":"1.1","jspsych_version":"6.3.1","infrequency":0},{"value":[0,1.155844155844156,1.0666666666666667],"trial_type":"call-function","trial_index":5,"time_elapsed":200408,"internal_node_id":"0.0-5.0","experiment":"validation","task_version":"1.1","jspsych_version":"6.3.1","interactions":"[{\"event\":\"blur\",\"trial\":3,\"time\":82543},{\"event\":\"focus\",\"trial\":3,\"time\":122172}]"}]