[{"view_history":[{"page_index":0,"viewing_time":3402.3000000000466}],"rt":3402.5,"trial_type":"instructions","trial_index":0,"time_elapsed":3410,"internal_node_id":"0.0-0.0","experiment":"validation","task_version":"1.1","jspsych_version":"6.3.1"},{"rt":15527.399999999907,"responses":{"age":"56","gender-categorical":"Male","gender-free-response":"","ethnicity":"Not Hispanic or Latino","race":["White"],"education":"High school"},"survey":"demographics","trial_type":"survey-demo","trial_index":1,"time_elapsed":18939,"internal_node_id":"0.0-1.0","experiment":"validation","task_version":"1.1","jspsych_version":"6.3.1"},{"responses":{"Q01":"3","Q05":"3","Q02":"3","Q07":"2","Q04":"3","Q03":"4","Q06":"1"},"rt":42350.39999999991,"item_order":[0,4,1,6,3,2,5],"radio_events":[7669.899999999907,12501.800000000047,17669.800000000047,25598,27565.899999999907,34173.80000000005,41269.89999999991],"key_events":[],"mouse_events":[7669.899999999907,12501.800000000047,17669.800000000047,19645.899999999907,24045.800000000047,25598,27565.899999999907,32990.19999999995,34173.80000000005,35197.89999999991,41269.89999999991,42349.80000000005],"straightlining":0.42857142857142855,"zigzagging":0.6666666666666666,"honeypot":0,"survey":"nfc6","trial_type":"survey-template","trial_index":2,"time_elapsed":61291,"internal_node_id":"0.0-2.0","experiment":"validation","task_version":"1.1","jspsych_version":"6.3.1","infrequency":0},{"responses":{"Q10":"2","Q02":"3","Q03":"2","Q11":"4","Q04":"1","Q07":"3","Q05":"1","Q01":"3","Q09":"1","Q06":"1","Q08":"2"},"rt":33886.60000000009,"item_order":[9,1,2,10,3,6,4,0,8,5,7],"radio_events":[6981.800000000047,10861.800000000047,12357.899999999907,14205.899999999907,16677.899999999907,19214,21773.800000000047,24485.899999999907,28877.899999999907,30437.899999999907,33157.89999999991],"key_events":[],"mouse_events":[6981.800000000047,10861.800000000047,12357.899999999907,14205.899999999907,16677.899999999907,19214,21773.800000000047,24485.899999999907,28877.899999999907,30437.899999999907,33157.89999999991,33885.89999999991],"straightlining":0.36363636363636365,"zigzagging":0.3,"honeypot":0,"survey":"neuroticism","trial_type":"survey-template","trial_index":3,"time_elapsed":95179,"internal_node_id":"0.0-3.0","experiment":"validation","task_version":"1.1","jspsych_version":"6.3.1","infrequency":0},{"responses":{"Q06":"3","Q09":"4","Q05":"0","Q08":"3","Q01":"4","Q07":"4","Q02":"4","Q11":"0","Q03":"4","Q10":"4","Q04":"1"},"rt":31502.59999999986,"item_order":[5,8,4,7,0,6,1,10,2,9,3],"radio_events":[4349.799999999814,6933.799999999814,10277.799999999814,14373.799999999814,16269.799999999814,17629.899999999907,20125.799999999814,24341.799999999814,27133.799999999814,28677.799999999814,30773.799999999814],"key_events":[],"mouse_events":[4349.799999999814,6933.799999999814,10277.799999999814,14373.799999999814,16269.799999999814,17629.899999999907,20125.799999999814,24341.799999999814,27133.799999999814,28677.799999999814,30333.899999999907,30773.799999999814,31501.899999999907],"straightlining":0.36363636363636365,"zigzagging":0.7,"honeypot":0,"survey":"openness","trial_type":"survey-template","trial_index":4,"time_elapsed":126683,"internal_node_id":"0.0-4.0","experiment":"validation","task_version":"1.1","jspsych_version":"6.3.1","infrequency":0},{"value":[0,1.155844155844156,1.6666666666666665],"trial_type":"call-function","trial_index":5,"time_elapsed":126684,"internal_node_id":"0.0-5.0","experiment":"validation","task_version":"1.1","jspsych_version":"6.3.1","interactions":"[]"}]