[{"view_history":[{"page_index":0,"viewing_time":2619.900000035763}],"rt":2620.900000035763,"trial_type":"instructions","trial_index":0,"time_elapsed":2631,"internal_node_id":"0.0-0.0","experiment":"validation","task_version":"2.0","jspsych_version":"6.3.1"},{"rt":11180.300000011921,"responses":{"age":"25","gender-categorical":"Female","gender-free-response":"","ethnicity":"Hispanic or Latino","race":["White"],"education":"Bachelor degree"},"survey":"demographics","trial_type":"survey-demo","trial_index":1,"time_elapsed":13815,"internal_node_id":"0.0-1.0","experiment":"validation","task_version":"2.0","jspsych_version":"6.3.1"},{"responses":{"Q05":"2","Q01":"3","Q06":"3","Q07":"3","Q03":"3","Q02":"4","Q08":"2","Q09":"4","Q04":"3"},"rt":23486,"item_order":[4,0,5,6,2,1,7,8,3],"radio_events":[5027,5813.699999988079,8032.5,10657.899999976158,11568.600000023842,12882.600000023842,16498.100000023842,17842.69999998808,20435.5,22469.30000001192],"key_events":[],"mouse_events":[4191.699999988079,5027,5813.699999988079,8032.5,9088.800000011921,10157.5,10657.899999976158,11568.600000023842,12882.600000023842,15598.600000023842,16498.100000023842,17842.69999998808,20435.5,22469.30000001192,23482.5],"straightlining":0.5555555555555556,"zigzagging":0.25,"honeypot":0,"survey":"pcf","trial_type":"survey-template","trial_index":2,"time_elapsed":37307,"internal_node_id":"0.0-2.0","experiment":"validation","task_version":"2.0","jspsych_version":"6.3.1","infrequency":0},{"responses":{"Q04":"3","Q05":"4","Q07":"1","Q03":"2","Q01":"3","Q09":"1","Q02":"1","Q06":"1","Q10":"1","Q11":"0","Q08":"3"},"rt":52583.700000047684,"item_order":[3,4,6,2,0,8,1,5,9,10,7],"radio_events":[8568.800000011921,16455.700000047684,21495.700000047684,25594,28885.200000047684,30256.400000035763,31189.80000001192,36883.40000003576,38337.60000002384,41355.700000047684,44270.80000001192,51219.40000003576],"key_events":[],"mouse_events":[8568.800000011921,16455.700000047684,21495.700000047684,25594,28885.200000047684,30256.400000035763,31189.80000001192,35623.80000001192,36883.40000003576,38337.60000002384,39742.200000047684,41355.700000047684,44270.80000001192,50080.10000002384,51219.40000003576,52579.10000002384],"straightlining":0.5454545454545454,"zigzagging":0.5,"honeypot":0,"survey":"nfc10","trial_type":"survey-template","trial_index":3,"time_elapsed":89895,"internal_node_id":"0.0-3.0","experiment":"validation","task_version":"2.0","jspsych_version":"6.3.1","infrequency":0},{"rt":33106.5,"response":{"Q3":3,"Q2":4,"Q4":5,"Q0":3,"Q6":0,"Q8":0,"Q7":3,"Q5":5,"Q1":3},"question_order":[3,2,4,0,6,8,7,5,1],"survey":"sns","trial_type":"survey-likert","trial_index":4,"time_elapsed":123008,"internal_node_id":"0.0-4.0","experiment":"validation","task_version":"2.0","jspsych_version":"6.3.1","infrequency":0},{"value":0,"trial_type":"call-function","trial_index":5,"time_elapsed":123010,"internal_node_id":"0.0-5.0","experiment":"validation","task_version":"2.0","jspsych_version":"6.3.1","interactions":"[]"}]