[{"view_history":[{"page_index":0,"viewing_time":22387}],"rt":22387,"trial_type":"instructions","trial_index":0,"time_elapsed":22389,"internal_node_id":"0.0-0.0","experiment":"validation","task_version":"2.0","jspsych_version":"6.3.1"},{"rt":145729,"responses":{"age":"30","gender-categorical":"Female","gender-free-response":"","ethnicity":"Not Hispanic or Latino","race":["White"],"education":"Bachelor degree"},"survey":"demographics","trial_type":"survey-demo","trial_index":1,"time_elapsed":168128,"internal_node_id":"0.0-1.0","experiment":"validation","task_version":"2.0","jspsych_version":"6.3.1"},{"rt":160067,"response":{"Q7":3,"Q4":3,"Q3":4,"Q2":4,"Q8":0,"Q6":2,"Q1":3,"Q5":3,"Q0":3},"question_order":[7,4,3,2,8,6,1,5,0],"survey":"sns","trial_type":"survey-likert","trial_index":2,"time_elapsed":328198,"internal_node_id":"0.0-2.0","experiment":"validation","task_version":"2.0","jspsych_version":"6.3.1","infrequency":0},{"responses":{"Q08":"3","Q04":"1","Q10":"2","Q07":"3","Q03":"2","Q02":"3","Q09":"3","Q06":"3","Q05":"2","Q01":"2","Q11":"0"},"rt":214244,"item_order":[7,3,9,6,2,1,8,5,4,0,10],"radio_events":[39570,57721,70521,85785,86561,106193,120081,132666,151706,161546,211169],"key_events":[],"mouse_events":[5186,16650,17364,18522,24546,39570,42003,47690,57721,59883,70521,72937,73883,76491,85785,86561,91010,97546,106193,111481,120081,122018,132666,134785,150084,151706,154498,161546,165122,201299,211169,214244],"straightlining":0.5454545454545454,"zigzagging":0.5,"honeypot":0,"survey":"nfc10","trial_type":"survey-template","trial_index":3,"time_elapsed":542449,"internal_node_id":"0.0-3.0","experiment":"validation","task_version":"2.0","jspsych_version":"6.3.1","infrequency":0},{"responses":{"Q03":"1","Q06":"2","Q02":"3","Q09":"4","Q04":"3","Q07":"4","Q08":"3","Q05":"3","Q01":"3"},"rt":151353,"item_order":[2,5,1,8,3,6,7,4,0],"radio_events":[24608,37872,49432,79000,111088,122721,133544,141080,150104],"key_events":[],"mouse_events":[5600,13801,24608,26617,37872,40457,49432,52392,79000,86009,92152,111088,114864,122721,124913,133544,136672,141080,143673,148520,150104,151353],"straightlining":0.5555555555555556,"zigzagging":0.5,"honeypot":0,"survey":"pcf","trial_type":"survey-template","trial_index":4,"time_elapsed":693807,"internal_node_id":"0.0-4.0","experiment":"validation","task_version":"2.0","jspsych_version":"6.3.1","infrequency":0},{"value":0,"trial_type":"call-function","trial_index":5,"time_elapsed":693808,"internal_node_id":"0.0-5.0","experiment":"validation","task_version":"2.0","jspsych_version":"6.3.1","interactions":"[{\"event\":\"focus\",\"trial\":0,\"time\":0},{\"event\":\"blur\",\"trial\":1,\"time\":59736},{\"event\":\"focus\",\"trial\":1,\"time\":65998},{\"event\":\"blur\",\"trial\":1,\"time\":68439},{\"event\":\"focus\",\"trial\":1,\"time\":73602},{\"event\":\"blur\",\"trial\":1,\"time\":74808},{\"event\":\"focus\",\"trial\":1,\"time\":124624},{\"event\":\"blur\",\"trial\":1,\"time\":134742},{\"event\":\"focus\",\"trial\":1,\"time\":140642},{\"event\":\"blur\",\"trial\":1,\"time\":161617},{\"event\":\"focus\",\"trial\":1,\"time\":165146}]"}]