[{"rt":7161.055000004126,"responses":{"age":"36","gender-categorical":"Male","gender-free-response":"","ethnicity":"Not Hispanic or Latino","race":["White"],"education":"Bachelor degree"},"trial_type":"survey-demo","trial_index":0,"time_elapsed":7165,"internal_node_id":"0.0-0.0"},{"view_history":[{"page_index":0,"viewing_time":2923.419999977341},{"page_index":1,"viewing_time":1321.460000006482},{"page_index":2,"viewing_time":877.1199999901}],"rt":5122.939999972004,"trial_type":"instructions","trial_index":1,"time_elapsed":12293,"internal_node_id":"0.0-1.0"},{"stimulus":"../static/img/practice/pt1_M1.png","correct":0,"choice":3,"accuracy":0,"rt":5742.640000011306,"item_set":"practice","trial_type":"mars","trial_index":2,"time_elapsed":20040,"internal_node_id":"0.0-2.0-0.0"},{"stimulus":"../static/img/practice/pt1_M1.png","correct":0,"choice":0,"accuracy":1,"rt":4608.560000022408,"item_set":"practice","trial_type":"mars","trial_index":3,"time_elapsed":26661,"internal_node_id":"0.0-2.1-0.1"},{"stimulus":"../static/img/practice/pt2_M1.png","correct":0,"choice":0,"accuracy":1,"rt":3225.464999995893,"item_set":"practice","trial_type":"mars","trial_index":4,"time_elapsed":31896,"internal_node_id":"0.0-3.0-0.0"},{"stimulus":"../static/img/practice/pt3_M1.png","correct":0,"choice":0,"accuracy":1,"rt":1887.9550000128802,"item_set":"practice","trial_type":"mars","trial_index":5,"time_elapsed":35790,"internal_node_id":"0.0-4.0-0.0"},{"view_history":[{"page_index":0,"viewing_time":1809.399999998277},{"page_index":1,"viewing_time":705.3700000105891}],"rt":2515.2150000212714,"trial_type":"instructions","trial_index":6,"time_elapsed":38314,"internal_node_id":"0.0-5.0"},{"stimulus":"../static/img/is3/tf1/tf1_1_M_ss3.jpeg","correct":0,"choice":0,"accuracy":1,"rt":1603.0200000095647,"item_set":3,"test_form":1,"distractor":"pd","trial_type":"mars","trial_index":7,"time_elapsed":40671,"internal_node_id":"0.0-6.0"},{"stimulus":"../static/img/is3/tf1/tf1_6_M_ss2.jpeg","correct":0,"choice":1,"accuracy":0,"rt":2646.455000009155,"item_set":3,"test_form":1,"distractor":"pd","trial_type":"mars","trial_index":8,"time_elapsed":44081,"internal_node_id":"0.0-7.0"},{"stimulus":"../static/img/is3/tf1/tf1_11_M_ss1.jpeg","correct":0,"choice":3,"accuracy":0,"rt":1657.6599999971222,"item_set":3,"test_form":1,"distractor":"pd","trial_type":"mars","trial_index":9,"time_elapsed":46502,"internal_node_id":"0.0-8.0"},{"stimulus":"../static/img/is3/tf1/tf1_18_M_ss2.jpeg","correct":0,"choice":2,"accuracy":0,"rt":837.5099999830127,"item_set":3,"test_form":1,"distractor":"pd","trial_type":"mars","trial_index":10,"time_elapsed":48105,"internal_node_id":"0.0-9.0"},{"stimulus":"../static/img/is3/tf1/tf1_16_M_ss3.jpeg","correct":0,"choice":1,"accuracy":0,"rt":977.4700000125449,"item_set":3,"test_form":1,"distractor":"pd","trial_type":"mars","trial_index":11,"time_elapsed":49846,"internal_node_id":"0.0-10.0"},{"stimulus":"../static/img/is3/tf1/tf1_17_M_ss1.jpeg","correct":0,"choice":1,"accuracy":0,"rt":3295.494999998482,"item_set":3,"test_form":1,"distractor":"pd","trial_type":"mars","trial_index":12,"time_elapsed":53899,"internal_node_id":"0.0-11.0"},{"stimulus":"../static/img/is3/tf1/tf1_14_M_ss1.jpeg","correct":0,"choice":3,"accuracy":0,"rt":2049.7449999966193,"item_set":3,"test_form":1,"distractor":"pd","trial_type":"mars","trial_index":13,"time_elapsed":56712,"internal_node_id":"0.0-12.0"},{"stimulus":"../static/img/is3/tf1/tf1_26_M_ss1.jpeg","correct":0,"choice":0,"accuracy":1,"rt":1330.8150000229944,"item_set":3,"test_form":1,"distractor":"pd","trial_type":"mars","trial_index":14,"time_elapsed":58800,"internal_node_id":"0.0-13.0","interactions":"[]"}]