[{"rt":11634.480000007898,"responses":{"age":"23","gender-categorical":"Male","gender-free-response":"","ethnicity":"Not Hispanic or Latino","race":["Black or African American","White"],"education":"Some college"},"trial_type":"survey-demo","trial_index":0,"time_elapsed":11638,"internal_node_id":"0.0-0.0"},{"view_history":[{"page_index":0,"viewing_time":1458.5899999947287},{"page_index":1,"viewing_time":815.7150000042748},{"page_index":2,"viewing_time":685.5649999924935}],"rt":2960.5849999934435,"trial_type":"instructions","trial_index":1,"time_elapsed":14600,"internal_node_id":"0.0-1.0"},{"stimulus":"../static/img/practice/pt1_M1.png","correct":0,"choice":0,"accuracy":1,"rt":16431.769999995595,"item_set":"practice","trial_type":"mars","trial_index":2,"time_elapsed":33036,"internal_node_id":"0.0-2.0-0.0"},{"stimulus":"../static/img/practice/pt2_M1.png","correct":0,"choice":0,"accuracy":1,"rt":2067.879999987781,"item_set":"practice","trial_type":"mars","trial_index":3,"time_elapsed":37110,"internal_node_id":"0.0-3.0-0.0"},{"stimulus":"../static/img/practice/pt3_M1.png","correct":0,"choice":0,"accuracy":1,"rt":1743.6699999962002,"item_set":"practice","trial_type":"mars","trial_index":4,"time_elapsed":40857,"internal_node_id":"0.0-4.0-0.0"},{"view_history":[{"page_index":0,"viewing_time":1129.7300000151154},{"page_index":1,"viewing_time":1262.334999977611}],"rt":2392.3000000067987,"trial_type":"instructions","trial_index":5,"time_elapsed":43252,"internal_node_id":"0.0-5.0"},{"stimulus":"../static/img/is3/tf1/tf1_1_M_ss3.jpeg","correct":0,"choice":0,"accuracy":1,"rt":2959.5250000129454,"item_set":3,"test_form":1,"distractor":"pd","trial_type":"mars","trial_index":6,"time_elapsed":46964,"internal_node_id":"0.0-6.0"},{"stimulus":"../static/img/is3/tf1/tf1_6_M_ss2.jpeg","correct":0,"choice":0,"accuracy":1,"rt":3211.5150000026915,"item_set":3,"test_form":1,"distractor":"pd","trial_type":"mars","trial_index":7,"time_elapsed":50929,"internal_node_id":"0.0-7.0"},{"stimulus":"../static/img/is3/tf1/tf1_15_M_ss2.jpeg","correct":0,"choice":3,"accuracy":0,"rt":3236.654999986058,"item_set":3,"test_form":1,"distractor":"pd","trial_type":"mars","trial_index":8,"time_elapsed":54919,"internal_node_id":"0.0-8.0"},{"stimulus":"../static/img/is3/tf1/tf1_10_M_ss3.jpeg","correct":0,"choice":2,"accuracy":0,"rt":1856.755000015255,"item_set":3,"test_form":1,"distractor":"pd","trial_type":"mars","trial_index":9,"time_elapsed":57527,"internal_node_id":"0.0-9.0"},{"stimulus":"../static/img/is3/tf1/tf1_12_M_ss2.jpeg","correct":0,"choice":3,"accuracy":0,"rt":2876.4399999927264,"item_set":3,"test_form":1,"distractor":"pd","trial_type":"mars","trial_index":10,"time_elapsed":61156,"internal_node_id":"0.0-10.0"},{"stimulus":"../static/img/is3/tf1/tf1_23_M_ss1.jpeg","correct":0,"choice":0,"accuracy":1,"rt":11076.754999987315,"item_set":3,"test_form":1,"distractor":"pd","trial_type":"mars","trial_index":11,"time_elapsed":72986,"internal_node_id":"0.0-11.0"},{"stimulus":"../static/img/is3/tf1/tf1_52_M_ss3.jpeg","correct":0,"choice":1,"accuracy":0,"rt":8279.355000006035,"item_set":3,"test_form":1,"distractor":"pd","trial_type":"mars","trial_index":12,"time_elapsed":82020,"internal_node_id":"0.0-12.0"},{"stimulus":"../static/img/is3/tf1/tf1_59_M_ss1.jpeg","correct":0,"choice":2,"accuracy":0,"rt":3802.499999990687,"item_set":3,"test_form":1,"distractor":"pd","trial_type":"mars","trial_index":13,"time_elapsed":86578,"internal_node_id":"0.0-13.0","interactions":"[]"}]