[{"rt":10975.449999999995,"responses":{"age":"35","gender-categorical":"Other","gender-free-response":"nonbinary","ethnicity":"Not Hispanic or Latino","race":["Asian"],"education":"Associate degree"},"trial_type":"survey-demo","trial_index":0,"time_elapsed":10997,"internal_node_id":"0.0-0.0"},{"view_history":[{"page_index":0,"viewing_time":4289.940000000002},{"page_index":1,"viewing_time":2664.1549999999916},{"page_index":2,"viewing_time":800.7550000000119}],"rt":7756.775000000005,"trial_type":"instructions","trial_index":1,"time_elapsed":18780,"internal_node_id":"0.0-1.0"},{"stimulus":"../static/img/practice/pt1_M1.png","correct":0,"choice":0,"accuracy":1,"rt":2806.0300000000243,"item_set":"practice","trial_type":"mars","trial_index":2,"time_elapsed":23591,"internal_node_id":"0.0-2.0-0.0"},{"stimulus":"../static/img/practice/pt2_M1.png","correct":0,"choice":0,"accuracy":1,"rt":2158.639999999992,"item_set":"practice","trial_type":"mars","trial_index":3,"time_elapsed":27764,"internal_node_id":"0.0-3.0-0.0"},{"stimulus":"../static/img/practice/pt3_M1.png","correct":0,"choice":0,"accuracy":1,"rt":1967.6049999999923,"item_set":"practice","trial_type":"mars","trial_index":4,"time_elapsed":31735,"internal_node_id":"0.0-4.0-0.0"},{"view_history":[{"page_index":0,"viewing_time":818.2000000000189},{"page_index":1,"viewing_time":865.9799999999741}],"rt":1685.2900000000081,"trial_type":"instructions","trial_index":5,"time_elapsed":33422,"internal_node_id":"0.0-5.0"},{"stimulus":"../static/img/is3/tf1/tf1_19_M_ss3.jpeg","correct":0,"choice":1,"accuracy":0,"rt":4084.125,"item_set":3,"test_form":1,"distractor":"pd","trial_type":"mars","trial_index":6,"time_elapsed":38263,"internal_node_id":"0.0-6.0"},{"stimulus":"../static/img/is3/tf1/tf1_20_M_ss1.jpeg","correct":0,"choice":0,"accuracy":1,"rt":10388.805000000015,"item_set":3,"test_form":1,"distractor":"pd","trial_type":"mars","trial_index":7,"time_elapsed":49405,"internal_node_id":"0.0-7.0"},{"stimulus":"../static/img/is3/tf1/tf1_15_M_ss2.jpeg","correct":0,"choice":0,"accuracy":1,"rt":12356.28500000001,"item_set":3,"test_form":1,"distractor":"pd","trial_type":"mars","trial_index":8,"time_elapsed":62515,"internal_node_id":"0.0-8.0"},{"stimulus":"../static/img/is3/tf1/tf1_10_M_ss3.jpeg","correct":0,"choice":0,"accuracy":1,"rt":10824.419999999976,"item_set":3,"test_form":1,"distractor":"pd","trial_type":"mars","trial_index":9,"time_elapsed":74093,"internal_node_id":"0.0-9.0"},{"stimulus":"../static/img/is3/tf1/tf1_16_M_ss3.jpeg","correct":0,"choice":0,"accuracy":1,"rt":8899.59000000004,"item_set":3,"test_form":1,"distractor":"pd","trial_type":"mars","trial_index":10,"time_elapsed":83747,"internal_node_id":"0.0-10.0"},{"stimulus":"../static/img/is3/tf1/tf1_17_M_ss1.jpeg","correct":0,"choice":0,"accuracy":1,"rt":9276.799999999988,"item_set":3,"test_form":1,"distractor":"pd","trial_type":"mars","trial_index":11,"time_elapsed":93778,"internal_node_id":"0.0-11.0"},{"stimulus":"../static/img/is3/tf1/tf1_14_M_ss1.jpeg","correct":0,"choice":0,"accuracy":1,"rt":15062.694999999963,"item_set":3,"test_form":1,"distractor":"pd","trial_type":"mars","trial_index":12,"time_elapsed":109593,"internal_node_id":"0.0-12.0"},{"stimulus":"../static/img/is3/tf1/tf1_26_M_ss1.jpeg","correct":0,"choice":0,"accuracy":1,"rt":10807.190000000002,"item_set":3,"test_form":1,"distractor":"pd","trial_type":"mars","trial_index":13,"time_elapsed":121158,"internal_node_id":"0.0-13.0","interactions":"[]"}]