[{"rt":64731.63499997463,"responses":{"age":"26","gender-categorical":"Male","gender-free-response":"","ethnicity":"Not Hispanic or Latino","race":["White"],"education":"High school"},"trial_type":"survey-demo","trial_index":0,"time_elapsed":64733,"internal_node_id":"0.0-0.0"},{"view_history":[{"page_index":0,"viewing_time":7850.380000018049},{"page_index":1,"viewing_time":7119.1649999818765},{"page_index":2,"viewing_time":1633.7700000149198}],"rt":16603.770000045188,"trial_type":"instructions","trial_index":1,"time_elapsed":81340,"internal_node_id":"0.0-1.0"},{"stimulus":"../static/img/practice/pt1_M1.png","correct":0,"choice":0,"accuracy":1,"rt":8169.384999957401,"item_set":"practice","trial_type":"mars","trial_index":2,"time_elapsed":91511,"internal_node_id":"0.0-2.0-0.0"},{"stimulus":"../static/img/practice/pt2_M1.png","correct":0,"choice":0,"accuracy":1,"rt":2903.619999997318,"item_set":"practice","trial_type":"mars","trial_index":3,"time_elapsed":96418,"internal_node_id":"0.0-3.0-0.0"},{"stimulus":"../static/img/practice/pt3_M1.png","correct":0,"choice":0,"accuracy":1,"rt":1681.6150000086054,"item_set":"practice","trial_type":"mars","trial_index":4,"time_elapsed":100102,"internal_node_id":"0.0-4.0-0.0"},{"view_history":[{"page_index":0,"viewing_time":929.680000001099},{"page_index":1,"viewing_time":760.6399999931455}],"rt":1690.4250000370666,"trial_type":"instructions","trial_index":5,"time_elapsed":101795,"internal_node_id":"0.0-5.0"},{"stimulus":"../static/img/is3/tf1/tf1_19_M_ss3.jpeg","correct":0,"choice":0,"accuracy":1,"rt":5735.890000010841,"item_set":3,"test_form":1,"distractor":"pd","trial_type":"mars","trial_index":6,"time_elapsed":108283,"internal_node_id":"0.0-6.0"},{"stimulus":"../static/img/is3/tf1/tf1_20_M_ss1.jpeg","correct":0,"choice":0,"accuracy":1,"rt":9396.539999986999,"item_set":3,"test_form":1,"distractor":"pd","trial_type":"mars","trial_index":7,"time_elapsed":118432,"internal_node_id":"0.0-7.0"},{"stimulus":"../static/img/is3/tf1/tf1_15_M_ss2.jpeg","correct":0,"choice":0,"accuracy":1,"rt":14165.550000034273,"item_set":3,"test_form":1,"distractor":"pd","trial_type":"mars","trial_index":8,"time_elapsed":133351,"internal_node_id":"0.0-8.0"},{"stimulus":"../static/img/is3/tf1/tf1_10_M_ss3.jpeg","correct":0,"choice":0,"accuracy":1,"rt":15560.379999980796,"item_set":3,"test_form":1,"distractor":"pd","trial_type":"mars","trial_index":9,"time_elapsed":149664,"internal_node_id":"0.0-9.0"},{"stimulus":"../static/img/is3/tf1/tf1_16_M_ss3.jpeg","correct":0,"choice":0,"accuracy":1,"rt":19423.860000038985,"item_set":3,"test_form":1,"distractor":"pd","trial_type":"mars","trial_index":10,"time_elapsed":169841,"internal_node_id":"0.0-10.0"},{"stimulus":"../static/img/is3/tf1/tf1_17_M_ss1.jpeg","correct":0,"choice":1,"accuracy":0,"rt":19647.1550000133,"item_set":3,"test_form":1,"distractor":"pd","trial_type":"mars","trial_index":11,"time_elapsed":190241,"internal_node_id":"0.0-11.0"},{"stimulus":"../static/img/is3/tf1/tf1_52_M_ss3.jpeg","correct":0,"choice":3,"accuracy":0,"rt":24370.920000015758,"item_set":3,"test_form":1,"distractor":"pd","trial_type":"mars","trial_index":12,"time_elapsed":215365,"internal_node_id":"0.0-12.0"},{"stimulus":"../static/img/is3/tf1/tf1_59_M_ss1.jpeg","correct":0,"choice":3,"accuracy":0,"rt":24729.690000007395,"item_set":3,"test_form":1,"distractor":"pd","trial_type":"mars","trial_index":13,"time_elapsed":240847,"internal_node_id":"0.0-13.0","interactions":"[{\"event\":\"blur\",\"trial\":0,\"time\":3634},{\"event\":\"focus\",\"trial\":0,\"time\":60691},{\"event\":\"blur\",\"trial\":12,\"time\":211544},{\"event\":\"focus\",\"trial\":12,\"time\":214542}]"}]