[{"rt":34272.63500005938,"responses":{"age":"42","gender-categorical":"Female","gender-free-response":"","ethnicity":"Not Hispanic or Latino","race":["White"],"education":"Associate degree"},"trial_type":"survey-demo","trial_index":0,"time_elapsed":34278,"internal_node_id":"0.0-0.0"},{"view_history":[{"page_index":0,"viewing_time":21542.454999987967},{"page_index":1,"viewing_time":20281.244999961928},{"page_index":2,"viewing_time":1923.285000026226}],"rt":43748.030000017025,"trial_type":"instructions","trial_index":1,"time_elapsed":78033,"internal_node_id":"0.0-1.0"},{"stimulus":"../static/img/practice/pt1_M1.png","correct":0,"choice":1,"accuracy":0,"rt":12724.219999974594,"item_set":"practice","trial_type":"mars","trial_index":2,"time_elapsed":92760,"internal_node_id":"0.0-2.0-0.0"},{"stimulus":"../static/img/practice/pt1_M1.png","correct":0,"choice":2,"accuracy":0,"rt":14919.415000011213,"item_set":"practice","trial_type":"mars","trial_index":3,"time_elapsed":109690,"internal_node_id":"0.0-2.1-0.1"},{"stimulus":"../static/img/practice/pt1_M1.png","correct":0,"choice":3,"accuracy":0,"rt":10219.105000025593,"item_set":"practice","trial_type":"mars","trial_index":4,"time_elapsed":121921,"internal_node_id":"0.0-2.2-0.2"},{"stimulus":"../static/img/practice/pt1_M1.png","correct":0,"choice":1,"accuracy":0,"rt":5371.415000059642,"item_set":"practice","trial_type":"mars","trial_index":5,"time_elapsed":129299,"internal_node_id":"0.0-2.3-0.3"},{"stimulus":"../static/img/practice/pt1_M1.png","correct":0,"choice":3,"accuracy":0,"rt":2170.3449999913573,"item_set":"practice","trial_type":"mars","trial_index":6,"time_elapsed":133475,"internal_node_id":"0.0-2.4-0.4"},{"stimulus":"../static/img/practice/pt1_M1.png","correct":0,"choice":0,"accuracy":1,"rt":853.705000015907,"item_set":"practice","trial_type":"mars","trial_index":7,"time_elapsed":136340,"internal_node_id":"0.0-2.5-0.5"},{"stimulus":"../static/img/practice/pt2_M1.png","correct":0,"choice":1,"accuracy":0,"rt":3416.830000001937,"item_set":"practice","trial_type":"mars","trial_index":8,"time_elapsed":141766,"internal_node_id":"0.0-3.0-0.0"},{"stimulus":"../static/img/practice/pt2_M1.png","correct":0,"choice":0,"accuracy":1,"rt":2397.8149999165908,"item_set":"practice","trial_type":"mars","trial_index":9,"time_elapsed":146172,"internal_node_id":"0.0-3.1-0.1"},{"stimulus":"../static/img/practice/pt3_M1.png","correct":0,"choice":1,"accuracy":0,"rt":12690.469999914058,"item_set":"practice","trial_type":"mars","trial_index":10,"time_elapsed":160869,"internal_node_id":"0.0-4.0-0.0"},{"stimulus":"../static/img/practice/pt3_M1.png","correct":0,"choice":3,"accuracy":0,"rt":1746.6299999505281,"item_set":"practice","trial_type":"mars","trial_index":11,"time_elapsed":164620,"internal_node_id":"0.0-4.1-0.1"},{"stimulus":"../static/img/practice/pt3_M1.png","correct":0,"choice":0,"accuracy":1,"rt":3972.0450000604615,"item_set":"practice","trial_type":"mars","trial_index":12,"time_elapsed":170610,"internal_node_id":"0.0-4.2-0.2"},{"view_history":[{"page_index":0,"viewing_time":2045.0500000733882},{"page_index":1,"viewing_time":3104.0299999294803}],"rt":5149.340000003576,"trial_type":"instructions","trial_index":13,"time_elapsed":175764,"internal_node_id":"0.0-5.0"},{"stimulus":"../static/img/is3/tf1/tf1_19_M_ss3.jpeg","correct":0,"choice":3,"accuracy":0,"rt":1343.254999956116,"item_set":3,"test_form":1,"distractor":"pd","trial_type":"mars","trial_index":14,"time_elapsed":177860,"internal_node_id":"0.0-6.0"},{"stimulus":"../static/img/is3/tf1/tf1_20_M_ss1.jpeg","correct":0,"choice":2,"accuracy":0,"rt":1148.8050000043586,"item_set":3,"test_form":1,"distractor":"pd","trial_type":"mars","trial_index":15,"time_elapsed":179764,"internal_node_id":"0.0-7.0"},{"stimulus":"../static/img/is3/tf1/tf1_11_M_ss1.jpeg","correct":0,"choice":3,"accuracy":0,"rt":844.429999939166,"item_set":3,"test_form":1,"distractor":"pd","trial_type":"mars","trial_index":16,"time_elapsed":181365,"internal_node_id":"0.0-8.0"},{"stimulus":"../static/img/is3/tf1/tf1_18_M_ss2.jpeg","correct":0,"choice":2,"accuracy":0,"rt":1046.8150000087917,"item_set":3,"test_form":1,"distractor":"pd","trial_type":"mars","trial_index":17,"time_elapsed":183171,"internal_node_id":"0.0-9.0"},{"stimulus":"../static/img/is3/tf1/tf1_12_M_ss2.jpeg","correct":0,"choice":0,"accuracy":1,"rt":1477.614999981597,"item_set":3,"test_form":1,"distractor":"pd","trial_type":"mars","trial_index":18,"time_elapsed":185405,"internal_node_id":"0.0-10.0"},{"stimulus":"../static/img/is3/tf1/tf1_23_M_ss1.jpeg","correct":0,"choice":2,"accuracy":0,"rt":2084.294999949634,"item_set":3,"test_form":1,"distractor":"pd","trial_type":"mars","trial_index":19,"time_elapsed":188245,"internal_node_id":"0.0-11.0"},{"stimulus":"../static/img/is3/tf1/tf1_14_M_ss1.jpeg","correct":0,"choice":3,"accuracy":0,"rt":748.5749999759719,"item_set":3,"test_form":1,"distractor":"pd","trial_type":"mars","trial_index":20,"time_elapsed":189749,"internal_node_id":"0.0-12.0"},{"stimulus":"../static/img/is3/tf1/tf1_26_M_ss1.jpeg","correct":0,"choice":0,"accuracy":1,"rt":683.2500000018626,"item_set":3,"test_form":1,"distractor":"pd","trial_type":"mars","trial_index":21,"time_elapsed":191195,"internal_node_id":"0.0-13.0","interactions":"[]"}]