[{"rt":14270,"responses":{"age":"23","gender-categorical":"Female","gender-free-response":"","ethnicity":"Not Hispanic or Latino","race":["White"],"education":"Bachelor degree"},"trial_type":"survey-demo","trial_index":0,"time_elapsed":14280,"internal_node_id":"0.0-0.0"},{"view_history":[{"page_index":0,"viewing_time":12443},{"page_index":1,"viewing_time":10175},{"page_index":2,"viewing_time":1856}],"rt":24475,"trial_type":"instructions","trial_index":1,"time_elapsed":38756,"internal_node_id":"0.0-1.0"},{"stimulus":"../static/img/practice/pt1_M1.png","correct":0,"choice":0,"accuracy":1,"rt":6707,"item_set":"practice","trial_type":"mars","trial_index":2,"time_elapsed":47470,"internal_node_id":"0.0-2.0-0.0"},{"stimulus":"../static/img/practice/pt2_M1.png","correct":0,"choice":0,"accuracy":1,"rt":3880,"item_set":"practice","trial_type":"mars","trial_index":3,"time_elapsed":53359,"internal_node_id":"0.0-3.0-0.0"},{"stimulus":"../static/img/practice/pt3_M1.png","correct":0,"choice":0,"accuracy":1,"rt":2945,"item_set":"practice","trial_type":"mars","trial_index":4,"time_elapsed":58308,"internal_node_id":"0.0-4.0-0.0"},{"view_history":[{"page_index":0,"viewing_time":2005},{"page_index":1,"viewing_time":5240}],"rt":7245,"trial_type":"instructions","trial_index":5,"time_elapsed":65554,"internal_node_id":"0.0-5.0"},{"stimulus":"../static/img/is3/tf1/tf1_19_M_ss3.jpeg","correct":0,"choice":0,"accuracy":1,"rt":18861,"item_set":3,"test_form":1,"distractor":"pd","trial_type":"mars","trial_index":6,"time_elapsed":85172,"internal_node_id":"0.0-6.0"},{"stimulus":"../static/img/is3/tf1/tf1_20_M_ss1.jpeg","correct":0,"choice":0,"accuracy":1,"rt":10979,"item_set":3,"test_form":1,"distractor":"pd","trial_type":"mars","trial_index":7,"time_elapsed":96904,"internal_node_id":"0.0-7.0"},{"stimulus":"../static/img/is3/tf1/tf1_15_M_ss2.jpeg","correct":0,"choice":2,"accuracy":0,"rt":21134,"item_set":3,"test_form":1,"distractor":"pd","trial_type":"mars","trial_index":8,"time_elapsed":118791,"internal_node_id":"0.0-8.0"},{"stimulus":"../static/img/is3/tf1/tf1_10_M_ss3.jpeg","correct":0,"choice":0,"accuracy":1,"rt":11176,"item_set":3,"test_form":1,"distractor":"pd","trial_type":"mars","trial_index":9,"time_elapsed":130723,"internal_node_id":"0.0-9.0"},{"stimulus":"../static/img/is3/tf1/tf1_12_M_ss2.jpeg","correct":0,"choice":2,"accuracy":0,"rt":28250,"item_set":3,"test_form":1,"distractor":"pd","trial_type":"mars","trial_index":10,"time_elapsed":159729,"internal_node_id":"0.0-10.0"},{"stimulus":"../static/img/is3/tf1/tf1_23_M_ss1.jpeg","correct":0,"choice":0,"accuracy":1,"rt":13763,"item_set":3,"test_form":1,"distractor":"pd","trial_type":"mars","trial_index":11,"time_elapsed":174250,"internal_node_id":"0.0-11.0"},{"stimulus":"../static/img/is3/tf1/tf1_52_M_ss3.jpeg","correct":0,"choice":2,"accuracy":0,"rt":27028,"item_set":3,"test_form":1,"distractor":"pd","trial_type":"mars","trial_index":12,"time_elapsed":202035,"internal_node_id":"0.0-12.0"},{"stimulus":"../static/img/is3/tf1/tf1_59_M_ss1.jpeg","correct":0,"choice":3,"accuracy":0,"rt":21176,"item_set":3,"test_form":1,"distractor":"pd","trial_type":"mars","trial_index":13,"time_elapsed":223965,"internal_node_id":"0.0-13.0","interactions":"[{\"event\":\"focus\",\"trial\":0,\"time\":1}]"}]