[{"rt":12863.829999987502,"responses":{"age":"28","gender-categorical":"Male","gender-free-response":"","ethnicity":"Not Hispanic or Latino","race":["White"],"education":"Bachelor degree"},"trial_type":"survey-demo","trial_index":0,"time_elapsed":12867,"internal_node_id":"0.0-0.0"},{"view_history":[{"page_index":0,"viewing_time":7428.2050000038},{"page_index":1,"viewing_time":7574.729999992996},{"page_index":2,"viewing_time":1444.17999999132}],"rt":16447.79499998549,"trial_type":"instructions","trial_index":1,"time_elapsed":29318,"internal_node_id":"0.0-1.0"},{"stimulus":"../static/img/practice/pt1_M1.png","correct":0,"choice":1,"accuracy":0,"rt":1779.0699999895878,"item_set":"practice","trial_type":"mars","trial_index":2,"time_elapsed":33098,"internal_node_id":"0.0-2.0-0.0"},{"stimulus":"../static/img/practice/pt1_M1.png","correct":0,"choice":0,"accuracy":1,"rt":6342.194999975618,"item_set":"practice","trial_type":"mars","trial_index":3,"time_elapsed":41448,"internal_node_id":"0.0-2.1-0.1"},{"stimulus":"../static/img/practice/pt2_M1.png","correct":0,"choice":0,"accuracy":1,"rt":4888.40500000515,"item_set":"practice","trial_type":"mars","trial_index":4,"time_elapsed":48341,"internal_node_id":"0.0-3.0-0.0"},{"stimulus":"../static/img/practice/pt3_M1.png","correct":0,"choice":0,"accuracy":1,"rt":1937.6950000005309,"item_set":"practice","trial_type":"mars","trial_index":5,"time_elapsed":52284,"internal_node_id":"0.0-4.0-0.0"},{"view_history":[{"page_index":0,"viewing_time":1500.8299999753945},{"page_index":1,"viewing_time":1407.8950000111945}],"rt":2909.0849999920465,"trial_type":"instructions","trial_index":6,"time_elapsed":55198,"internal_node_id":"0.0-5.0"},{"stimulus":"../static/img/is3/tf1/tf1_19_M_ss3.jpeg","correct":0,"choice":2,"accuracy":0,"rt":3102.389999985462,"item_set":3,"test_form":1,"distractor":"pd","trial_type":"mars","trial_index":7,"time_elapsed":59053,"internal_node_id":"0.0-6.0"},{"stimulus":"../static/img/is3/tf1/tf1_20_M_ss1.jpeg","correct":0,"choice":1,"accuracy":0,"rt":1382.9249999835156,"item_set":3,"test_form":1,"distractor":"pd","trial_type":"mars","trial_index":8,"time_elapsed":61192,"internal_node_id":"0.0-7.0"},{"stimulus":"../static/img/is3/tf1/tf1_11_M_ss1.jpeg","correct":0,"choice":2,"accuracy":0,"rt":2120.280000002822,"item_set":3,"test_form":1,"distractor":"pd","trial_type":"mars","trial_index":9,"time_elapsed":64066,"internal_node_id":"0.0-8.0"},{"stimulus":"../static/img/is3/tf1/tf1_18_M_ss2.jpeg","correct":0,"choice":2,"accuracy":0,"rt":1741.3499999966007,"item_set":3,"test_form":1,"distractor":"pd","trial_type":"mars","trial_index":10,"time_elapsed":66564,"internal_node_id":"0.0-9.0"},{"stimulus":"../static/img/is3/tf1/tf1_16_M_ss3.jpeg","correct":0,"choice":2,"accuracy":0,"rt":1441.9050000142306,"item_set":3,"test_form":1,"distractor":"pd","trial_type":"mars","trial_index":11,"time_elapsed":68759,"internal_node_id":"0.0-10.0"},{"stimulus":"../static/img/is3/tf1/tf1_17_M_ss1.jpeg","correct":0,"choice":1,"accuracy":0,"rt":2575.845000013942,"item_set":3,"test_form":1,"distractor":"pd","trial_type":"mars","trial_index":12,"time_elapsed":72092,"internal_node_id":"0.0-11.0"},{"stimulus":"../static/img/is3/tf1/tf1_52_M_ss3.jpeg","correct":0,"choice":0,"accuracy":1,"rt":1393.0699999909848,"item_set":3,"test_form":1,"distractor":"pd","trial_type":"mars","trial_index":13,"time_elapsed":74243,"internal_node_id":"0.0-12.0"},{"stimulus":"../static/img/is3/tf1/tf1_59_M_ss1.jpeg","correct":0,"choice":2,"accuracy":0,"rt":2330.1500000234228,"item_set":3,"test_form":1,"distractor":"pd","trial_type":"mars","trial_index":14,"time_elapsed":77330,"internal_node_id":"0.0-13.0","interactions":"[]"}]