[{"rt":17343.580000000657,"responses":{"age":"45","gender-categorical":"Female","gender-free-response":"","ethnicity":"Not Hispanic or Latino","race":["White"],"education":"High school"},"trial_type":"survey-demo","trial_index":0,"time_elapsed":17347,"internal_node_id":"0.0-0.0"},{"view_history":[{"page_index":0,"viewing_time":24154.005000000325},{"page_index":1,"viewing_time":16970.540000000256},{"page_index":2,"viewing_time":9571.664999999477}],"rt":50696.67000000027,"trial_type":"instructions","trial_index":1,"time_elapsed":68042,"internal_node_id":"0.0-1.0"},{"stimulus":"../static/img/practice/pt1_M1.png","correct":0,"choice":0,"accuracy":1,"rt":8070.3800000001065,"item_set":"practice","trial_type":"mars","trial_index":2,"time_elapsed":78114,"internal_node_id":"0.0-2.0-0.0"},{"stimulus":"../static/img/practice/pt2_M1.png","correct":0,"choice":0,"accuracy":1,"rt":3021.0400000005466,"item_set":"practice","trial_type":"mars","trial_index":3,"time_elapsed":83140,"internal_node_id":"0.0-3.0-0.0"},{"stimulus":"../static/img/practice/pt3_M1.png","correct":0,"choice":0,"accuracy":1,"rt":2211.3349999999627,"item_set":"practice","trial_type":"mars","trial_index":4,"time_elapsed":87357,"internal_node_id":"0.0-4.0-0.0"},{"view_history":[{"page_index":0,"viewing_time":1443.215000000244},{"page_index":1,"viewing_time":4853.624999999738}],"rt":6297.340000000084,"trial_type":"instructions","trial_index":5,"time_elapsed":93656,"internal_node_id":"0.0-5.0"},{"stimulus":"../static/img/is3/tf1/tf1_19_M_ss3.jpeg","correct":0,"choice":0,"accuracy":1,"rt":9514.454999999536,"item_set":3,"test_form":1,"distractor":"pd","trial_type":"mars","trial_index":6,"time_elapsed":103924,"internal_node_id":"0.0-6.0"},{"stimulus":"../static/img/is3/tf1/tf1_20_M_ss1.jpeg","correct":0,"choice":0,"accuracy":1,"rt":15085.29500000077,"item_set":3,"test_form":1,"distractor":"pd","trial_type":"mars","trial_index":7,"time_elapsed":119763,"internal_node_id":"0.0-7.0"},{"stimulus":"../static/img/is3/tf1/tf1_15_M_ss2.jpeg","correct":0,"choice":0,"accuracy":1,"rt":13992.000000000175,"item_set":3,"test_form":1,"distractor":"pd","trial_type":"mars","trial_index":8,"time_elapsed":134509,"internal_node_id":"0.0-8.0"},{"stimulus":"../static/img/is3/tf1/tf1_10_M_ss3.jpeg","correct":0,"choice":2,"accuracy":0,"rt":9858.250000000233,"item_set":3,"test_form":1,"distractor":"pd","trial_type":"mars","trial_index":9,"time_elapsed":145122,"internal_node_id":"0.0-9.0"},{"stimulus":"../static/img/is3/tf1/tf1_12_M_ss2.jpeg","correct":0,"choice":3,"accuracy":0,"rt":12131.33500000005,"item_set":3,"test_form":1,"distractor":"pd","trial_type":"mars","trial_index":10,"time_elapsed":158007,"internal_node_id":"0.0-10.0"},{"stimulus":"../static/img/is3/tf1/tf1_23_M_ss1.jpeg","correct":0,"choice":0,"accuracy":1,"rt":13605.289999999513,"item_set":3,"test_form":1,"distractor":"pd","trial_type":"mars","trial_index":11,"time_elapsed":172367,"internal_node_id":"0.0-11.0"},{"stimulus":"../static/img/is3/tf1/tf1_14_M_ss1.jpeg","correct":0,"choice":1,"accuracy":0,"rt":12912.704999999754,"item_set":3,"test_form":1,"distractor":"pd","trial_type":"mars","trial_index":12,"time_elapsed":186036,"internal_node_id":"0.0-12.0"},{"stimulus":"../static/img/is3/tf1/tf1_26_M_ss1.jpeg","correct":0,"choice":0,"accuracy":1,"rt":12526.795000000682,"item_set":3,"test_form":1,"distractor":"pd","trial_type":"mars","trial_index":13,"time_elapsed":199318,"internal_node_id":"0.0-13.0","interactions":"[]"}]