[{"rt":9963.195000018459,"responses":{"age":"47","gender-categorical":"Male","gender-free-response":"","ethnicity":"Not Hispanic or Latino","race":["White"],"education":"Bachelor degree"},"trial_type":"survey-demo","trial_index":0,"time_elapsed":9967,"internal_node_id":"0.0-0.0"},{"view_history":[{"page_index":0,"viewing_time":6567.240000003949},{"page_index":1,"viewing_time":7703.704999992624},{"page_index":2,"viewing_time":1504.0549999685027}],"rt":15775.879999971949,"trial_type":"instructions","trial_index":1,"time_elapsed":25744,"internal_node_id":"0.0-1.0"},{"stimulus":"../static/img/practice/pt1_M1.png","correct":0,"choice":0,"accuracy":1,"rt":6918.629999971017,"item_set":"practice","trial_type":"mars","trial_index":2,"time_elapsed":34664,"internal_node_id":"0.0-2.0-0.0"},{"stimulus":"../static/img/practice/pt2_M1.png","correct":0,"choice":0,"accuracy":1,"rt":5888.059999968391,"item_set":"practice","trial_type":"mars","trial_index":3,"time_elapsed":42554,"internal_node_id":"0.0-3.0-0.0"},{"stimulus":"../static/img/practice/pt3_M1.png","correct":0,"choice":0,"accuracy":1,"rt":4003.4750000340864,"item_set":"practice","trial_type":"mars","trial_index":4,"time_elapsed":48560,"internal_node_id":"0.0-4.0-0.0"},{"view_history":[{"page_index":0,"viewing_time":1863.6100000003353},{"page_index":1,"viewing_time":3936.1299999873154}],"rt":5799.945000035223,"trial_type":"instructions","trial_index":5,"time_elapsed":54361,"internal_node_id":"0.0-5.0"},{"stimulus":"../static/img/is3/tf1/tf1_19_M_ss3.jpeg","correct":0,"choice":0,"accuracy":1,"rt":19356.89000005368,"item_set":3,"test_form":1,"distractor":"pd","trial_type":"mars","trial_index":6,"time_elapsed":74470,"internal_node_id":"0.0-6.0"},{"stimulus":"../static/img/is3/tf1/tf1_20_M_ss1.jpeg","correct":0,"choice":0,"accuracy":1,"rt":12074.314999976195,"item_set":3,"test_form":1,"distractor":"pd","trial_type":"mars","trial_index":7,"time_elapsed":87297,"internal_node_id":"0.0-7.0"},{"stimulus":"../static/img/is3/tf1/tf1_15_M_ss2.jpeg","correct":0,"choice":0,"accuracy":1,"rt":25875.594999990426,"item_set":3,"test_form":1,"distractor":"pd","trial_type":"mars","trial_index":8,"time_elapsed":113926,"internal_node_id":"0.0-8.0"},{"stimulus":"../static/img/is3/tf1/tf1_10_M_ss3.jpeg","correct":0,"choice":0,"accuracy":1,"rt":18963.075000036042,"item_set":3,"test_form":1,"distractor":"pd","trial_type":"mars","trial_index":9,"time_elapsed":133641,"internal_node_id":"0.0-9.0"},{"stimulus":"../static/img/is3/tf1/tf1_16_M_ss3.jpeg","correct":0,"choice":0,"accuracy":1,"rt":19613.10499999672,"item_set":3,"test_form":1,"distractor":"pd","trial_type":"mars","trial_index":10,"time_elapsed":154006,"internal_node_id":"0.0-10.0"},{"stimulus":"../static/img/is3/tf1/tf1_17_M_ss1.jpeg","correct":0,"choice":0,"accuracy":1,"rt":26151.539999991655,"item_set":3,"test_form":1,"distractor":"pd","trial_type":"mars","trial_index":11,"time_elapsed":180909,"internal_node_id":"0.0-11.0"},{"stimulus":"../static/img/is3/tf1/tf1_52_M_ss3.jpeg","correct":0,"choice":0,"accuracy":1,"rt":12206.795000005513,"item_set":3,"test_form":1,"distractor":"pd","trial_type":"mars","trial_index":12,"time_elapsed":193868,"internal_node_id":"0.0-12.0"},{"stimulus":"../static/img/is3/tf1/tf1_59_M_ss1.jpeg","correct":0,"choice":1,"accuracy":0,"rt":26470.130000030622,"item_set":3,"test_form":1,"distractor":"pd","trial_type":"mars","trial_index":13,"time_elapsed":221090,"internal_node_id":"0.0-13.0","interactions":"[]"}]