[{"rt":7932.724999962375,"responses":{"age":"33","gender-categorical":"Male","gender-free-response":"","ethnicity":"Not Hispanic or Latino","race":["White"],"education":"High school"},"trial_type":"survey-demo","trial_index":0,"time_elapsed":7944,"internal_node_id":"0.0-0.0"},{"view_history":[{"page_index":0,"viewing_time":9002.364999847487},{"page_index":1,"viewing_time":2116.755000082776},{"page_index":2,"viewing_time":1299.739999929443}],"rt":12419.495000038296,"trial_type":"instructions","trial_index":1,"time_elapsed":20366,"internal_node_id":"0.0-1.0"},{"stimulus":"../static/img/practice/pt1_M1.png","correct":0,"choice":0,"accuracy":1,"rt":5579.129999969155,"item_set":"practice","trial_type":"mars","trial_index":2,"time_elapsed":27947,"internal_node_id":"0.0-2.0-0.0"},{"stimulus":"../static/img/practice/pt2_M1.png","correct":0,"choice":0,"accuracy":1,"rt":2355.909999925643,"item_set":"practice","trial_type":"mars","trial_index":3,"time_elapsed":32306,"internal_node_id":"0.0-3.0-0.0"},{"stimulus":"../static/img/practice/pt3_M1.png","correct":0,"choice":0,"accuracy":1,"rt":1678.8749999832362,"item_set":"practice","trial_type":"mars","trial_index":4,"time_elapsed":35990,"internal_node_id":"0.0-4.0-0.0"},{"view_history":[{"page_index":0,"viewing_time":1456.7650000099093},{"page_index":1,"viewing_time":928.9650002028793}],"rt":2386.180000146851,"trial_type":"instructions","trial_index":5,"time_elapsed":38379,"internal_node_id":"0.0-5.0"},{"stimulus":"../static/img/is3/tf1/tf1_1_M_ss3.jpeg","correct":0,"choice":0,"accuracy":1,"rt":2585.6500000227243,"item_set":3,"test_form":1,"distractor":"pd","trial_type":"mars","trial_index":6,"time_elapsed":41716,"internal_node_id":"0.0-6.0"},{"stimulus":"../static/img/is3/tf1/tf1_6_M_ss2.jpeg","correct":0,"choice":0,"accuracy":1,"rt":5722.420000005513,"item_set":3,"test_form":1,"distractor":"pd","trial_type":"mars","trial_index":7,"time_elapsed":48193,"internal_node_id":"0.0-7.0"},{"stimulus":"../static/img/is3/tf1/tf1_15_M_ss2.jpeg","correct":0,"choice":0,"accuracy":1,"rt":11406.670000171289,"item_set":3,"test_form":1,"distractor":"pd","trial_type":"mars","trial_index":8,"time_elapsed":60353,"internal_node_id":"0.0-8.0"},{"stimulus":"../static/img/is3/tf1/tf1_10_M_ss3.jpeg","correct":0,"choice":0,"accuracy":1,"rt":20917.350000003353,"item_set":3,"test_form":1,"distractor":"pd","trial_type":"mars","trial_index":9,"time_elapsed":82025,"internal_node_id":"0.0-9.0"},{"stimulus":"../static/img/is3/tf1/tf1_16_M_ss3.jpeg","correct":0,"choice":0,"accuracy":1,"rt":16564.71999990754,"item_set":3,"test_form":1,"distractor":"pd","trial_type":"mars","trial_index":10,"time_elapsed":99344,"internal_node_id":"0.0-10.0"},{"stimulus":"../static/img/is3/tf1/tf1_17_M_ss1.jpeg","correct":0,"choice":0,"accuracy":1,"rt":14715.290000196546,"item_set":3,"test_form":1,"distractor":"pd","trial_type":"mars","trial_index":11,"time_elapsed":114812,"internal_node_id":"0.0-11.0"},{"stimulus":"../static/img/is3/tf1/tf1_14_M_ss1.jpeg","correct":0,"choice":2,"accuracy":0,"rt":16662.690000142902,"item_set":3,"test_form":1,"distractor":"pd","trial_type":"mars","trial_index":12,"time_elapsed":132239,"internal_node_id":"0.0-12.0"},{"stimulus":"../static/img/is3/tf1/tf1_26_M_ss1.jpeg","correct":0,"choice":0,"accuracy":1,"rt":13666.885000187904,"item_set":3,"test_form":1,"distractor":"pd","trial_type":"mars","trial_index":13,"time_elapsed":146659,"internal_node_id":"0.0-13.0","interactions":"[]"}]