[{"rt":12322.91499999701,"responses":{"age":"26","gender-categorical":"Male","gender-free-response":"","ethnicity":"Not Hispanic or Latino","race":["Black or African American"],"education":"Bachelor degree"},"trial_type":"survey-demo","trial_index":0,"time_elapsed":12332,"internal_node_id":"0.0-0.0"},{"view_history":[{"page_index":0,"viewing_time":21449.50499999686},{"page_index":1,"viewing_time":9223.609999986365},{"page_index":2,"viewing_time":1919.9050000170246}],"rt":32594.08499998972,"trial_type":"instructions","trial_index":1,"time_elapsed":44930,"internal_node_id":"0.0-1.0"},{"stimulus":"../static/img/practice/pt1_M1.png","correct":0,"choice":0,"accuracy":1,"rt":1517.8799999994226,"item_set":"practice","trial_type":"mars","trial_index":2,"time_elapsed":48451,"internal_node_id":"0.0-2.0-0.0"},{"stimulus":"../static/img/practice/pt2_M1.png","correct":0,"choice":0,"accuracy":1,"rt":1361.0899999912363,"item_set":"practice","trial_type":"mars","trial_index":3,"time_elapsed":51827,"internal_node_id":"0.0-3.0-0.0"},{"stimulus":"../static/img/practice/pt3_M1.png","correct":0,"choice":1,"accuracy":0,"rt":1603.3999999926891,"item_set":"practice","trial_type":"mars","trial_index":4,"time_elapsed":55442,"internal_node_id":"0.0-4.0-0.0"},{"stimulus":"../static/img/practice/pt3_M1.png","correct":0,"choice":0,"accuracy":1,"rt":1905.2950000041164,"item_set":"practice","trial_type":"mars","trial_index":5,"time_elapsed":59363,"internal_node_id":"0.0-4.1-0.1"},{"view_history":[{"page_index":0,"viewing_time":1324.9499999801628},{"page_index":1,"viewing_time":1096.0699999995995}],"rt":2421.5199999744073,"trial_type":"instructions","trial_index":6,"time_elapsed":61793,"internal_node_id":"0.0-5.0"},{"stimulus":"../static/img/is3/tf1/tf1_1_M_ss3.jpeg","correct":0,"choice":1,"accuracy":0,"rt":2886.28500001505,"item_set":3,"test_form":1,"distractor":"pd","trial_type":"mars","trial_index":7,"time_elapsed":65431,"internal_node_id":"0.0-6.0"},{"stimulus":"../static/img/is3/tf1/tf1_6_M_ss2.jpeg","correct":0,"choice":0,"accuracy":1,"rt":2298.1049999943934,"item_set":3,"test_form":1,"distractor":"pd","trial_type":"mars","trial_index":8,"time_elapsed":68488,"internal_node_id":"0.0-7.0"},{"stimulus":"../static/img/is3/tf1/tf1_11_M_ss1.jpeg","correct":0,"choice":3,"accuracy":0,"rt":2454.2749999964144,"item_set":3,"test_form":1,"distractor":"pd","trial_type":"mars","trial_index":9,"time_elapsed":71705,"internal_node_id":"0.0-8.0"},{"stimulus":"../static/img/is3/tf1/tf1_18_M_ss2.jpeg","correct":0,"choice":3,"accuracy":0,"rt":1275.5450000113342,"item_set":3,"test_form":1,"distractor":"pd","trial_type":"mars","trial_index":10,"time_elapsed":73744,"internal_node_id":"0.0-9.0"},{"stimulus":"../static/img/is3/tf1/tf1_16_M_ss3.jpeg","correct":0,"choice":2,"accuracy":0,"rt":1257.1100000059232,"item_set":3,"test_form":1,"distractor":"pd","trial_type":"mars","trial_index":11,"time_elapsed":75768,"internal_node_id":"0.0-10.0"},{"stimulus":"../static/img/is3/tf1/tf1_17_M_ss1.jpeg","correct":0,"choice":2,"accuracy":0,"rt":934.6150000055786,"item_set":3,"test_form":1,"distractor":"pd","trial_type":"mars","trial_index":12,"time_elapsed":77464,"internal_node_id":"0.0-11.0"},{"stimulus":"../static/img/is3/tf1/tf1_52_M_ss3.jpeg","correct":0,"choice":0,"accuracy":1,"rt":777.540000010049,"item_set":3,"test_form":1,"distractor":"pd","trial_type":"mars","trial_index":13,"time_elapsed":79001,"internal_node_id":"0.0-12.0"},{"stimulus":"../static/img/is3/tf1/tf1_59_M_ss1.jpeg","correct":0,"choice":1,"accuracy":0,"rt":1362.170000007609,"item_set":3,"test_form":1,"distractor":"pd","trial_type":"mars","trial_index":14,"time_elapsed":81128,"internal_node_id":"0.0-13.0","interactions":"[]"}]