[{"rt":12639.910000027157,"responses":{"age":"34","gender-categorical":"Male","gender-free-response":"","ethnicity":"Not Hispanic or Latino","race":["White"],"education":"High school"},"trial_type":"survey-demo","trial_index":0,"time_elapsed":12646,"internal_node_id":"0.0-0.0"},{"view_history":[{"page_index":0,"viewing_time":7827.084999997169},{"page_index":1,"viewing_time":6578.640000021551},{"page_index":2,"viewing_time":1732.1699999738485}],"rt":16139.780000026803,"trial_type":"instructions","trial_index":1,"time_elapsed":28789,"internal_node_id":"0.0-1.0"},{"stimulus":"../static/img/practice/pt1_M1.png","correct":0,"choice":0,"accuracy":1,"rt":6415.440000011586,"item_set":"practice","trial_type":"mars","trial_index":2,"time_elapsed":37208,"internal_node_id":"0.0-2.0-0.0"},{"stimulus":"../static/img/practice/pt2_M1.png","correct":0,"choice":0,"accuracy":1,"rt":4306.864999991376,"item_set":"practice","trial_type":"mars","trial_index":3,"time_elapsed":43518,"internal_node_id":"0.0-3.0-0.0"},{"stimulus":"../static/img/practice/pt3_M1.png","correct":0,"choice":0,"accuracy":1,"rt":2102.619999961462,"item_set":"practice","trial_type":"mars","trial_index":4,"time_elapsed":47622,"internal_node_id":"0.0-4.0-0.0"},{"view_history":[{"page_index":0,"viewing_time":1448.1650000088848},{"page_index":1,"viewing_time":2395.520000020042}],"rt":3844.0600000321865,"trial_type":"instructions","trial_index":5,"time_elapsed":51467,"internal_node_id":"0.0-5.0"},{"stimulus":"../static/img/is3/tf1/tf1_1_M_ss3.jpeg","correct":0,"choice":0,"accuracy":1,"rt":2816.6000000201166,"item_set":3,"test_form":1,"distractor":"pd","trial_type":"mars","trial_index":6,"time_elapsed":55036,"internal_node_id":"0.0-6.0"},{"stimulus":"../static/img/is3/tf1/tf1_6_M_ss2.jpeg","correct":0,"choice":0,"accuracy":1,"rt":8026.100000017323,"item_set":3,"test_form":1,"distractor":"pd","trial_type":"mars","trial_index":7,"time_elapsed":63816,"internal_node_id":"0.0-7.0"},{"stimulus":"../static/img/is3/tf1/tf1_11_M_ss1.jpeg","correct":0,"choice":0,"accuracy":1,"rt":14990.370000014082,"item_set":3,"test_form":1,"distractor":"pd","trial_type":"mars","trial_index":8,"time_elapsed":79559,"internal_node_id":"0.0-8.0"},{"stimulus":"../static/img/is3/tf1/tf1_18_M_ss2.jpeg","correct":0,"choice":0,"accuracy":1,"rt":15499.385000031907,"item_set":3,"test_form":1,"distractor":"pd","trial_type":"mars","trial_index":9,"time_elapsed":95811,"internal_node_id":"0.0-9.0"},{"stimulus":"../static/img/is3/tf1/tf1_16_M_ss3.jpeg","correct":0,"choice":0,"accuracy":1,"rt":8189.635000017006,"item_set":3,"test_form":1,"distractor":"pd","trial_type":"mars","trial_index":10,"time_elapsed":104753,"internal_node_id":"0.0-10.0"},{"stimulus":"../static/img/is3/tf1/tf1_17_M_ss1.jpeg","correct":0,"choice":0,"accuracy":1,"rt":16098.259999998845,"item_set":3,"test_form":1,"distractor":"pd","trial_type":"mars","trial_index":11,"time_elapsed":121604,"internal_node_id":"0.0-11.0"},{"stimulus":"../static/img/is3/tf1/tf1_52_M_ss3.jpeg","correct":0,"choice":2,"accuracy":0,"rt":15160.635000036564,"item_set":3,"test_form":1,"distractor":"pd","trial_type":"mars","trial_index":12,"time_elapsed":137517,"internal_node_id":"0.0-12.0"},{"stimulus":"../static/img/is3/tf1/tf1_59_M_ss1.jpeg","correct":0,"choice":3,"accuracy":0,"rt":9608.364999992773,"item_set":3,"test_form":1,"distractor":"pd","trial_type":"mars","trial_index":13,"time_elapsed":147877,"internal_node_id":"0.0-13.0","interactions":"[]"}]