[{"rt":8725,"responses":{"age":"27","gender-categorical":"Male","gender-free-response":"","ethnicity":"Not Hispanic or Latino","race":["White"],"education":"Bachelor degree"},"trial_type":"survey-demo","trial_index":0,"time_elapsed":8732,"internal_node_id":"0.0-0.0"},{"view_history":[{"page_index":0,"viewing_time":8594},{"page_index":1,"viewing_time":3913},{"page_index":2,"viewing_time":1333}],"rt":13841,"trial_type":"instructions","trial_index":1,"time_elapsed":22580,"internal_node_id":"0.0-1.0"},{"stimulus":"../static/img/practice/pt1_M1.png","correct":0,"choice":0,"accuracy":1,"rt":6408,"item_set":"practice","trial_type":"mars","trial_index":2,"time_elapsed":30996,"internal_node_id":"0.0-2.0-0.0"},{"stimulus":"../static/img/practice/pt2_M1.png","correct":0,"choice":0,"accuracy":1,"rt":2625,"item_set":"practice","trial_type":"mars","trial_index":3,"time_elapsed":35623,"internal_node_id":"0.0-3.0-0.0"},{"stimulus":"../static/img/practice/pt3_M1.png","correct":0,"choice":0,"accuracy":1,"rt":2236,"item_set":"practice","trial_type":"mars","trial_index":4,"time_elapsed":39865,"internal_node_id":"0.0-4.0-0.0"},{"view_history":[{"page_index":0,"viewing_time":2013},{"page_index":1,"viewing_time":2308}],"rt":4321,"trial_type":"instructions","trial_index":5,"time_elapsed":44188,"internal_node_id":"0.0-5.0"},{"stimulus":"../static/img/is3/tf1/tf1_1_M_ss3.jpeg","correct":0,"choice":0,"accuracy":1,"rt":3542,"item_set":3,"test_form":1,"distractor":"pd","trial_type":"mars","trial_index":6,"time_elapsed":48491,"internal_node_id":"0.0-6.0"},{"stimulus":"../static/img/is3/tf1/tf1_6_M_ss2.jpeg","correct":0,"choice":1,"accuracy":0,"rt":13296,"item_set":3,"test_form":1,"distractor":"pd","trial_type":"mars","trial_index":7,"time_elapsed":62540,"internal_node_id":"0.0-7.0"},{"stimulus":"../static/img/is3/tf1/tf1_15_M_ss2.jpeg","correct":0,"choice":0,"accuracy":1,"rt":13071,"item_set":3,"test_form":1,"distractor":"pd","trial_type":"mars","trial_index":8,"time_elapsed":76364,"internal_node_id":"0.0-8.0"},{"stimulus":"../static/img/is3/tf1/tf1_10_M_ss3.jpeg","correct":0,"choice":0,"accuracy":1,"rt":20408,"item_set":3,"test_form":1,"distractor":"pd","trial_type":"mars","trial_index":9,"time_elapsed":97526,"internal_node_id":"0.0-9.0"},{"stimulus":"../static/img/is3/tf1/tf1_12_M_ss2.jpeg","correct":0,"choice":0,"accuracy":1,"rt":15719,"item_set":3,"test_form":1,"distractor":"pd","trial_type":"mars","trial_index":10,"time_elapsed":114000,"internal_node_id":"0.0-10.0"},{"stimulus":"../static/img/is3/tf1/tf1_23_M_ss1.jpeg","correct":0,"choice":0,"accuracy":1,"rt":10259,"item_set":3,"test_form":1,"distractor":"pd","trial_type":"mars","trial_index":11,"time_elapsed":125013,"internal_node_id":"0.0-11.0"},{"stimulus":"../static/img/is3/tf1/tf1_14_M_ss1.jpeg","correct":0,"choice":3,"accuracy":0,"rt":19233,"item_set":3,"test_form":1,"distractor":"pd","trial_type":"mars","trial_index":12,"time_elapsed":144998,"internal_node_id":"0.0-12.0"},{"stimulus":"../static/img/is3/tf1/tf1_26_M_ss1.jpeg","correct":0,"choice":3,"accuracy":0,"rt":16285,"item_set":3,"test_form":1,"distractor":"pd","trial_type":"mars","trial_index":13,"time_elapsed":162038,"internal_node_id":"0.0-13.0","interactions":"[{\"event\":\"focus\",\"trial\":0,\"time\":3},{\"event\":\"blur\",\"trial\":0,\"time\":192},{\"event\":\"focus\",\"trial\":0,\"time\":1796},{\"event\":\"blur\",\"trial\":0,\"time\":3579},{\"event\":\"focus\",\"trial\":0,\"time\":4503},{\"event\":\"blur\",\"trial\":1,\"time\":12954},{\"event\":\"focus\",\"trial\":1,\"time\":13858},{\"event\":\"blur\",\"trial\":1,\"time\":15039},{\"event\":\"focus\",\"trial\":1,\"time\":17330},{\"event\":\"blur\",\"trial\":2,\"time\":24282},{\"event\":\"focus\",\"trial\":2,\"time\":28991},{\"event\":\"blur\",\"trial\":3,\"time\":34203},{\"event\":\"focus\",\"trial\":4,\"time\":37837},{\"event\":\"blur\",\"trial\":4,\"time\":38357},{\"event\":\"focus\",\"trial\":5,\"time\":41871},{\"event\":\"blur\",\"trial\":6,\"time\":44893},{\"event\":\"focus\",\"trial\":6,\"time\":47736},{\"event\":\"blur\",\"trial\":7,\"time\":53965},{\"event\":\"focus\",\"trial\":7,\"time\":61781},{\"event\":\"blur\",\"trial\":8,\"time\":66528},{\"event\":\"focus\",\"trial\":8,\"time\":75611},{\"event\":\"blur\",\"trial\":9,\"time\":76450},{\"event\":\"focus\",\"trial\":9,\"time\":96758},{\"event\":\"blur\",\"trial\":9,\"time\":97284},{\"event\":\"focus\",\"trial\":10,\"time\":113243},{\"event\":\"blur\",\"trial\":11,\"time\":116541},{\"event\":\"focus\",\"trial\":11,\"time\":124250},{\"event\":\"blur\",\"trial\":12,\"time\":126603},{\"event\":\"focus\",\"trial\":12,\"time\":144234},{\"event\":\"blur\",\"trial\":13,\"time\":148223},{\"event\":\"focus\",\"trial\":13,\"time\":161273},{\"event\":\"blur\",\"trial\":13,\"time\":161698}]"}]