[{"rt":6754.630000039469,"responses":{"age":"29","gender-categorical":"Female","gender-free-response":"","ethnicity":"Not Hispanic or Latino","race":["White"],"education":"Associate degree"},"trial_type":"survey-demo","trial_index":0,"time_elapsed":6762,"internal_node_id":"0.0-0.0"},{"view_history":[{"page_index":0,"viewing_time":9476.405000023078},{"page_index":1,"viewing_time":7251.089999976102},{"page_index":2,"viewing_time":1235.7000000192784}],"rt":17964.679999975488,"trial_type":"instructions","trial_index":1,"time_elapsed":24729,"internal_node_id":"0.0-1.0"},{"stimulus":"../static/img/practice/pt1_M1.png","correct":0,"choice":0,"accuracy":1,"rt":5604.530000011437,"item_set":"practice","trial_type":"mars","trial_index":2,"time_elapsed":32351,"internal_node_id":"0.0-2.0-0.0"},{"stimulus":"../static/img/practice/pt2_M1.png","correct":0,"choice":0,"accuracy":1,"rt":2486.869999964256,"item_set":"practice","trial_type":"mars","trial_index":3,"time_elapsed":36855,"internal_node_id":"0.0-3.0-0.0"},{"stimulus":"../static/img/practice/pt3_M1.png","correct":0,"choice":0,"accuracy":1,"rt":2128.150000004098,"item_set":"practice","trial_type":"mars","trial_index":4,"time_elapsed":40990,"internal_node_id":"0.0-4.0-0.0"},{"view_history":[{"page_index":0,"viewing_time":1311.9850000366569},{"page_index":1,"viewing_time":2158.2249999628402}],"rt":3470.74000001885,"trial_type":"instructions","trial_index":5,"time_elapsed":44462,"internal_node_id":"0.0-5.0"},{"stimulus":"../static/img/is3/tf1/tf1_19_M_ss3.jpeg","correct":0,"choice":0,"accuracy":1,"rt":5615.095000015572,"item_set":3,"test_form":1,"distractor":"pd","trial_type":"mars","trial_index":6,"time_elapsed":50831,"internal_node_id":"0.0-6.0"},{"stimulus":"../static/img/is3/tf1/tf1_20_M_ss1.jpeg","correct":0,"choice":0,"accuracy":1,"rt":7129.500000039116,"item_set":3,"test_form":1,"distractor":"pd","trial_type":"mars","trial_index":7,"time_elapsed":58715,"internal_node_id":"0.0-7.0"},{"stimulus":"../static/img/is3/tf1/tf1_11_M_ss1.jpeg","correct":0,"choice":3,"accuracy":0,"rt":8692.65500002075,"item_set":3,"test_form":1,"distractor":"pd","trial_type":"mars","trial_index":8,"time_elapsed":68169,"internal_node_id":"0.0-8.0"},{"stimulus":"../static/img/is3/tf1/tf1_18_M_ss2.jpeg","correct":0,"choice":0,"accuracy":1,"rt":9938.510000007227,"item_set":3,"test_form":1,"distractor":"pd","trial_type":"mars","trial_index":9,"time_elapsed":78869,"internal_node_id":"0.0-9.0"},{"stimulus":"../static/img/is3/tf1/tf1_16_M_ss3.jpeg","correct":0,"choice":0,"accuracy":1,"rt":4252.670000016224,"item_set":3,"test_form":1,"distractor":"pd","trial_type":"mars","trial_index":10,"time_elapsed":83877,"internal_node_id":"0.0-10.0"},{"stimulus":"../static/img/is3/tf1/tf1_17_M_ss1.jpeg","correct":0,"choice":1,"accuracy":0,"rt":8544.475000002421,"item_set":3,"test_form":1,"distractor":"pd","trial_type":"mars","trial_index":11,"time_elapsed":93184,"internal_node_id":"0.0-11.0"},{"stimulus":"../static/img/is3/tf1/tf1_52_M_ss3.jpeg","correct":0,"choice":1,"accuracy":0,"rt":13866.284999996424,"item_set":3,"test_form":1,"distractor":"pd","trial_type":"mars","trial_index":12,"time_elapsed":107805,"internal_node_id":"0.0-12.0"},{"stimulus":"../static/img/is3/tf1/tf1_59_M_ss1.jpeg","correct":0,"choice":3,"accuracy":0,"rt":6943.395000009332,"item_set":3,"test_form":1,"distractor":"pd","trial_type":"mars","trial_index":13,"time_elapsed":115517,"internal_node_id":"0.0-13.0","interactions":"[{\"event\":\"blur\",\"trial\":12,\"time\":104245},{\"event\":\"focus\",\"trial\":12,\"time\":105384},{\"event\":\"blur\",\"trial\":12,\"time\":105745},{\"event\":\"focus\",\"trial\":12,\"time\":106659},{\"event\":\"blur\",\"trial\":13,\"time\":108640},{\"event\":\"focus\",\"trial\":13,\"time\":108985}]"}]