[{"rt":15664.984999999433,"responses":{"age":"56","gender-categorical":"Female","gender-free-response":"","ethnicity":"Not Hispanic or Latino","race":["White"],"education":"High school"},"trial_type":"survey-demo","trial_index":0,"time_elapsed":15671,"internal_node_id":"0.0-0.0"},{"view_history":[{"page_index":0,"viewing_time":13068.769999999859},{"page_index":1,"viewing_time":2611.385000000155},{"page_index":2,"viewing_time":1561.8500000000495}],"rt":17243.344999998953,"trial_type":"instructions","trial_index":1,"time_elapsed":32916,"internal_node_id":"0.0-1.0"},{"stimulus":"../static/img/practice/pt1_M1.png","correct":0,"choice":0,"accuracy":1,"rt":4476.859999998851,"item_set":"practice","trial_type":"mars","trial_index":2,"time_elapsed":39396,"internal_node_id":"0.0-2.0-0.0"},{"stimulus":"../static/img/practice/pt2_M1.png","correct":0,"choice":0,"accuracy":1,"rt":3282.2349999987637,"item_set":"practice","trial_type":"mars","trial_index":3,"time_elapsed":44682,"internal_node_id":"0.0-3.0-0.0"},{"stimulus":"../static/img/practice/pt3_M1.png","correct":0,"choice":0,"accuracy":1,"rt":1877.490000000762,"item_set":"practice","trial_type":"mars","trial_index":4,"time_elapsed":48562,"internal_node_id":"0.0-4.0-0.0"},{"view_history":[{"page_index":0,"viewing_time":1958.0649999988964},{"page_index":1,"viewing_time":1979.7200000011799}],"rt":3938.209999998435,"trial_type":"instructions","trial_index":5,"time_elapsed":52501,"internal_node_id":"0.0-5.0"},{"stimulus":"../static/img/is3/tf1/tf1_19_M_ss3.jpeg","correct":0,"choice":0,"accuracy":1,"rt":9412.94999999991,"item_set":3,"test_form":1,"distractor":"pd","trial_type":"mars","trial_index":6,"time_elapsed":62666,"internal_node_id":"0.0-6.0"},{"stimulus":"../static/img/is3/tf1/tf1_20_M_ss1.jpeg","correct":0,"choice":2,"accuracy":0,"rt":14559.319999998479,"item_set":3,"test_form":1,"distractor":"pd","trial_type":"mars","trial_index":7,"time_elapsed":77978,"internal_node_id":"0.0-7.0"},{"stimulus":"../static/img/is3/tf1/tf1_11_M_ss1.jpeg","correct":0,"choice":2,"accuracy":0,"rt":10790.815000000293,"item_set":3,"test_form":1,"distractor":"pd","trial_type":"mars","trial_index":8,"time_elapsed":89522,"internal_node_id":"0.0-8.0"},{"stimulus":"../static/img/is3/tf1/tf1_18_M_ss2.jpeg","correct":0,"choice":1,"accuracy":0,"rt":15624.915000000328,"item_set":3,"test_form":1,"distractor":"pd","trial_type":"mars","trial_index":9,"time_elapsed":105899,"internal_node_id":"0.0-9.0"},{"stimulus":"../static/img/is3/tf1/tf1_12_M_ss2.jpeg","correct":0,"choice":2,"accuracy":0,"rt":10652.305000001434,"item_set":3,"test_form":1,"distractor":"pd","trial_type":"mars","trial_index":10,"time_elapsed":117304,"internal_node_id":"0.0-10.0"},{"stimulus":"../static/img/is3/tf1/tf1_23_M_ss1.jpeg","correct":0,"choice":1,"accuracy":0,"rt":12173.015000000305,"item_set":3,"test_form":1,"distractor":"pd","trial_type":"mars","trial_index":11,"time_elapsed":130230,"internal_node_id":"0.0-11.0"},{"stimulus":"../static/img/is3/tf1/tf1_14_M_ss1.jpeg","correct":0,"choice":1,"accuracy":0,"rt":19033.660000000964,"item_set":3,"test_form":1,"distractor":"pd","trial_type":"mars","trial_index":12,"time_elapsed":150016,"internal_node_id":"0.0-12.0"},{"stimulus":"../static/img/is3/tf1/tf1_26_M_ss1.jpeg","correct":0,"choice":2,"accuracy":0,"rt":8775.18999999846,"item_set":3,"test_form":1,"distractor":"pd","trial_type":"mars","trial_index":13,"time_elapsed":159544,"internal_node_id":"0.0-13.0","interactions":"[]"}]