[{"rt":19523.494999972172,"responses":{"age":"55","gender-categorical":"Female","gender-free-response":"","ethnicity":"Not Hispanic or Latino","race":["White"],"education":"Associate degree"},"trial_type":"survey-demo","trial_index":0,"time_elapsed":19533,"internal_node_id":"0.0-0.0"},{"view_history":[{"page_index":0,"viewing_time":18264.3350000144},{"page_index":1,"viewing_time":10771.805000025779},{"page_index":2,"viewing_time":3142.6399999763817}],"rt":32180.48500001896,"trial_type":"instructions","trial_index":1,"time_elapsed":51716,"internal_node_id":"0.0-1.0"},{"stimulus":"../static/img/practice/pt1_M1.png","correct":0,"choice":0,"accuracy":1,"rt":6241.574999992736,"item_set":"practice","trial_type":"mars","trial_index":2,"time_elapsed":60005,"internal_node_id":"0.0-2.0-0.0"},{"stimulus":"../static/img/practice/pt2_M1.png","correct":0,"choice":0,"accuracy":1,"rt":4813.250000006519,"item_set":"practice","trial_type":"mars","trial_index":3,"time_elapsed":66824,"internal_node_id":"0.0-3.0-0.0"},{"stimulus":"../static/img/practice/pt3_M1.png","correct":0,"choice":0,"accuracy":1,"rt":2988.595000002533,"item_set":"practice","trial_type":"mars","trial_index":4,"time_elapsed":71817,"internal_node_id":"0.0-4.0-0.0"},{"view_history":[{"page_index":0,"viewing_time":2253.354999993462},{"page_index":1,"viewing_time":2466.535000014119}],"rt":4720.934999990277,"trial_type":"instructions","trial_index":5,"time_elapsed":76539,"internal_node_id":"0.0-5.0"},{"stimulus":"../static/img/is3/tf1/tf1_19_M_ss3.jpeg","correct":0,"choice":0,"accuracy":1,"rt":13983.294999983627,"item_set":3,"test_form":1,"distractor":"pd","trial_type":"mars","trial_index":6,"time_elapsed":91277,"internal_node_id":"0.0-6.0"},{"stimulus":"../static/img/is3/tf1/tf1_20_M_ss1.jpeg","correct":0,"choice":0,"accuracy":1,"rt":11590.254999988247,"item_set":3,"test_form":1,"distractor":"pd","trial_type":"mars","trial_index":7,"time_elapsed":103621,"internal_node_id":"0.0-7.0"},{"stimulus":"../static/img/is3/tf1/tf1_15_M_ss2.jpeg","correct":0,"choice":3,"accuracy":0,"rt":12038.72999997111,"item_set":3,"test_form":1,"distractor":"pd","trial_type":"mars","trial_index":8,"time_elapsed":116414,"internal_node_id":"0.0-8.0"},{"stimulus":"../static/img/is3/tf1/tf1_10_M_ss3.jpeg","correct":0,"choice":3,"accuracy":0,"rt":18649.290000030305,"item_set":3,"test_form":1,"distractor":"pd","trial_type":"mars","trial_index":9,"time_elapsed":135818,"internal_node_id":"0.0-9.0"},{"stimulus":"../static/img/is3/tf1/tf1_12_M_ss2.jpeg","correct":0,"choice":1,"accuracy":0,"rt":18612.974999996368,"item_set":3,"test_form":1,"distractor":"pd","trial_type":"mars","trial_index":10,"time_elapsed":155183,"internal_node_id":"0.0-10.0"},{"stimulus":"../static/img/is3/tf1/tf1_23_M_ss1.jpeg","correct":0,"choice":2,"accuracy":0,"rt":10854.204999981448,"item_set":3,"test_form":1,"distractor":"pd","trial_type":"mars","trial_index":11,"time_elapsed":166791,"internal_node_id":"0.0-11.0"},{"stimulus":"../static/img/is3/tf1/tf1_14_M_ss1.jpeg","correct":0,"choice":null,"accuracy":null,"rt":null,"item_set":3,"test_form":1,"distractor":"pd","trial_type":"mars","trial_index":12,"time_elapsed":196800,"internal_node_id":"0.0-12.0"},{"stimulus":"../static/img/is3/tf1/tf1_26_M_ss1.jpeg","correct":0,"choice":1,"accuracy":0,"rt":14000.434999994468,"item_set":3,"test_form":1,"distractor":"pd","trial_type":"mars","trial_index":13,"time_elapsed":211553,"internal_node_id":"0.0-13.0","interactions":"[]"}]