[{"rt":11972.450000001118,"responses":{"age":"28","gender-categorical":"Male","gender-free-response":"","ethnicity":"Not Hispanic or Latino","race":["White"],"education":"Bachelor degree"},"trial_type":"survey-demo","trial_index":0,"time_elapsed":11975,"internal_node_id":"0.0-0.0"},{"view_history":[{"page_index":0,"viewing_time":7323.144999998476},{"page_index":1,"viewing_time":6591.6550000001735},{"page_index":2,"viewing_time":1280.095000001893}],"rt":15195.165000000998,"trial_type":"instructions","trial_index":1,"time_elapsed":27173,"internal_node_id":"0.0-1.0"},{"stimulus":"../static/img/practice/pt1_M1.png","correct":0,"choice":2,"accuracy":0,"rt":6047.214999998687,"item_set":"practice","trial_type":"mars","trial_index":2,"time_elapsed":35222,"internal_node_id":"0.0-2.0-0.0"},{"stimulus":"../static/img/practice/pt1_M1.png","correct":0,"choice":1,"accuracy":0,"rt":5528.505000002042,"item_set":"practice","trial_type":"mars","trial_index":3,"time_elapsed":42757,"internal_node_id":"0.0-2.1-0.1"},{"stimulus":"../static/img/practice/pt1_M1.png","correct":0,"choice":3,"accuracy":0,"rt":10481.139999999868,"item_set":"practice","trial_type":"mars","trial_index":4,"time_elapsed":55246,"internal_node_id":"0.0-2.2-0.2"},{"stimulus":"../static/img/practice/pt1_M1.png","correct":0,"choice":0,"accuracy":1,"rt":6312.724999999773,"item_set":"practice","trial_type":"mars","trial_index":5,"time_elapsed":63566,"internal_node_id":"0.0-2.3-0.3"},{"stimulus":"../static/img/practice/pt2_M1.png","correct":0,"choice":0,"accuracy":1,"rt":3451.105000000098,"item_set":"practice","trial_type":"mars","trial_index":6,"time_elapsed":69023,"internal_node_id":"0.0-3.0-0.0"},{"stimulus":"../static/img/practice/pt3_M1.png","correct":0,"choice":0,"accuracy":1,"rt":1747.3599999975704,"item_set":"practice","trial_type":"mars","trial_index":7,"time_elapsed":72782,"internal_node_id":"0.0-4.0-0.0"},{"view_history":[{"page_index":0,"viewing_time":1484.7799999988638},{"page_index":1,"viewing_time":2416.509999999107}],"rt":3901.4849999985017,"trial_type":"instructions","trial_index":8,"time_elapsed":76686,"internal_node_id":"0.0-5.0"},{"stimulus":"../static/img/is3/tf1/tf1_1_M_ss3.jpeg","correct":0,"choice":0,"accuracy":1,"rt":2749.9750000024505,"item_set":3,"test_form":1,"distractor":"pd","trial_type":"mars","trial_index":9,"time_elapsed":80188,"internal_node_id":"0.0-6.0"},{"stimulus":"../static/img/is3/tf1/tf1_6_M_ss2.jpeg","correct":0,"choice":2,"accuracy":0,"rt":11414.434999998775,"item_set":3,"test_form":1,"distractor":"pd","trial_type":"mars","trial_index":10,"time_elapsed":92364,"internal_node_id":"0.0-7.0"},{"stimulus":"../static/img/is3/tf1/tf1_11_M_ss1.jpeg","correct":0,"choice":2,"accuracy":0,"rt":22106.189999998605,"item_set":3,"test_form":1,"distractor":"pd","trial_type":"mars","trial_index":11,"time_elapsed":115228,"internal_node_id":"0.0-8.0"},{"stimulus":"../static/img/is3/tf1/tf1_18_M_ss2.jpeg","correct":0,"choice":0,"accuracy":1,"rt":11402.980000002572,"item_set":3,"test_form":1,"distractor":"pd","trial_type":"mars","trial_index":12,"time_elapsed":127389,"internal_node_id":"0.0-9.0"},{"stimulus":"../static/img/is3/tf1/tf1_16_M_ss3.jpeg","correct":0,"choice":0,"accuracy":1,"rt":6626.0200000033365,"item_set":3,"test_form":1,"distractor":"pd","trial_type":"mars","trial_index":13,"time_elapsed":134772,"internal_node_id":"0.0-10.0"},{"stimulus":"../static/img/is3/tf1/tf1_17_M_ss1.jpeg","correct":0,"choice":1,"accuracy":0,"rt":26125.915000000532,"item_set":3,"test_form":1,"distractor":"pd","trial_type":"mars","trial_index":14,"time_elapsed":161652,"internal_node_id":"0.0-11.0"},{"stimulus":"../static/img/is3/tf1/tf1_14_M_ss1.jpeg","correct":0,"choice":1,"accuracy":0,"rt":8234.670000001643,"item_set":3,"test_form":1,"distractor":"pd","trial_type":"mars","trial_index":15,"time_elapsed":170645,"internal_node_id":"0.0-12.0"},{"stimulus":"../static/img/is3/tf1/tf1_26_M_ss1.jpeg","correct":0,"choice":3,"accuracy":0,"rt":10913.935000000492,"item_set":3,"test_form":1,"distractor":"pd","trial_type":"mars","trial_index":16,"time_elapsed":182316,"internal_node_id":"0.0-13.0","interactions":"[{\"event\":\"blur\",\"trial\":1,\"time\":23223},{\"event\":\"focus\",\"trial\":1,\"time\":24494}]"}]