[{"rt":11919.800000003306,"responses":{"age":"46","gender-categorical":"Male","gender-free-response":"","ethnicity":"Not Hispanic or Latino","race":["White"],"education":"High school"},"trial_type":"survey-demo","trial_index":0,"time_elapsed":11922,"internal_node_id":"0.0-0.0"},{"view_history":[{"page_index":0,"viewing_time":6037.739999999758},{"page_index":1,"viewing_time":4117.92499999865},{"page_index":2,"viewing_time":1521.9750000105705}],"rt":11678.12500000582,"trial_type":"instructions","trial_index":1,"time_elapsed":23601,"internal_node_id":"0.0-1.0"},{"stimulus":"../static/img/practice/pt1_M1.png","correct":0,"choice":0,"accuracy":1,"rt":5173.100000014529,"item_set":"practice","trial_type":"mars","trial_index":2,"time_elapsed":30776,"internal_node_id":"0.0-2.0-0.0"},{"stimulus":"../static/img/practice/pt2_M1.png","correct":0,"choice":0,"accuracy":1,"rt":2951.070000010077,"item_set":"practice","trial_type":"mars","trial_index":3,"time_elapsed":35730,"internal_node_id":"0.0-3.0-0.0"},{"stimulus":"../static/img/practice/pt3_M1.png","correct":0,"choice":0,"accuracy":1,"rt":1860.0450000085402,"item_set":"practice","trial_type":"mars","trial_index":4,"time_elapsed":39592,"internal_node_id":"0.0-4.0-0.0"},{"view_history":[{"page_index":0,"viewing_time":1557.3849999927916},{"page_index":1,"viewing_time":2577.9550000152085}],"rt":4135.509999992792,"trial_type":"instructions","trial_index":5,"time_elapsed":43728,"internal_node_id":"0.0-5.0"},{"stimulus":"../static/img/is3/tf1/tf1_19_M_ss3.jpeg","correct":0,"choice":3,"accuracy":0,"rt":6739.574999985052,"item_set":3,"test_form":1,"distractor":"pd","trial_type":"mars","trial_index":6,"time_elapsed":51221,"internal_node_id":"0.0-6.0"},{"stimulus":"../static/img/is3/tf1/tf1_20_M_ss1.jpeg","correct":0,"choice":0,"accuracy":1,"rt":6644.774999993388,"item_set":3,"test_form":1,"distractor":"pd","trial_type":"mars","trial_index":7,"time_elapsed":58618,"internal_node_id":"0.0-7.0"},{"stimulus":"../static/img/is3/tf1/tf1_11_M_ss1.jpeg","correct":0,"choice":0,"accuracy":1,"rt":9862.095000018599,"item_set":3,"test_form":1,"distractor":"pd","trial_type":"mars","trial_index":8,"time_elapsed":69232,"internal_node_id":"0.0-8.0"},{"stimulus":"../static/img/is3/tf1/tf1_18_M_ss2.jpeg","correct":0,"choice":0,"accuracy":1,"rt":6694.55499999458,"item_set":3,"test_form":1,"distractor":"pd","trial_type":"mars","trial_index":9,"time_elapsed":76677,"internal_node_id":"0.0-9.0"},{"stimulus":"../static/img/is3/tf1/tf1_16_M_ss3.jpeg","correct":0,"choice":0,"accuracy":1,"rt":4768.904999975348,"item_set":3,"test_form":1,"distractor":"pd","trial_type":"mars","trial_index":10,"time_elapsed":82198,"internal_node_id":"0.0-10.0"},{"stimulus":"../static/img/is3/tf1/tf1_17_M_ss1.jpeg","correct":0,"choice":1,"accuracy":0,"rt":14208.169999998063,"item_set":3,"test_form":1,"distractor":"pd","trial_type":"mars","trial_index":11,"time_elapsed":97159,"internal_node_id":"0.0-11.0"},{"stimulus":"../static/img/is3/tf1/tf1_14_M_ss1.jpeg","correct":0,"choice":2,"accuracy":0,"rt":13276.134999992792,"item_set":3,"test_form":1,"distractor":"pd","trial_type":"mars","trial_index":12,"time_elapsed":111188,"internal_node_id":"0.0-12.0"},{"stimulus":"../static/img/is3/tf1/tf1_26_M_ss1.jpeg","correct":0,"choice":1,"accuracy":0,"rt":15242.304999992484,"item_set":3,"test_form":1,"distractor":"pd","trial_type":"mars","trial_index":13,"time_elapsed":127182,"internal_node_id":"0.0-13.0","interactions":"[]"}]