[{"rt":9306.455000012647,"responses":{"age":"35","gender-categorical":"Male","gender-free-response":"","ethnicity":"Not Hispanic or Latino","race":["White"],"education":"Bachelor degree"},"trial_type":"survey-demo","trial_index":0,"time_elapsed":9311,"internal_node_id":"0.0-0.0"},{"view_history":[{"page_index":0,"viewing_time":11825.149999989662},{"page_index":1,"viewing_time":8605.28499999782},{"page_index":2,"viewing_time":1915.9100000106264}],"rt":22347.574999992503,"trial_type":"instructions","trial_index":1,"time_elapsed":31667,"internal_node_id":"0.0-1.0"},{"stimulus":"../static/img/practice/pt1_M1.png","correct":0,"choice":0,"accuracy":1,"rt":7515.425000019604,"item_set":"practice","trial_type":"mars","trial_index":2,"time_elapsed":41185,"internal_node_id":"0.0-2.0-0.0"},{"stimulus":"../static/img/practice/pt2_M1.png","correct":0,"choice":0,"accuracy":1,"rt":3481.8799999775365,"item_set":"practice","trial_type":"mars","trial_index":3,"time_elapsed":46674,"internal_node_id":"0.0-3.0-0.0"},{"stimulus":"../static/img/practice/pt3_M1.png","correct":0,"choice":0,"accuracy":1,"rt":3843.330000003334,"item_set":"practice","trial_type":"mars","trial_index":4,"time_elapsed":52524,"internal_node_id":"0.0-4.0-0.0"},{"view_history":[{"page_index":0,"viewing_time":2703.255000000354},{"page_index":1,"viewing_time":3501.929999998538}],"rt":6205.5099999997765,"trial_type":"instructions","trial_index":5,"time_elapsed":58735,"internal_node_id":"0.0-5.0"},{"stimulus":"../static/img/is3/tf1/tf1_19_M_ss3.jpeg","correct":0,"choice":0,"accuracy":1,"rt":11096.669999998994,"item_set":3,"test_form":1,"distractor":"pd","trial_type":"mars","trial_index":6,"time_elapsed":70583,"internal_node_id":"0.0-6.0"},{"stimulus":"../static/img/is3/tf1/tf1_20_M_ss1.jpeg","correct":0,"choice":0,"accuracy":1,"rt":9638.535000005504,"item_set":3,"test_form":1,"distractor":"pd","trial_type":"mars","trial_index":7,"time_elapsed":80978,"internal_node_id":"0.0-7.0"},{"stimulus":"../static/img/is3/tf1/tf1_11_M_ss1.jpeg","correct":0,"choice":0,"accuracy":1,"rt":26006.55000002007,"item_set":3,"test_form":1,"distractor":"pd","trial_type":"mars","trial_index":8,"time_elapsed":107744,"internal_node_id":"0.0-8.0"},{"stimulus":"../static/img/is3/tf1/tf1_18_M_ss2.jpeg","correct":0,"choice":0,"accuracy":1,"rt":13657.164999982342,"item_set":3,"test_form":1,"distractor":"pd","trial_type":"mars","trial_index":9,"time_elapsed":122158,"internal_node_id":"0.0-9.0"},{"stimulus":"../static/img/is3/tf1/tf1_16_M_ss3.jpeg","correct":0,"choice":0,"accuracy":1,"rt":8135.444999992615,"item_set":3,"test_form":1,"distractor":"pd","trial_type":"mars","trial_index":10,"time_elapsed":131050,"internal_node_id":"0.0-10.0"},{"stimulus":"../static/img/is3/tf1/tf1_17_M_ss1.jpeg","correct":0,"choice":0,"accuracy":1,"rt":25609.889999992447,"item_set":3,"test_form":1,"distractor":"pd","trial_type":"mars","trial_index":11,"time_elapsed":157416,"internal_node_id":"0.0-11.0"},{"stimulus":"../static/img/is3/tf1/tf1_52_M_ss3.jpeg","correct":0,"choice":0,"accuracy":1,"rt":23795.389999984764,"item_set":3,"test_form":1,"distractor":"pd","trial_type":"mars","trial_index":12,"time_elapsed":181967,"internal_node_id":"0.0-12.0"},{"stimulus":"../static/img/is3/tf1/tf1_59_M_ss1.jpeg","correct":0,"choice":1,"accuracy":0,"rt":29793.184999987716,"item_set":3,"test_form":1,"distractor":"pd","trial_type":"mars","trial_index":13,"time_elapsed":212515,"internal_node_id":"0.0-13.0","interactions":"[]"}]