[{"rt":11763.83499999065,"responses":{"age":"60","gender-categorical":"Male","gender-free-response":"","ethnicity":"Not Hispanic or Latino","race":["White"],"education":"Some college"},"trial_type":"survey-demo","trial_index":0,"time_elapsed":11766,"internal_node_id":"0.0-0.0"},{"view_history":[{"page_index":0,"viewing_time":8909.66499998467},{"page_index":1,"viewing_time":6511.914999980945},{"page_index":2,"viewing_time":1512.0300000417046}],"rt":16934.16999996407,"trial_type":"instructions","trial_index":1,"time_elapsed":28701,"internal_node_id":"0.0-1.0"},{"stimulus":"../static/img/practice/pt1_M1.png","correct":0,"choice":0,"accuracy":1,"rt":4526.855000003707,"item_set":"practice","trial_type":"mars","trial_index":2,"time_elapsed":35229,"internal_node_id":"0.0-2.0-0.0"},{"stimulus":"../static/img/practice/pt2_M1.png","correct":0,"choice":0,"accuracy":1,"rt":3317.3200000310317,"item_set":"practice","trial_type":"mars","trial_index":3,"time_elapsed":40549,"internal_node_id":"0.0-3.0-0.0"},{"stimulus":"../static/img/practice/pt3_M1.png","correct":0,"choice":0,"accuracy":1,"rt":1516.509999986738,"item_set":"practice","trial_type":"mars","trial_index":4,"time_elapsed":44070,"internal_node_id":"0.0-4.0-0.0"},{"view_history":[{"page_index":0,"viewing_time":1788.5799999930896},{"page_index":1,"viewing_time":1921.2700000498444}],"rt":3710.025000036694,"trial_type":"instructions","trial_index":5,"time_elapsed":47781,"internal_node_id":"0.0-5.0"},{"stimulus":"../static/img/is3/tf1/tf1_19_M_ss3.jpeg","correct":0,"choice":0,"accuracy":1,"rt":6542.254999978468,"item_set":3,"test_form":1,"distractor":"pd","trial_type":"mars","trial_index":6,"time_elapsed":55075,"internal_node_id":"0.0-6.0"},{"stimulus":"../static/img/is3/tf1/tf1_20_M_ss1.jpeg","correct":0,"choice":0,"accuracy":1,"rt":12239.000000001397,"item_set":3,"test_form":1,"distractor":"pd","trial_type":"mars","trial_index":7,"time_elapsed":68078,"internal_node_id":"0.0-7.0"},{"stimulus":"../static/img/is3/tf1/tf1_15_M_ss2.jpeg","correct":0,"choice":0,"accuracy":1,"rt":19259.90499998443,"item_set":3,"test_form":1,"distractor":"pd","trial_type":"mars","trial_index":8,"time_elapsed":88091,"internal_node_id":"0.0-8.0"},{"stimulus":"../static/img/is3/tf1/tf1_10_M_ss3.jpeg","correct":0,"choice":0,"accuracy":1,"rt":17784.704999998212,"item_set":3,"test_form":1,"distractor":"pd","trial_type":"mars","trial_index":9,"time_elapsed":106627,"internal_node_id":"0.0-9.0"},{"stimulus":"../static/img/is3/tf1/tf1_12_M_ss2.jpeg","correct":0,"choice":0,"accuracy":1,"rt":22912.590000021737,"item_set":3,"test_form":1,"distractor":"pd","trial_type":"mars","trial_index":10,"time_elapsed":130291,"internal_node_id":"0.0-10.0"},{"stimulus":"../static/img/is3/tf1/tf1_23_M_ss1.jpeg","correct":0,"choice":0,"accuracy":1,"rt":28311.104999971576,"item_set":3,"test_form":1,"distractor":"pd","trial_type":"mars","trial_index":11,"time_elapsed":159356,"internal_node_id":"0.0-11.0"},{"stimulus":"../static/img/is3/tf1/tf1_14_M_ss1.jpeg","correct":0,"choice":2,"accuracy":0,"rt":27567.36499996623,"item_set":3,"test_form":1,"distractor":"pd","trial_type":"mars","trial_index":12,"time_elapsed":187676,"internal_node_id":"0.0-12.0"},{"stimulus":"../static/img/is3/tf1/tf1_26_M_ss1.jpeg","correct":0,"choice":3,"accuracy":0,"rt":11206.100000010338,"item_set":3,"test_form":1,"distractor":"pd","trial_type":"mars","trial_index":13,"time_elapsed":199636,"internal_node_id":"0.0-13.0","interactions":"[]"}]