[{"rt":10640.300005674362,"responses":{"age":"25","gender-categorical":"Male","gender-free-response":"","ethnicity":"Not Hispanic or Latino","race":["White"],"education":"Associate degree"},"trial_type":"survey-demo","trial_index":0,"time_elapsed":10646,"internal_node_id":"0.0-0.0"},{"view_history":[{"page_index":0,"viewing_time":6759.300008416176},{"page_index":1,"viewing_time":7461.099997162819},{"page_index":2,"viewing_time":1334.3999981880188}],"rt":15555.399999022484,"trial_type":"instructions","trial_index":1,"time_elapsed":26204,"internal_node_id":"0.0-1.0"},{"stimulus":"../static/img/practice/pt1_M1.png","correct":0,"choice":0,"accuracy":1,"rt":10111.699998378754,"item_set":"practice","trial_type":"mars","trial_index":2,"time_elapsed":38319,"internal_node_id":"0.0-2.0-0.0"},{"stimulus":"../static/img/practice/pt2_M1.png","correct":0,"choice":0,"accuracy":1,"rt":3231.99999332428,"item_set":"practice","trial_type":"mars","trial_index":3,"time_elapsed":43554,"internal_node_id":"0.0-3.0-0.0"},{"stimulus":"../static/img/practice/pt3_M1.png","correct":0,"choice":0,"accuracy":1,"rt":1779.1000008583069,"item_set":"practice","trial_type":"mars","trial_index":4,"time_elapsed":47338,"internal_node_id":"0.0-4.0-0.0"},{"view_history":[{"page_index":0,"viewing_time":51463.79999816418},{"page_index":1,"viewing_time":3044.300004839897}],"rt":54508.50000977516,"trial_type":"instructions","trial_index":5,"time_elapsed":101849,"internal_node_id":"0.0-5.0"},{"stimulus":"../static/img/is3/tf1/tf1_19_M_ss3.jpeg","correct":0,"choice":1,"accuracy":0,"rt":12763.999998569489,"item_set":3,"test_form":1,"distractor":"pd","trial_type":"mars","trial_index":6,"time_elapsed":115365,"internal_node_id":"0.0-6.0"},{"stimulus":"../static/img/is3/tf1/tf1_20_M_ss1.jpeg","correct":0,"choice":0,"accuracy":1,"rt":6479.299992322922,"item_set":3,"test_form":1,"distractor":"pd","trial_type":"mars","trial_index":7,"time_elapsed":122599,"internal_node_id":"0.0-7.0"},{"stimulus":"../static/img/is3/tf1/tf1_15_M_ss2.jpeg","correct":0,"choice":1,"accuracy":0,"rt":9304.200008511543,"item_set":3,"test_form":1,"distractor":"pd","trial_type":"mars","trial_index":8,"time_elapsed":132657,"internal_node_id":"0.0-8.0"},{"stimulus":"../static/img/is3/tf1/tf1_10_M_ss3.jpeg","correct":0,"choice":2,"accuracy":0,"rt":10951.60000026226,"item_set":3,"test_form":1,"distractor":"pd","trial_type":"mars","trial_index":9,"time_elapsed":144362,"internal_node_id":"0.0-9.0"},{"stimulus":"../static/img/is3/tf1/tf1_12_M_ss2.jpeg","correct":0,"choice":3,"accuracy":0,"rt":6878.899991512299,"item_set":3,"test_form":1,"distractor":"pd","trial_type":"mars","trial_index":10,"time_elapsed":151996,"internal_node_id":"0.0-10.0"},{"stimulus":"../static/img/is3/tf1/tf1_23_M_ss1.jpeg","correct":0,"choice":0,"accuracy":1,"rt":9202.400013804436,"item_set":3,"test_form":1,"distractor":"pd","trial_type":"mars","trial_index":11,"time_elapsed":161954,"internal_node_id":"0.0-11.0"},{"stimulus":"../static/img/is3/tf1/tf1_52_M_ss3.jpeg","correct":0,"choice":0,"accuracy":1,"rt":9243.699997663498,"item_set":3,"test_form":1,"distractor":"pd","trial_type":"mars","trial_index":12,"time_elapsed":171951,"internal_node_id":"0.0-12.0"},{"stimulus":"../static/img/is3/tf1/tf1_59_M_ss1.jpeg","correct":0,"choice":2,"accuracy":0,"rt":6323.199987411499,"item_set":3,"test_form":1,"distractor":"pd","trial_type":"mars","trial_index":13,"time_elapsed":179029,"internal_node_id":"0.0-13.0","interactions":"[{\"event\":\"blur\",\"trial\":1,\"time\":23091},{\"event\":\"focus\",\"trial\":1,\"time\":24140},{\"event\":\"blur\",\"trial\":5,\"time\":48764},{\"event\":\"focus\",\"trial\":5,\"time\":70046},{\"event\":\"blur\",\"trial\":8,\"time\":123182},{\"event\":\"focus\",\"trial\":8,\"time\":124989},{\"event\":\"blur\",\"trial\":8,\"time\":125569},{\"event\":\"focus\",\"trial\":8,\"time\":127421},{\"event\":\"blur\",\"trial\":11,\"time\":156989},{\"event\":\"focus\",\"trial\":11,\"time\":158261},{\"event\":\"blur\",\"trial\":12,\"time\":163060},{\"event\":\"focus\",\"trial\":12,\"time\":166152}]"}]