[{"view_history":[{"page_index":0,"viewing_time":2245.3000000715256}],"rt":2245.399999976158,"trial_type":"instructions","trial_index":0,"time_elapsed":2251,"internal_node_id":"0.0-0.0","experiment":"validation","task_version":"2.0","jspsych_version":"6.3.1"},{"rt":14971.100000023842,"responses":{"age":"20","gender-categorical":"Other","gender-free-response":"Non-binary","ethnicity":"Hispanic or Latino","race":["White"],"education":"Some college"},"survey":"demographics","trial_type":"survey-demo","trial_index":1,"time_elapsed":17224,"internal_node_id":"0.0-1.0","experiment":"validation","task_version":"2.0","jspsych_version":"6.3.1"},{"responses":{"Q04":"1","Q08":"3","Q09":"1","Q11":"0","Q02":"1","Q10":"2","Q03":"3","Q06":"1","Q07":"2","Q05":"2","Q01":"2"},"rt":69196.30000007153,"item_order":[3,7,8,10,1,9,2,5,6,4,0],"radio_events":[14438.800000071526,18863.5,21964,35580.700000047684,45276.800000071526,50075.10000002384,54608.200000047684,60186.200000047684,60604.700000047684,65857.60000002384,68144.90000009537],"key_events":[],"mouse_events":[13239.100000023842,13771.800000071526,14438.800000071526,18542.300000071526,18863.5,21492.300000071526,21964,30140.300000071526,30729.600000023842,30977.900000095367,34812.60000002384,35580.700000047684,44594.200000047684,45072.300000071526,45276.800000071526,49679.10000002384,50075.10000002384,53834.200000047684,54608.200000047684,57024.40000009537,57849.10000002384,58516,59624.200000047684,60186.200000047684,60604.700000047684,65857.60000002384,68144.90000009537,69195.30000007153],"straightlining":0.36363636363636365,"zigzagging":0.5,"honeypot":0,"survey":"nfc10","trial_type":"survey-template","trial_index":2,"time_elapsed":86424,"internal_node_id":"0.0-2.0","experiment":"validation","task_version":"2.0","jspsych_version":"6.3.1","infrequency":0},{"responses":{"Q05":"3","Q07":"3","Q09":"4","Q08":"2","Q04":"3","Q03":"3","Q01":"3","Q02":"3","Q06":"4"},"rt":33483.700000047684,"item_order":[4,6,8,7,3,2,0,1,5],"radio_events":[5786.299999952316,7720.700000047684,10304.299999952316,15827,21919.600000023842,26983.600000023842,27294.200000047684,30694,32853.700000047684],"key_events":[],"mouse_events":[5569.5,5786.299999952316,7720.700000047684,10304.299999952316,15248.5,15827,21128,21569.399999976158,21919.600000023842,25396.200000047684,26517.299999952316,26983.600000023842,27294.200000047684,29102.299999952316,29862.200000047684,30372.200000047684,30694,32853.700000047684,33483],"straightlining":0.6666666666666666,"zigzagging":0.25,"honeypot":0,"survey":"pcf","trial_type":"survey-template","trial_index":3,"time_elapsed":119911,"internal_node_id":"0.0-3.0","experiment":"validation","task_version":"2.0","jspsych_version":"6.3.1","infrequency":0},{"rt":38215.199999928474,"response":{"Q5":5,"Q6":0,"Q8":0,"Q7":5,"Q1":1,"Q0":1,"Q2":2,"Q4":5,"Q3":2},"question_order":[5,6,8,7,1,0,2,4,3],"survey":"sns","trial_type":"survey-likert","trial_index":4,"time_elapsed":158130,"internal_node_id":"0.0-4.0","experiment":"validation","task_version":"2.0","jspsych_version":"6.3.1","infrequency":0},{"value":0,"trial_type":"call-function","trial_index":5,"time_elapsed":158133,"internal_node_id":"0.0-5.0","experiment":"validation","task_version":"2.0","jspsych_version":"6.3.1","interactions":"[]"}]