[{"view_history":[{"page_index":0,"viewing_time":1575.7000000001863}],"rt":1575.8999999999069,"trial_type":"instructions","trial_index":0,"time_elapsed":1584,"internal_node_id":"0.0-0.0","experiment":"validation","task_version":"2.0","jspsych_version":"6.3.1"},{"rt":10538.5,"responses":{"age":"20","gender-categorical":"Male","gender-free-response":"","ethnicity":"Not Hispanic or Latino","race":["White"],"education":"Some college"},"survey":"demographics","trial_type":"survey-demo","trial_index":1,"time_elapsed":12125,"internal_node_id":"0.0-1.0","experiment":"validation","task_version":"2.0","jspsych_version":"6.3.1"},{"responses":{"Q03":"1","Q04":"2","Q10":"1","Q02":"4","Q08":"3","Q05":"3","Q09":"1","Q07":"1","Q06":"0","Q01":"3","Q11":"0"},"rt":48896.5,"item_order":[2,3,9,1,7,4,8,6,5,0,10],"radio_events":[12576.100000000093,13941.400000000373,14881.80000000028,17430.200000000186,20362.700000000186,21353.5,28189,30969.400000000373,34599.10000000009,37854.60000000009,41191.5,43081.80000000028,44072.5,47207.200000000186],"key_events":[],"mouse_events":[4900,7307.9000000003725,11797.900000000373,12576.100000000093,13941.400000000373,14881.80000000028,17430.200000000186,19291.30000000028,20362.700000000186,21353.5,28189,30463.900000000373,30969.400000000373,34599.10000000009,37854.60000000009,41191.5,43081.80000000028,44072.5,46610.200000000186,47207.200000000186,48895.10000000009],"straightlining":0.36363636363636365,"zigzagging":0.4,"honeypot":0,"survey":"nfc10","trial_type":"survey-template","trial_index":2,"time_elapsed":61028,"internal_node_id":"0.0-2.0","experiment":"validation","task_version":"2.0","jspsych_version":"6.3.1","infrequency":0},{"responses":{"Q01":"3","Q05":"1","Q08":"3","Q03":"2","Q09":"4","Q07":"2","Q02":"2","Q04":"0","Q06":"3"},"rt":34298.5,"item_order":[0,4,7,2,8,6,1,3,5],"radio_events":[5939.4000000003725,7769.300000000279,11914.30000000028,13693.900000000373,15432.700000000186,17070.600000000093,18930.900000000373,22236.600000000093,25138.200000000186,27625.100000000093,33610],"key_events":[],"mouse_events":[5939.4000000003725,7769.300000000279,10549.700000000186,11914.30000000028,13693.900000000373,15432.700000000186,17070.600000000093,18930.900000000373,22236.600000000093,25138.200000000186,27625.100000000093,33610,34297.5],"straightlining":0.3333333333333333,"zigzagging":0.125,"honeypot":0,"survey":"pcf","trial_type":"survey-template","trial_index":3,"time_elapsed":95330,"internal_node_id":"0.0-3.0","experiment":"validation","task_version":"2.0","jspsych_version":"6.3.1","infrequency":0},{"rt":35904.799999999814,"response":{"Q4":4,"Q5":4,"Q1":1,"Q6":1,"Q0":2,"Q3":3,"Q7":3,"Q8":0,"Q2":1},"question_order":[4,5,1,6,0,3,7,8,2],"survey":"sns","trial_type":"survey-likert","trial_index":4,"time_elapsed":131239,"internal_node_id":"0.0-4.0","experiment":"validation","task_version":"2.0","jspsych_version":"6.3.1","infrequency":0},{"value":0,"trial_type":"call-function","trial_index":5,"time_elapsed":131241,"internal_node_id":"0.0-5.0","experiment":"validation","task_version":"2.0","jspsych_version":"6.3.1","interactions":"[]"}]