[{"view_history":[{"page_index":0,"viewing_time":1407.4000000953674}],"rt":1407.7000000476837,"trial_type":"instructions","trial_index":0,"time_elapsed":1423,"internal_node_id":"0.0-0.0","experiment":"validation","task_version":"2.0","jspsych_version":"6.3.1"},{"rt":11517.099999904633,"responses":{"age":"18","gender-categorical":"Female","gender-free-response":"","ethnicity":"Not Hispanic or Latino","race":["White"],"education":"Some college"},"survey":"demographics","trial_type":"survey-demo","trial_index":1,"time_elapsed":12943,"internal_node_id":"0.0-1.0","experiment":"validation","task_version":"2.0","jspsych_version":"6.3.1"},{"responses":{"Q06":"2","Q03":"2","Q02":"1","Q05":"1","Q04":"0","Q07":"2","Q09":"4","Q01":"2","Q08":"2"},"rt":32517.700000047684,"item_order":[5,2,1,4,3,6,8,0,7],"radio_events":[7264.099999904633,10035.700000047684,12454.5,14052.400000095367,17553,19426.400000095367,24781.200000047684,27218.599999904633,29589.400000095367,30152.099999904633,31835.900000095367],"key_events":[],"mouse_events":[7264.099999904633,10035.700000047684,12454.5,14052.400000095367,17553,18834,19426.400000095367,24781.200000047684,27218.599999904633,29589.400000095367,30152.099999904633,31835.900000095367,32515.799999952316],"straightlining":0.5555555555555556,"zigzagging":0.25,"honeypot":0,"survey":"pcf","trial_type":"survey-template","trial_index":2,"time_elapsed":45464,"internal_node_id":"0.0-2.0","experiment":"validation","task_version":"2.0","jspsych_version":"6.3.1","infrequency":0},{"rt":36091.59999990463,"response":{"Q6":0,"Q0":2,"Q7":3,"Q2":1,"Q1":1,"Q5":5,"Q3":3,"Q8":0,"Q4":3},"question_order":[6,0,7,2,1,5,3,8,4],"survey":"sns","trial_type":"survey-likert","trial_index":3,"time_elapsed":81561,"internal_node_id":"0.0-3.0","experiment":"validation","task_version":"2.0","jspsych_version":"6.3.1","infrequency":0},{"responses":{"Q03":"2","Q05":"1","Q04":"1","Q08":"2","Q11":"0","Q01":"3","Q07":"3","Q09":"2","Q06":"3","Q02":"2","Q10":"1"},"rt":55418.60000014305,"item_order":[2,4,3,7,10,0,6,8,5,1,9],"radio_events":[6025.400000095367,17067.900000095367,20532.900000095367,23784.60000014305,26370.900000095367,29331,30190.900000095367,35427.200000047684,40956.299999952316,43644.700000047684,51446.90000009537,54823.90000009537],"key_events":[],"mouse_events":[4622.299999952316,6025.400000095367,17067.900000095367,20532.900000095367,23784.60000014305,26370.900000095367,29331,30190.900000095367,35427.200000047684,40956.299999952316,43644.700000047684,51446.90000009537,54823.90000009537,55416.799999952316],"straightlining":0.45454545454545453,"zigzagging":0.6,"honeypot":0,"survey":"nfc10","trial_type":"survey-template","trial_index":4,"time_elapsed":136986,"internal_node_id":"0.0-4.0","experiment":"validation","task_version":"2.0","jspsych_version":"6.3.1","infrequency":0},{"value":0,"trial_type":"call-function","trial_index":5,"time_elapsed":136988,"internal_node_id":"0.0-5.0","experiment":"validation","task_version":"2.0","jspsych_version":"6.3.1","interactions":"[]"}]