[{"success":true,"timeout":false,"failed_images":[],"failed_audio":[],"failed_video":[],"trial_type":"preload","trial_index":0,"time_elapsed":1213,"internal_node_id":"0.0-0.0","experiment":"validation","task_version":"2.0","jspsych_version":"6.3.1"},{"success":true,"trial_type":"fullscreen","trial_index":1,"time_elapsed":4517,"internal_node_id":"0.0-1.0","experiment":"validation","task_version":"2.0","jspsych_version":"6.3.1"},{"view_history":[{"page_index":0,"viewing_time":2421.7000000476837},{"page_index":1,"viewing_time":9221.699999809265},{"page_index":2,"viewing_time":5544.200000047684},{"page_index":3,"viewing_time":4709.299999952316}],"rt":21898.200000047684,"trial_type":"instructions","trial_index":2,"time_elapsed":26417,"internal_node_id":"0.0-3.0","experiment":"validation","task_version":"2.0","jspsych_version":"6.3.1"},{"item":5,"shape_set":1,"distractor":"pd","choice_order":[3,2,0,1],"correct":0,"choice":0,"accuracy":1,"rt":2294.600000143051,"screen_resolution":[1920,1080],"minimum_resolution":1,"all_loaded":true,"item_set":"practice","trial_type":"mars","trial_index":3,"time_elapsed":29469,"internal_node_id":"0.0-4.0-0.0","experiment":"validation","task_version":"2.0","jspsych_version":"6.3.1"},{"item":2,"shape_set":1,"distractor":"pd","choice_order":[2,0,3,1],"correct":0,"choice":0,"accuracy":1,"rt":5308.700000047684,"screen_resolution":[1920,1080],"minimum_resolution":1,"all_loaded":true,"item_set":"practice","trial_type":"mars","trial_index":4,"time_elapsed":35533,"internal_node_id":"0.0-5.0-0.0","experiment":"validation","task_version":"2.0","jspsych_version":"6.3.1"},{"item":8,"shape_set":1,"distractor":"pd","choice_order":[3,0,2,1],"correct":0,"choice":0,"accuracy":1,"rt":5611.700000047684,"screen_resolution":[1920,1080],"minimum_resolution":1,"all_loaded":true,"item_set":"practice","trial_type":"mars","trial_index":5,"time_elapsed":41902,"internal_node_id":"0.0-6.0-0.0","experiment":"validation","task_version":"2.0","jspsych_version":"6.3.1"},{"view_history":[{"page_index":0,"viewing_time":2911.5999999046326},{"page_index":1,"viewing_time":5436.299999952316}],"rt":8348.200000047684,"trial_type":"instructions","trial_index":6,"time_elapsed":50252,"internal_node_id":"0.0-7.0","experiment":"validation","task_version":"2.0","jspsych_version":"6.3.1"},{"rt":null,"stimulus":"<div style=\"font-size:24px;\">Loading puzzle:<br>1 / 12</div>","response":null,"trial_type":"html-keyboard-response","trial_index":7,"time_elapsed":51456,"internal_node_id":"0.0-8.0-1.0","experiment":"validation","task_version":"2.0","jspsych_version":"6.3.1"},{"item":45,"shape_set":2,"distractor":"pd","choice_order":[0,3,1,2],"correct":0,"choice":0,"accuracy":1,"rt":14337.399999856949,"screen_resolution":[1920,1080],"minimum_resolution":1,"all_loaded":true,"item_set":3,"short_form":3,"trial_type":"mars","trial_index":8,"time_elapsed":65796,"internal_node_id":"0.0-8.0-2.0","experiment":"validation","task_version":"2.0","jspsych_version":"6.3.1","browser_interactions":0},{"rt":null,"stimulus":"<div style=\"font-size:24px;\">Loading puzzle:<br>2 / 12</div>","response":null,"trial_type":"html-keyboard-response","trial_index":9,"time_elapsed":66999,"internal_node_id":"0.0-9.0-1.0","experiment":"validation","task_version":"2.0","jspsych_version":"6.3.1"},{"item":55,"shape_set":1,"distractor":"pd","choice_order":[0,2,3,1],"correct":0,"choice":0,"accuracy":1,"rt":19825.5,"screen_resolution":[1920,1080],"minimum_resolution":1,"all_loaded":true,"item_set":3,"short_form":3,"trial_type":"mars","trial_index":10,"time_elapsed":86828,"internal_node_id":"0.0-9.0-2.0","experiment":"validation","task_version":"2.0","jspsych_version":"6.3.1","browser_interactions":0},{"rt":null,"stimulus":"<div style=\"font-size:24px;\">Loading puzzle:<br>3 / 12</div>","response":null,"trial_type":"html-keyboard-response","trial_index":11,"time_elapsed":88030,"internal_node_id":"0.0-10.0-1.0","experiment":"validation","task_version":"2.0","jspsych_version":"6.3.1"},{"item":30,"shape_set":3,"distractor":"pd","choice_order":[0,2,1,3],"correct":0,"choice":0,"accuracy":1,"rt":12789.099999904633,"screen_resolution":[1920,1080],"minimum_resolution":1,"all_loaded":true,"item_set":3,"short_form":3,"trial_type":"mars","trial_index":12,"time_elapsed":100823,"internal_node_id":"0.0-10.0-2.0","experiment":"validation","task_version":"2.0","jspsych_version":"6.3.1","browser_interactions":0},{"rt":null,"stimulus":"<div style=\"font-size:24px;\">Loading puzzle:<br>4 / 12</div>","response":null,"trial_type":"html-keyboard-response","trial_index":13,"time_elapsed":102028,"internal_node_id":"0.0-11.0-1.0","experiment":"validation","task_version":"2.0","jspsych_version":"6.3.1"},{"item":58,"shape_set":1,"distractor":"md","choice_order":[0,3,2,1],"correct":0,"choice":0,"accuracy":1,"rt":11808,"screen_resolution":[1920,1080],"minimum_resolution":1,"all_loaded":true,"item_set":3,"short_form":3,"trial_type":"mars","trial_index":14,"time_elapsed":113839,"internal_node_id":"0.0-11.0-2.0","experiment":"validation","task_version":"2.0","jspsych_version":"6.3.1","browser_interactions":0},{"rt":null,"stimulus":"<div style=\"font-size:24px;\">Loading puzzle:<br>5 / 12</div>","response":null,"trial_type":"html-keyboard-response","trial_index":15,"time_elapsed":115042,"internal_node_id":"0.0-12.0-1.0","experiment":"validation","task_version":"2.0","jspsych_version":"6.3.1"},{"item":17,"shape_set":1,"distractor":"pd","choice_order":[2,3,0,1],"correct":0,"choice":0,"accuracy":1,"rt":13570.799999952316,"screen_resolution":[1920,1080],"minimum_resolution":1,"all_loaded":true,"item_set":3,"short_form":3,"trial_type":"mars","trial_index":16,"time_elapsed":128617,"internal_node_id":"0.0-12.0-2.0","experiment":"validation","task_version":"2.0","jspsych_version":"6.3.1","browser_interactions":0},{"rt":null,"stimulus":"<div style=\"font-size:24px;\">Loading puzzle:<br>6 / 12</div>","response":null,"trial_type":"html-keyboard-response","trial_index":17,"time_elapsed":129819,"internal_node_id":"0.0-13.0-1.0","experiment":"validation","task_version":"2.0","jspsych_version":"6.3.1"},{"item":72,"shape_set":1,"distractor":"pd","choice_order":[3,0,1,2],"correct":0,"choice":0,"accuracy":1,"rt":16731.299999952316,"screen_resolution":[1920,1080],"minimum_resolution":1,"all_loaded":true,"item_set":3,"short_form":3,"trial_type":"mars","trial_index":18,"time_elapsed":146554,"internal_node_id":"0.0-13.0-2.0","experiment":"validation","task_version":"2.0","jspsych_version":"6.3.1","browser_interactions":0},{"rt":null,"stimulus":"<div style=\"font-size:24px;\">Loading puzzle:<br>7 / 12</div>","response":null,"trial_type":"html-keyboard-response","trial_index":19,"time_elapsed":147757,"internal_node_id":"0.0-14.0-1.0","experiment":"validation","task_version":"2.0","jspsych_version":"6.3.1"},{"item":29,"shape_set":2,"distractor":"pd","choice_order":[2,0,1,3],"correct":0,"choice":3,"accuracy":0,"rt":11672.099999904633,"screen_resolution":[1920,1080],"minimum_resolution":1,"all_loaded":true,"item_set":3,"short_form":3,"trial_type":"mars","trial_index":20,"time_elapsed":159432,"internal_node_id":"0.0-14.0-2.0","experiment":"validation","task_version":"2.0","jspsych_version":"6.3.1","browser_interactions":0},{"rt":null,"stimulus":"<div style=\"font-size:24px;\">Loading puzzle:<br>8 / 12</div>","response":null,"trial_type":"html-keyboard-response","trial_index":21,"time_elapsed":160635,"internal_node_id":"0.0-15.0-1.0","experiment":"validation","task_version":"2.0","jspsych_version":"6.3.1"},{"item":76,"shape_set":2,"distractor":"pd","choice_order":[0,2,1,3],"correct":0,"choice":0,"accuracy":1,"rt":17841.799999952316,"screen_resolution":[1920,1080],"minimum_resolution":1,"all_loaded":true,"item_set":3,"short_form":3,"trial_type":"mars","trial_index":22,"time_elapsed":178480,"internal_node_id":"0.0-15.0-2.0","experiment":"validation","task_version":"2.0","jspsych_version":"6.3.1","browser_interactions":0},{"rt":null,"stimulus":"<div style=\"font-size:24px;\">Loading puzzle:<br>9 / 12</div>","response":null,"trial_type":"html-keyboard-response","trial_index":23,"time_elapsed":179683,"internal_node_id":"0.0-16.0-1.0","experiment":"validation","task_version":"2.0","jspsych_version":"6.3.1"},{"item":35,"shape_set":2,"distractor":"pd","choice_order":[3,1,2,0],"correct":0,"choice":0,"accuracy":1,"rt":14887.400000095367,"screen_resolution":[1920,1080],"minimum_resolution":1,"all_loaded":true,"item_set":3,"short_form":3,"trial_type":"mars","trial_index":24,"time_elapsed":194573,"internal_node_id":"0.0-16.0-2.0","experiment":"validation","task_version":"2.0","jspsych_version":"6.3.1","browser_interactions":0},{"rt":null,"stimulus":"<div style=\"font-size:24px;\">Loading puzzle:<br>10 / 12</div>","response":null,"trial_type":"html-keyboard-response","trial_index":25,"time_elapsed":195775,"internal_node_id":"0.0-17.0-1.0","experiment":"validation","task_version":"2.0","jspsych_version":"6.3.1"},{"item":64,"shape_set":2,"distractor":"pd","choice_order":[3,1,2,0],"correct":0,"choice":2,"accuracy":0,"rt":27925.700000047684,"screen_resolution":[1920,1080],"minimum_resolution":1,"all_loaded":true,"item_set":3,"short_form":3,"trial_type":"mars","trial_index":26,"time_elapsed":223707,"internal_node_id":"0.0-17.0-2.0","experiment":"validation","task_version":"2.0","jspsych_version":"6.3.1","browser_interactions":0},{"rt":null,"stimulus":"<div style=\"font-size:24px;\">Loading puzzle:<br>11 / 12</div>","response":null,"trial_type":"html-keyboard-response","trial_index":27,"time_elapsed":224914,"internal_node_id":"0.0-18.0-1.0","experiment":"validation","task_version":"2.0","jspsych_version":"6.3.1"},{"item":66,"shape_set":3,"distractor":"pd","choice_order":[2,0,3,1],"correct":0,"choice":0,"accuracy":1,"rt":26097.300000190735,"screen_resolution":[1920,1080],"minimum_resolution":1,"all_loaded":true,"item_set":3,"short_form":3,"trial_type":"mars","trial_index":28,"time_elapsed":251017,"internal_node_id":"0.0-18.0-2.0","experiment":"validation","task_version":"2.0","jspsych_version":"6.3.1","browser_interactions":0},{"rt":null,"stimulus":"<div style=\"font-size:24px;\">Loading puzzle:<br>12 / 12</div>","response":null,"trial_type":"html-keyboard-response","trial_index":29,"time_elapsed":252221,"internal_node_id":"0.0-19.0-1.0","experiment":"validation","task_version":"2.0","jspsych_version":"6.3.1"},{"item":24,"shape_set":2,"distractor":"pd","choice_order":[3,0,2,1],"correct":0,"choice":0,"accuracy":1,"rt":6388.700000047684,"screen_resolution":[1920,1080],"minimum_resolution":1,"all_loaded":true,"item_set":3,"short_form":3,"trial_type":"mars","trial_index":30,"time_elapsed":258613,"internal_node_id":"0.0-19.0-2.0","experiment":"validation","task_version":"2.0","jspsych_version":"6.3.1","browser_interactions":0},{"value":[0,0,0],"trial_type":"call-function","trial_index":31,"time_elapsed":258615,"internal_node_id":"0.0-20.0","experiment":"validation","task_version":"2.0","jspsych_version":"6.3.1","interactions":"[{\"event\":\"fullscreenenter\",\"trial\":1,\"time\":3561}]"}]