[{"view_history":[{"page_index":0,"viewing_time":3111.699999999255}],"rt":3112.300000000745,"trial_type":"instructions","trial_index":0,"time_elapsed":3128,"internal_node_id":"0.0-0.0","experiment":"validation","task_version":"2.0","jspsych_version":"6.3.1"},{"rt":12524,"responses":{"age":"36","gender-categorical":"Male","gender-free-response":"","ethnicity":"Not Hispanic or Latino","race":["White"],"education":"Bachelor degree"},"survey":"demographics","trial_type":"survey-demo","trial_index":1,"time_elapsed":15657,"internal_node_id":"0.0-1.0","experiment":"validation","task_version":"2.0","jspsych_version":"6.3.1"},{"responses":{"Q03":"2","Q09":"4","Q07":"4","Q02":"4","Q04":"3","Q06":"3","Q08":"3","Q05":"3","Q01":"4"},"rt":33534.89999999851,"item_order":[2,8,6,1,3,5,7,4,0],"radio_events":[4932.699999999255,9042.699999999255,11567.39999999851,13751.800000000745,15186,17171.699999999255,20064.699999999255,24837.5,28390.599999997765,30412.699999999255,32548.300000000745],"key_events":[],"mouse_events":[3791.099999997765,4328.800000000745,4932.699999999255,9042.699999999255,11567.39999999851,13751.800000000745,15186,16102.89999999851,17171.699999999255,20064.699999999255,24382.5,24837.5,28390.599999997765,30412.699999999255,32548.300000000745,33531.199999999255],"straightlining":0.4444444444444444,"zigzagging":0.375,"honeypot":0,"survey":"pcf","trial_type":"survey-template","trial_index":2,"time_elapsed":49197,"internal_node_id":"0.0-2.0","experiment":"validation","task_version":"2.0","jspsych_version":"6.3.1","infrequency":0},{"responses":{"Q10":"3","Q05":"3","Q02":"3","Q07":"3","Q11":"0","Q06":"0","Q08":"4","Q09":"2","Q01":"2","Q04":"1","Q03":"3"},"rt":56148.599999997765,"item_order":[9,4,1,6,10,5,7,8,0,3,2],"radio_events":[8345.699999999255,13067.800000000745,16184.800000000745,20941.39999999851,24729.5,29191.89999999851,34831.39999999851,38564.39999999851,41639.099999997765,47252.300000000745,55194.599999997765],"key_events":[],"mouse_events":[8345.699999999255,12347.39999999851,13067.800000000745,16184.800000000745,20941.39999999851,24729.5,29191.89999999851,34478.39999999851,34831.39999999851,38564.39999999851,41639.099999997765,47252.300000000745,55194.599999997765,56144.89999999851],"straightlining":0.36363636363636365,"zigzagging":0.2,"honeypot":0,"survey":"nfc10","trial_type":"survey-template","trial_index":3,"time_elapsed":105349,"internal_node_id":"0.0-3.0","experiment":"validation","task_version":"2.0","jspsych_version":"6.3.1","infrequency":0},{"rt":60106.199999999255,"response":{"Q0":1,"Q4":4,"Q7":3,"Q8":0,"Q1":2,"Q2":3,"Q5":1,"Q3":2,"Q6":1},"question_order":[0,4,7,8,1,2,5,3,6],"survey":"sns","trial_type":"survey-likert","trial_index":4,"time_elapsed":165458,"internal_node_id":"0.0-4.0","experiment":"validation","task_version":"2.0","jspsych_version":"6.3.1","infrequency":0},{"value":0,"trial_type":"call-function","trial_index":5,"time_elapsed":165459,"internal_node_id":"0.0-5.0","experiment":"validation","task_version":"2.0","jspsych_version":"6.3.1","interactions":"[{\"event\":\"blur\",\"trial\":3,\"time\":100521},{\"event\":\"focus\",\"trial\":3,\"time\":100816}]"}]