[{"view_history":[{"page_index":0,"viewing_time":2564.2999999998137}],"rt":2564.5999999996275,"trial_type":"instructions","trial_index":0,"time_elapsed":2605,"internal_node_id":"0.0-0.0","experiment":"validation","task_version":"2.0","jspsych_version":"6.3.1"},{"rt":13253.899999999441,"responses":{"age":"18","gender-categorical":"Male","gender-free-response":"","ethnicity":"Not Hispanic or Latino","race":["White"],"education":"Some college"},"survey":"demographics","trial_type":"survey-demo","trial_index":1,"time_elapsed":15862,"internal_node_id":"0.0-1.0","experiment":"validation","task_version":"2.0","jspsych_version":"6.3.1"},{"responses":{"Q07":"4","Q10":"2","Q11":"0","Q04":"3","Q08":"3","Q01":"3","Q09":"3","Q02":"2","Q06":"3","Q03":"1","Q05":"3"},"rt":60221.5,"item_order":[6,9,10,3,7,0,8,1,5,2,4],"radio_events":[7576.0999999996275,13998.800000000745,19375.800000000745,28871.800000000745,32797.09999999963,36668.09999999963,40197.699999999255,45058,48195.199999999255,51495.199999999255,54648,55870.199999999255,57436.40000000037],"key_events":[],"mouse_events":[6876.799999999814,7134.299999999814,7576.0999999996275,13463.900000000373,13998.800000000745,19081.599999999627,19375.800000000745,27190.199999999255,27907,28871.800000000745,32797.09999999963,36668.09999999963,40197.699999999255,44823.300000000745,45058,48195.199999999255,51495.199999999255,53792.199999999255,54405.90000000037,54648,55023.59999999963,55326.300000000745,55870.199999999255,57436.40000000037,60219.40000000037],"straightlining":0.45454545454545453,"zigzagging":0.3,"honeypot":0,"survey":"nfc10","trial_type":"survey-template","trial_index":2,"time_elapsed":76091,"internal_node_id":"0.0-2.0","experiment":"validation","task_version":"2.0","jspsych_version":"6.3.1","infrequency":0},{"rt":33572.70000000112,"response":{"Q7":5,"Q0":5,"Q3":5,"Q1":5,"Q8":0,"Q2":2,"Q6":2,"Q4":4,"Q5":3},"question_order":[7,0,3,1,8,2,6,4,5],"survey":"sns","trial_type":"survey-likert","trial_index":3,"time_elapsed":109669,"internal_node_id":"0.0-3.0","experiment":"validation","task_version":"2.0","jspsych_version":"6.3.1","infrequency":0},{"responses":{"Q03":"4","Q07":"3","Q04":"3","Q09":"4","Q06":"3","Q02":"2","Q01":"3","Q08":"4","Q05":"2"},"rt":51823.60000000149,"item_order":[2,6,3,8,5,1,0,7,4],"radio_events":[28249.5,28995.5,32012.900000000373,32308.10000000149,34204.60000000149,40384.5,41851,42158.300000000745,44668.90000000037,48051.60000000149,48897.40000000037,50329.70000000112],"key_events":[],"mouse_events":[28249.5,28995.5,32012.900000000373,32308.10000000149,34204.60000000149,39276.60000000149,39628.60000000149,40004.800000000745,40384.5,41563.70000000112,41851,42158.300000000745,44268.70000000112,44668.90000000037,46964.5,47280.800000000745,47717.70000000112,48051.60000000149,48670.60000000149,48897.40000000037,49290.5,49440.60000000149,49691.70000000112,49862.70000000112,50069.5,50329.70000000112,51821.800000000745],"straightlining":0.4444444444444444,"zigzagging":0.5,"honeypot":0,"survey":"pcf","trial_type":"survey-template","trial_index":4,"time_elapsed":161497,"internal_node_id":"0.0-4.0","experiment":"validation","task_version":"2.0","jspsych_version":"6.3.1","infrequency":0},{"value":0,"trial_type":"call-function","trial_index":5,"time_elapsed":161500,"internal_node_id":"0.0-5.0","experiment":"validation","task_version":"2.0","jspsych_version":"6.3.1","interactions":"[]"}]