[{"view_history":[{"page_index":0,"viewing_time":1405.699999999255}],"rt":1405.8999999985099,"trial_type":"instructions","trial_index":0,"time_elapsed":1415,"internal_node_id":"0.0-0.0","experiment":"validation","task_version":"2.0","jspsych_version":"6.3.1"},{"rt":8555.89999999851,"responses":{"age":"27","gender-categorical":"Male","gender-free-response":"","ethnicity":"Not Hispanic or Latino","race":["Asian"],"education":"Bachelor degree"},"survey":"demographics","trial_type":"survey-demo","trial_index":1,"time_elapsed":9972,"internal_node_id":"0.0-1.0","experiment":"validation","task_version":"2.0","jspsych_version":"6.3.1"},{"responses":{"Q01":"3","Q05":"3","Q08":"3","Q06":"3","Q03":"3","Q09":"4","Q07":"3","Q02":"3","Q04":"3"},"rt":16753.599999997765,"item_order":[0,4,7,5,2,8,6,1,3],"radio_events":[3900.39999999851,4980.29999999702,6592.199999999255,7881.099999997765,9605.29999999702,11815.89999999851,13312.099999997765,14967.79999999702,15447],"key_events":[],"mouse_events":[3013.2999999970198,3900.39999999851,4427.39999999851,4718.39999999851,4980.29999999702,6089.199999999255,6592.199999999255,7881.099999997765,9605.29999999702,11815.89999999851,13312.099999997765,14378,14967.79999999702,15447,16753],"straightlining":0.8888888888888888,"zigzagging":0,"honeypot":0,"survey":"pcf","trial_type":"survey-template","trial_index":2,"time_elapsed":26728,"internal_node_id":"0.0-2.0","experiment":"validation","task_version":"2.0","jspsych_version":"6.3.1","infrequency":0},{"responses":{"Q10":"2","Q03":"2","Q11":"0","Q05":"2","Q09":"2","Q08":"2","Q04":"2","Q01":"2","Q06":"2","Q07":"3","Q02":"2"},"rt":31824,"item_order":[9,2,10,4,8,7,3,0,5,6,1],"radio_events":[5403.400000002235,6402.300000000745,9155.20000000298,15234,17316,18469.800000000745,21637.60000000149,23922.60000000149,25831.5,29046.300000000745,31396.300000000745],"key_events":[],"mouse_events":[4927.400000002235,5403.400000002235,6402.300000000745,9155.20000000298,14973.10000000149,15234,17039.800000000745,17316,18469.800000000745,20981.70000000298,21637.60000000149,22125.70000000298,22701.70000000298,23051.60000000149,23922.60000000149,25831.5,29046.300000000745,31396.300000000745,31823.400000002235],"straightlining":0.8181818181818182,"zigzagging":0.2,"honeypot":0,"survey":"nfc10","trial_type":"survey-template","trial_index":3,"time_elapsed":58553,"internal_node_id":"0.0-3.0","experiment":"validation","task_version":"2.0","jspsych_version":"6.3.1","infrequency":0},{"rt":27781.800000000745,"response":{"Q8":0,"Q5":3,"Q6":0,"Q3":4,"Q4":3,"Q7":3,"Q0":3,"Q1":3,"Q2":3},"question_order":[8,5,6,3,4,7,0,1,2],"survey":"sns","trial_type":"survey-likert","trial_index":4,"time_elapsed":86337,"internal_node_id":"0.0-4.0","experiment":"validation","task_version":"2.0","jspsych_version":"6.3.1","infrequency":0},{"value":0,"trial_type":"call-function","trial_index":5,"time_elapsed":86338,"internal_node_id":"0.0-5.0","experiment":"validation","task_version":"2.0","jspsych_version":"6.3.1","interactions":"[{\"event\":\"blur\",\"trial\":3,\"time\":29089},{\"event\":\"focus\",\"trial\":3,\"time\":30088}]"}]