[{"view_history":[{"page_index":0,"viewing_time":18918.5}],"rt":18920.60000038147,"trial_type":"instructions","trial_index":0,"time_elapsed":18924,"internal_node_id":"0.0-0.0","experiment":"validation","task_version":"2.0","jspsych_version":"6.3.1"},{"rt":7158.60000038147,"responses":{"age":"38","gender-categorical":"Male","gender-free-response":"","ethnicity":"Not Hispanic or Latino","race":["Asian"],"education":"Master degree or higher"},"survey":"demographics","trial_type":"survey-demo","trial_index":1,"time_elapsed":26092,"internal_node_id":"0.0-1.0","experiment":"validation","task_version":"2.0","jspsych_version":"6.3.1"},{"responses":{"Q10":"1","Q07":"1","Q08":"1","Q09":"2","Q04":"1","Q11":"0","Q06":"1","Q02":"1","Q01":"1","Q03":"1","Q05":"2"},"rt":57599,"item_order":[9,6,7,8,3,10,5,1,0,2,4],"radio_events":[3629.3999996185303,23102.39999961853,24415.199999809265,28422.800000190735,32415.800000190735,39496.89999961853,42408.699999809265,44024.699999809265,45167.60000038147,48385.5,54530.699999809265],"key_events":[],"mouse_events":[3629.3999996185303,20646.39999961853,23102.39999961853,24415.199999809265,28422.800000190735,32415.800000190735,38136.10000038147,38943.60000038147,39496.89999961853,42408.699999809265,44024.699999809265,45167.60000038147,48385.5,49633.800000190735,54530.699999809265,57594.60000038147],"straightlining":0.5454545454545454,"zigzagging":0.4,"honeypot":0,"survey":"nfc10","trial_type":"survey-template","trial_index":2,"time_elapsed":83713,"internal_node_id":"0.0-2.0","experiment":"validation","task_version":"2.0","jspsych_version":"6.3.1","infrequency":0},{"rt":37820.199999809265,"response":{"Q0":4,"Q4":4,"Q2":4,"Q5":5,"Q6":0,"Q7":5,"Q8":0,"Q1":4,"Q3":4},"question_order":[0,4,2,5,6,7,8,1,3],"survey":"sns","trial_type":"survey-likert","trial_index":3,"time_elapsed":121542,"internal_node_id":"0.0-3.0","experiment":"validation","task_version":"2.0","jspsych_version":"6.3.1","infrequency":0},{"responses":{"Q09":"4","Q06":"3","Q07":"3","Q05":"3","Q04":"3","Q08":"3","Q02":"3","Q01":"3","Q03":"3"},"rt":34108.099999427795,"item_order":[8,5,6,4,3,7,1,0,2],"radio_events":[6157.599999427795,12582.5,14895.199999809265,19398.199999809265,19830.89999961853,26791.699999809265,29118.79999923706,30040.599999427795,31351.599999427795],"key_events":[],"mouse_events":[6157.599999427795,11262.099999427795,12582.5,13847.39999961853,14895.199999809265,15311.199999809265,16623.099999427795,18262.39999961853,18791,19398.199999809265,19830.89999961853,20784.39999961853,26791.699999809265,29118.79999923706,30040.599999427795,31351.599999427795,34104.89999961853],"straightlining":0.8888888888888888,"zigzagging":0,"honeypot":0,"survey":"pcf","trial_type":"survey-template","trial_index":4,"time_elapsed":155655,"internal_node_id":"0.0-4.0","experiment":"validation","task_version":"2.0","jspsych_version":"6.3.1","infrequency":0},{"value":0,"trial_type":"call-function","trial_index":5,"time_elapsed":155659,"internal_node_id":"0.0-5.0","experiment":"validation","task_version":"2.0","jspsych_version":"6.3.1","interactions":"[]"}]