[{"view_history":[{"page_index":0,"viewing_time":616147.3000000003}],"rt":616149.1000000001,"trial_type":"instructions","trial_index":0,"time_elapsed":1665178,"internal_node_id":"0.0-0.0","experiment":"validation","task_version":"2.0","jspsych_version":"6.3.1"},{"rt":13621.5,"responses":{"age":"29","gender-categorical":"Male","gender-free-response":"","ethnicity":"Not Hispanic or Latino","race":["White"],"education":"Master degree or higher"},"survey":"demographics","trial_type":"survey-demo","trial_index":1,"time_elapsed":1678795,"internal_node_id":"0.0-1.0","experiment":"validation","task_version":"2.0","jspsych_version":"6.3.1"},{"responses":{"Q05":"1","Q04":"2","Q03":"2","Q11":"0","Q02":"3","Q01":"3","Q09":"2","Q10":"2","Q06":"2","Q07":"3","Q08":"3"},"rt":36772.89999999991,"item_order":[4,3,2,10,1,0,8,9,5,6,7],"radio_events":[4025.3000000002794,7270.600000000093,10965,16329.100000000093,19723.5,20361.30000000028,24748.600000000093,29387.899999999907,32435.600000000093,33743.39999999991,35098.39999999991],"key_events":[],"mouse_events":[4025.3000000002794,6309.300000000279,7270.600000000093,10965,11524.100000000093,12026.600000000093,16329.100000000093,18384.600000000093,19093.600000000093,19723.5,20361.30000000028,24748.600000000093,27536.80000000028,29387.899999999907,30861,32435.600000000093,33743.39999999991,35098.39999999991,36768.10000000009],"straightlining":0.45454545454545453,"zigzagging":0.3,"honeypot":0,"survey":"nfc10","trial_type":"survey-template","trial_index":2,"time_elapsed":1715565,"internal_node_id":"0.0-2.0","experiment":"validation","task_version":"2.0","jspsych_version":"6.3.1","infrequency":0},{"responses":{"Q03":"3","Q09":"4","Q08":"4","Q07":"4","Q01":"3","Q06":"2","Q04":"2","Q02":"2","Q05":"2"},"rt":20614.799999999814,"item_order":[2,8,7,6,0,5,3,1,4],"radio_events":[5354.899999999907,7623.899999999907,8894,10759,13893.600000000093,15532,17673.600000000093,19084.299999999814,19919.399999999907],"key_events":[],"mouse_events":[3724.7999999998137,5354.899999999907,6307.299999999814,7623.899999999907,8894,10160.5,10759,13893.600000000093,15532,16602.299999999814,17673.600000000093,19084.299999999814,19919.399999999907,20612.700000000186],"straightlining":0.4444444444444444,"zigzagging":0.375,"honeypot":0,"survey":"pcf","trial_type":"survey-template","trial_index":3,"time_elapsed":1736182,"internal_node_id":"0.0-3.0","experiment":"validation","task_version":"2.0","jspsych_version":"6.3.1","infrequency":0},{"rt":29332.700000000186,"response":{"Q4":3,"Q7":3,"Q1":4,"Q0":4,"Q8":0,"Q5":4,"Q6":1,"Q2":4,"Q3":4},"question_order":[4,7,1,0,8,5,6,2,3],"survey":"sns","trial_type":"survey-likert","trial_index":4,"time_elapsed":1765521,"internal_node_id":"0.0-4.0","experiment":"validation","task_version":"2.0","jspsych_version":"6.3.1","infrequency":0},{"value":0,"trial_type":"call-function","trial_index":5,"time_elapsed":1765524,"internal_node_id":"0.0-5.0","experiment":"validation","task_version":"2.0","jspsych_version":"6.3.1","interactions":"[{\"event\":\"blur\",\"trial\":0,\"time\":367051},{\"event\":\"focus\",\"trial\":0,\"time\":368023},{\"event\":\"blur\",\"trial\":0,\"time\":589998},{\"event\":\"focus\",\"trial\":0,\"time\":1663549},{\"event\":\"blur\",\"trial\":1,\"time\":1665962},{\"event\":\"focus\",\"trial\":1,\"time\":1667533}]"}]