[{"view_history":[{"page_index":0,"viewing_time":7611.400000095367}],"rt":7612.400000095367,"trial_type":"instructions","trial_index":0,"time_elapsed":7658,"internal_node_id":"0.0-0.0","experiment":"validation","task_version":"2.0","jspsych_version":"6.3.1"},{"rt":14000.099999904633,"responses":{"age":"39","gender-categorical":"Male","gender-free-response":"","ethnicity":"Not Hispanic or Latino","race":["Black or African American"],"education":"Some college"},"survey":"demographics","trial_type":"survey-demo","trial_index":1,"time_elapsed":21660,"internal_node_id":"0.0-1.0","experiment":"validation","task_version":"2.0","jspsych_version":"6.3.1"},{"responses":{"Q03":"4","Q09":"4","Q04":"3","Q08":"4","Q07":"4","Q02":"3","Q06":"3","Q01":"3","Q05":"3"},"rt":45397.700000047684,"item_order":[2,8,3,7,6,1,5,0,4],"radio_events":[6278.600000143051,14203.600000143051,24397.900000095367,24814.10000014305,29519.900000095367,34282,35383.799999952316,38547.90000009537,42777.90000009537],"key_events":[],"mouse_events":[6278.600000143051,14203.600000143051,18946,22376.700000047684,23063.200000047684,23769.900000095367,24143.799999952316,24397.900000095367,24814.10000014305,29519.900000095367,34282,35383.799999952316,36127.299999952316,37865.799999952316,38547.90000009537,42777.90000009537,45396.700000047684],"straightlining":0.5555555555555556,"zigzagging":0.375,"honeypot":0,"survey":"pcf","trial_type":"survey-template","trial_index":2,"time_elapsed":67061,"internal_node_id":"0.0-2.0","experiment":"validation","task_version":"2.0","jspsych_version":"6.3.1","infrequency":0},{"rt":63916.300000190735,"response":{"Q5":3,"Q1":2,"Q2":1,"Q3":4,"Q6":0,"Q7":5,"Q8":0,"Q0":2,"Q4":2},"question_order":[5,1,2,3,6,7,8,0,4],"survey":"sns","trial_type":"survey-likert","trial_index":3,"time_elapsed":130980,"internal_node_id":"0.0-3.0","experiment":"validation","task_version":"2.0","jspsych_version":"6.3.1","infrequency":0},{"responses":{"Q06":"1","Q03":"4","Q11":"0","Q10":"2","Q01":"2","Q05":"2","Q09":"2","Q08":"2","Q07":"3","Q02":"2","Q04":"3"},"rt":78541.59999990463,"item_order":[5,2,10,9,0,4,8,7,6,1,3],"radio_events":[8720.899999856949,46011.39999985695,51770.89999985695,55805,56489,61105.199999809265,63444.09999990463,65056.59999990463,70599.89999985695,72594.19999980927,76669.19999980927],"key_events":[],"mouse_events":[8720.899999856949,10381.599999904633,44958.09999990463,45547.89999985695,46011.39999985695,50829.5,51249.699999809265,51770.89999985695,53395.89999985695,55805,56163.799999952316,56489,61105.199999809265,63444.09999990463,65056.59999990463,70599.89999985695,71504.79999995232,72594.19999980927,73620.69999980927,76669.19999980927,78540.19999980927],"straightlining":0.5454545454545454,"zigzagging":0.4,"honeypot":0,"survey":"nfc10","trial_type":"survey-template","trial_index":4,"time_elapsed":209526,"internal_node_id":"0.0-4.0","experiment":"validation","task_version":"2.0","jspsych_version":"6.3.1","infrequency":0},{"value":0,"trial_type":"call-function","trial_index":5,"time_elapsed":209528,"internal_node_id":"0.0-5.0","experiment":"validation","task_version":"2.0","jspsych_version":"6.3.1","interactions":"[{\"event\":\"blur\",\"trial\":4,\"time\":152760},{\"event\":\"focus\",\"trial\":4,\"time\":172941}]"}]