[{"view_history":[{"page_index":0,"viewing_time":3832.2999999970198}],"rt":3833.89999999851,"trial_type":"instructions","trial_index":0,"time_elapsed":3858,"internal_node_id":"0.0-0.0","experiment":"validation","task_version":"2.0","jspsych_version":"6.3.1"},{"rt":15853.5,"responses":{"age":"30","gender-categorical":"Male","gender-free-response":"","ethnicity":"Not Hispanic or Latino","race":["Black or African American"],"education":"Some college"},"survey":"demographics","trial_type":"survey-demo","trial_index":1,"time_elapsed":19717,"internal_node_id":"0.0-1.0","experiment":"validation","task_version":"2.0","jspsych_version":"6.3.1"},{"responses":{"Q06":"3","Q02":"4","Q07":"4","Q05":"4","Q04":"4","Q01":"4","Q09":"4","Q08":"4","Q03":"4"},"rt":102742.89999999851,"item_order":[5,1,6,4,3,0,8,7,2],"radio_events":[16561.69999999553,23340.09999999404,29617,31194.59999999404,68082.69999999553,91795.79999999702,95346.79999999702,98139.29999999702,101291.5],"key_events":[],"mouse_events":[16561.69999999553,23340.09999999404,26065.89999999851,28325.5,29617,31194.59999999404,33217.29999999702,34419.79999999702,36302.59999999404,68082.69999999553,91795.79999999702,95346.79999999702,98139.29999999702,101291.5,102740],"straightlining":0.7777777777777778,"zigzagging":0.375,"honeypot":0,"survey":"pcf","trial_type":"survey-template","trial_index":2,"time_elapsed":122468,"internal_node_id":"0.0-2.0","experiment":"validation","task_version":"2.0","jspsych_version":"6.3.1","infrequency":0},{"rt":98731.20000000298,"response":{"Q0":2,"Q7":5,"Q4":2,"Q5":4,"Q3":5,"Q1":4,"Q6":0,"Q8":0,"Q2":4},"question_order":[0,7,4,5,3,1,6,8,2],"survey":"sns","trial_type":"survey-likert","trial_index":3,"time_elapsed":221204,"internal_node_id":"0.0-3.0","experiment":"validation","task_version":"2.0","jspsych_version":"6.3.1","infrequency":0},{"responses":{"Q07":"3","Q04":"4","Q03":"4","Q10":"4","Q01":"3","Q05":"4","Q09":"3","Q11":"0","Q08":"4","Q02":"4","Q06":"3"},"rt":429170.3999999985,"item_order":[6,3,2,9,0,4,8,10,7,1,5],"radio_events":[27499.89999999851,40402.60000000149,44017.10000000149,89447.39999999851,95203.39999999851,111151.39999999851,384512.700000003,392208.1000000015,399749.700000003,419496.6000000015,427828.200000003],"key_events":[],"mouse_events":[27499.89999999851,40402.60000000149,44017.10000000149,63683.39999999851,89447.39999999851,95203.39999999851,108828.89999999851,111151.39999999851,383546.3999999985,384512.700000003,392208.1000000015,399749.700000003,418128.200000003,419496.6000000015,427828.200000003,429167.1000000015],"straightlining":0.36363636363636365,"zigzagging":0.4,"honeypot":0,"survey":"nfc10","trial_type":"survey-template","trial_index":4,"time_elapsed":650380,"internal_node_id":"0.0-4.0","experiment":"validation","task_version":"2.0","jspsych_version":"6.3.1","infrequency":0},{"value":0,"trial_type":"call-function","trial_index":5,"time_elapsed":650385,"internal_node_id":"0.0-5.0","experiment":"validation","task_version":"2.0","jspsych_version":"6.3.1","interactions":"[{\"event\":\"blur\",\"trial\":4,\"time\":232709},{\"event\":\"focus\",\"trial\":4,\"time\":237502}]"}]