[{"view_history":[{"page_index":0,"viewing_time":679437}],"rt":679438.0999999642,"trial_type":"instructions","trial_index":0,"time_elapsed":679496,"internal_node_id":"0.0-0.0","experiment":"validation","task_version":"2.0","jspsych_version":"6.3.1"},{"rt":15522,"responses":{"age":"18","gender-categorical":"Male","gender-free-response":"","ethnicity":"Hispanic or Latino","race":["Rather not say"],"education":"High school"},"survey":"demographics","trial_type":"survey-demo","trial_index":1,"time_elapsed":695023,"internal_node_id":"0.0-1.0","experiment":"validation","task_version":"2.0","jspsych_version":"6.3.1"},{"responses":{"Q01":"3","Q08":"4","Q07":"3","Q02":"3","Q03":"3","Q05":"3","Q04":"3","Q06":"2","Q09":"4"},"rt":193830.09999996424,"item_order":[0,7,6,1,2,4,3,5,8],"radio_events":[2304.399999976158,4576.799999952316,7130.099999964237,8008.899999976158,10788,118135,126000.29999995232,126158,127857.19999998808,128677.5,129373.59999996424,129542.39999997616,129678.29999995232,134560.59999996424,136641.89999997616],"key_events":[],"mouse_events":[2304.399999976158,4003.2999999523163,4576.799999952316,7130.099999964237,8008.899999976158,10788,118135,120182.69999998808,123457.89999997616,124344.39999997616,125131.79999995232,125798.39999997616,126000.29999995232,126158,127610.09999996424,127857.19999998808,128114.59999996424,128677.5,129104.89999997616,129373.59999996424,129542.39999997616,129678.29999995232,134560.59999996424,136641.89999997616,193826.29999995232],"straightlining":0.6666666666666666,"zigzagging":0.375,"honeypot":0,"survey":"pcf","trial_type":"survey-template","trial_index":2,"time_elapsed":888864,"internal_node_id":"0.0-2.0","experiment":"validation","task_version":"2.0","jspsych_version":"6.3.1","infrequency":0},{"responses":{"Q10":"2","Q11":"0","Q03":"2","Q05":"3","Q06":"1","Q01":"2","Q04":"2","Q07":"1","Q09":"1","Q02":"2","Q08":"2"},"rt":152836.69999998808,"item_order":[9,10,2,4,5,0,3,6,8,1,7],"radio_events":[9729.899999976158,13160.599999964237,15929.699999988079,16954.30000001192,20002.899999976158,21318.899999976158,23973,25581.899999976158,140907.80000001192,144585.59999996424,146689.30000001192,149569.59999996424,152226.30000001192],"key_events":[],"mouse_events":[7256.800000011921,9729.899999976158,13160.599999964237,15929.699999988079,16954.30000001192,20002.899999976158,21318.899999976158,23973,25581.899999976158,140907.80000001192,144585.59999996424,146689.30000001192,149569.59999996424,151324.5,152226.30000001192,152833.09999996424],"straightlining":0.5454545454545454,"zigzagging":0.4,"honeypot":0,"survey":"nfc10","trial_type":"survey-template","trial_index":3,"time_elapsed":1041709,"internal_node_id":"0.0-3.0","experiment":"validation","task_version":"2.0","jspsych_version":"6.3.1","infrequency":0},{"rt":35223.59999996424,"response":{"Q6":1,"Q1":4,"Q2":4,"Q0":4,"Q3":4,"Q5":3,"Q8":0,"Q7":4,"Q4":3},"question_order":[6,1,2,0,3,5,8,7,4],"survey":"sns","trial_type":"survey-likert","trial_index":4,"time_elapsed":1076946,"internal_node_id":"0.0-4.0","experiment":"validation","task_version":"2.0","jspsych_version":"6.3.1","infrequency":0},{"value":0,"trial_type":"call-function","trial_index":5,"time_elapsed":1076953,"internal_node_id":"0.0-5.0","experiment":"validation","task_version":"2.0","jspsych_version":"6.3.1","interactions":"[{\"event\":\"blur\",\"trial\":0,\"time\":1643},{\"event\":\"focus\",\"trial\":0,\"time\":678504},{\"event\":\"blur\",\"trial\":1,\"time\":680088},{\"event\":\"focus\",\"trial\":1,\"time\":685740},{\"event\":\"blur\",\"trial\":4,\"time\":1044505},{\"event\":\"focus\",\"trial\":4,\"time\":1045372}]"}]