[{"view_history":[{"page_index":0,"viewing_time":4755}],"rt":4756,"trial_type":"instructions","trial_index":0,"time_elapsed":4761,"internal_node_id":"0.0-0.0","experiment":"validation","task_version":"2.0","jspsych_version":"6.3.1"},{"rt":15868,"responses":{"age":"31","gender-categorical":"Male","gender-free-response":"","ethnicity":"Not Hispanic or Latino","race":["White"],"education":"High school"},"survey":"demographics","trial_type":"survey-demo","trial_index":1,"time_elapsed":20635,"internal_node_id":"0.0-1.0","experiment":"validation","task_version":"2.0","jspsych_version":"6.3.1"},{"rt":39709,"response":{"Q7":1,"Q8":0,"Q4":1,"Q3":2,"Q0":0,"Q6":0,"Q1":1,"Q2":1,"Q5":5},"question_order":[7,8,4,3,0,6,1,2,5],"survey":"sns","trial_type":"survey-likert","trial_index":2,"time_elapsed":60347,"internal_node_id":"0.0-2.0","experiment":"validation","task_version":"2.0","jspsych_version":"6.3.1","infrequency":0},{"responses":{"Q04":"1","Q10":"1","Q02":"1","Q05":"1","Q08":"1","Q01":"1","Q09":"1","Q03":"1","Q06":"1","Q11":"0","Q07":"0"},"rt":55798,"item_order":[3,9,1,4,7,0,8,2,5,10,6],"radio_events":[11684,11838,12820,12974,13131,15775,15918,16072,21532,21670,23766,23924,25608,25758,25904,28167,30840,31006,34217,34343,34495,39118,39274,39416,54798,54942,55096],"key_events":[],"mouse_events":[1813,1952,2138,3260,3730,3852,4018,4524,4876,5024,5179,5509,9516,9682,9836,10003,10162,10304,10466,10774,10936,11092,11684,11838,12490,12820,12974,13131,14928,15055,15278,15496,15775,15918,16072,19258,19408,19562,20048,20216,20353,21532,21670,23766,23924,25608,25758,25904,28167,30662,30840,31006,32282,32426,32588,33180,33328,33494,34217,34343,34495,39118,39274,39416,41160,41288,41418,42278,42432,42578,43200,43338,43491,46794,46948,47123,47980,48125,48284,48622,48773,48930,49692,49812,49962,50337,50480,50618,51314,51460,51611,52212,52993,53422,53960,54114,54253,54798,54942,55096,55798],"straightlining":0.5454545454545454,"zigzagging":0.1,"honeypot":0,"survey":"nfc10","trial_type":"survey-template","trial_index":3,"time_elapsed":116149,"internal_node_id":"0.0-3.0","experiment":"validation","task_version":"2.0","jspsych_version":"6.3.1","infrequency":0},{"responses":{"Q05":"2","Q09":"4","Q08":"3","Q02":"3","Q04":"3","Q03":"4","Q06":"3","Q01":"3","Q07":"4"},"rt":36032,"item_order":[4,8,7,1,3,2,5,0,6],"radio_events":[3796,3942,7914,12006,14280,14478,18677,18914,22138,25245,25553,28747,28892,32700,32858,32988],"key_events":[],"mouse_events":[3796,3942,7914,12006,14280,14478,17954,18478,18677,18914,22138,24846,25245,25553,28424,28747,28892,31563,31720,31874,32700,32858,32988,36032],"straightlining":0.5555555555555556,"zigzagging":0.375,"honeypot":0,"survey":"pcf","trial_type":"survey-template","trial_index":4,"time_elapsed":152186,"internal_node_id":"0.0-4.0","experiment":"validation","task_version":"2.0","jspsych_version":"6.3.1","infrequency":0},{"value":0,"trial_type":"call-function","trial_index":5,"time_elapsed":152189,"internal_node_id":"0.0-5.0","experiment":"validation","task_version":"2.0","jspsych_version":"6.3.1","interactions":"[{\"event\":\"focus\",\"trial\":0,\"time\":2}]"}]