[{"view_history":[{"page_index":0,"viewing_time":12641.90000000596}],"rt":12642.20000000298,"trial_type":"instructions","trial_index":0,"time_elapsed":12665,"internal_node_id":"0.0-0.0","experiment":"validation","task_version":"2.0","jspsych_version":"6.3.1"},{"rt":6774.4000000059605,"responses":{"age":"35","gender-categorical":"Male","gender-free-response":"","ethnicity":"Hispanic or Latino","race":["White"],"education":"Bachelor degree"},"survey":"demographics","trial_type":"survey-demo","trial_index":1,"time_elapsed":19442,"internal_node_id":"0.0-1.0","experiment":"validation","task_version":"2.0","jspsych_version":"6.3.1"},{"rt":78352.39999999106,"response":{"Q0":4,"Q1":4,"Q3":4,"Q7":4,"Q4":4,"Q2":4,"Q5":5,"Q8":0,"Q6":0},"question_order":[0,1,3,7,4,2,5,8,6],"survey":"sns","trial_type":"survey-likert","trial_index":2,"time_elapsed":97802,"internal_node_id":"0.0-2.0","experiment":"validation","task_version":"2.0","jspsych_version":"6.3.1","infrequency":0},{"responses":{"Q08":"3","Q02":"3","Q03":"3","Q09":"3","Q11":"0","Q04":"4","Q05":"3","Q07":"3","Q01":"3","Q06":"2","Q10":"4"},"rt":137448,"item_order":[7,1,2,8,10,3,4,6,0,5,9],"radio_events":[35265.40000000596,35296.40000000596,37135.90000000596,45111.5,97647,100911.10000000894,105295,107639,115334.79999999702,123102.90000000596,129046.70000000298,136254.79999999702],"key_events":[],"mouse_events":[35265.40000000596,35296.40000000596,35631.70000000298,37135.90000000596,38351.79999999702,45111.5,96503.60000000894,97223.10000000894,97647,100911.10000000894,105295,107639,115334.79999999702,122375.10000000894,123102.90000000596,123478.90000000596,128662.40000000596,129046.70000000298,130710.70000000298,136254.79999999702,137446.5],"straightlining":0.45454545454545453,"zigzagging":0.2,"honeypot":0,"survey":"nfc10","trial_type":"survey-template","trial_index":3,"time_elapsed":235256,"internal_node_id":"0.0-3.0","experiment":"validation","task_version":"2.0","jspsych_version":"6.3.1","infrequency":0},{"responses":{"Q05":"4","Q01":"4","Q04":"4","Q03":"4","Q06":"4","Q09":"4","Q08":"4","Q07":"4","Q02":"4"},"rt":188223.5,"item_order":[4,0,3,2,5,8,7,6,1],"radio_events":[162118.5,163174.70000000298,164494.70000000298,164831,165806.59999999404,168982.5,172086.5,172950.5,173966.59999999404,177390.5,177446.39999999106,178598.29999999702,179774.39999999106],"key_events":[],"mouse_events":[162118.5,163174.70000000298,164494.70000000298,164831,165806.59999999404,166214.5,167142.5,168982.5,169398.59999999404,170134.59999999404,172086.5,172950.5,173966.59999999404,177390.5,177446.39999999106,178598.29999999702,179774.39999999106,188222.39999999106],"straightlining":0.8888888888888888,"zigzagging":0.25,"honeypot":0,"survey":"pcf","trial_type":"survey-template","trial_index":4,"time_elapsed":423485,"internal_node_id":"0.0-4.0","experiment":"validation","task_version":"2.0","jspsych_version":"6.3.1","infrequency":0},{"value":0,"trial_type":"call-function","trial_index":5,"time_elapsed":423489,"internal_node_id":"0.0-5.0","experiment":"validation","task_version":"2.0","jspsych_version":"6.3.1","interactions":"[{\"event\":\"blur\",\"trial\":0,\"time\":722},{\"event\":\"focus\",\"trial\":0,\"time\":12583},{\"event\":\"blur\",\"trial\":2,\"time\":56426},{\"event\":\"focus\",\"trial\":2,\"time\":88071},{\"event\":\"blur\",\"trial\":3,\"time\":104105},{\"event\":\"focus\",\"trial\":3,\"time\":133035},{\"event\":\"blur\",\"trial\":4,\"time\":238541},{\"event\":\"focus\",\"trial\":4,\"time\":371052},{\"event\":\"blur\",\"trial\":4,\"time\":372685},{\"event\":\"focus\",\"trial\":4,\"time\":394181}]"}]