[{"view_history":[{"page_index":0,"viewing_time":15064.800000071526}],"rt":15065.200000047684,"trial_type":"instructions","trial_index":0,"time_elapsed":15075,"internal_node_id":"0.0-0.0","experiment":"validation","task_version":"2.0","jspsych_version":"6.3.1"},{"rt":8238,"responses":{"age":"32","gender-categorical":"Male","gender-free-response":"","ethnicity":"Not Hispanic or Latino","race":["White"],"education":"Some college"},"survey":"demographics","trial_type":"survey-demo","trial_index":1,"time_elapsed":23314,"internal_node_id":"0.0-1.0","experiment":"validation","task_version":"2.0","jspsych_version":"6.3.1"},{"rt":29570.399999976158,"response":{"Q6":0,"Q8":0,"Q4":4,"Q7":5,"Q2":5,"Q1":5,"Q3":5,"Q5":3,"Q0":4},"question_order":[6,8,4,7,2,1,3,5,0],"survey":"sns","trial_type":"survey-likert","trial_index":2,"time_elapsed":52888,"internal_node_id":"0.0-2.0","experiment":"validation","task_version":"2.0","jspsych_version":"6.3.1","infrequency":0},{"responses":{"Q03":"4","Q01":"3","Q04":"3","Q08":"3","Q05":"2","Q11":"0","Q07":"3","Q02":"3","Q10":"4","Q09":"3","Q06":"2"},"rt":48805.10000002384,"item_order":[2,0,3,7,4,10,6,1,9,8,5],"radio_events":[4970.700000047684,6847.200000047684,8937.5,12315.200000047684,16449.700000047684,31956.800000071526,37726.700000047684,41429.39999997616,42267.800000071526,44334.800000071526,47970.800000071526],"key_events":[],"mouse_events":[3534.8000000715256,4970.700000047684,5700.100000023842,6847.200000047684,8937.5,9608,12315.200000047684,16449.700000047684,31536.899999976158,31956.800000071526,37075.10000002384,37726.700000047684,39350.800000071526,40508.60000002384,40789.300000071526,41429.39999997616,41773.800000071526,42267.800000071526,44334.800000071526,44933.300000071526,47673.39999997616,47970.800000071526,48804.300000071526],"straightlining":0.45454545454545453,"zigzagging":0.4,"honeypot":0,"survey":"nfc10","trial_type":"survey-template","trial_index":3,"time_elapsed":101697,"internal_node_id":"0.0-3.0","experiment":"validation","task_version":"2.0","jspsych_version":"6.3.1","infrequency":0},{"responses":{"Q03":"2","Q01":"3","Q04":"3","Q08":"3","Q07":"3","Q09":"4","Q05":"2","Q06":"2","Q02":"2"},"rt":51894.39999997616,"item_order":[2,0,3,7,6,8,4,5,1],"radio_events":[6077.100000023842,28930,36191.800000071526,39147.39999997616,41574.60000002384,43164.60000002384,44824.5,46115.5,47458.700000047684,51283.39999997616],"key_events":[],"mouse_events":[6077.100000023842,28930,36191.800000071526,37666.5,38242.700000047684,39147.39999997616,41574.60000002384,43164.60000002384,44824.5,45701,46115.5,47458.700000047684,49387.800000071526,50442,51283.39999997616,51893.89999997616],"straightlining":0.4444444444444444,"zigzagging":0.125,"honeypot":0,"survey":"pcf","trial_type":"survey-template","trial_index":4,"time_elapsed":153594,"internal_node_id":"0.0-4.0","experiment":"validation","task_version":"2.0","jspsych_version":"6.3.1","infrequency":0},{"value":0,"trial_type":"call-function","trial_index":5,"time_elapsed":153596,"internal_node_id":"0.0-5.0","experiment":"validation","task_version":"2.0","jspsych_version":"6.3.1","interactions":"[]"}]