[{"view_history":[{"page_index":0,"viewing_time":3035.800000011921}],"rt":3036.100000023842,"trial_type":"instructions","trial_index":0,"time_elapsed":3048,"internal_node_id":"0.0-0.0","experiment":"validation","task_version":"2.0","jspsych_version":"6.3.1"},{"rt":128304.89999997616,"responses":{"age":"45","gender-categorical":"Female","gender-free-response":"","ethnicity":"Not Hispanic or Latino","race":["White"],"education":"Bachelor degree"},"survey":"demographics","trial_type":"survey-demo","trial_index":1,"time_elapsed":131355,"internal_node_id":"0.0-1.0","experiment":"validation","task_version":"2.0","jspsych_version":"6.3.1"},{"responses":{"Q05":"0","Q06":"1","Q08":"1","Q07":"2","Q01":"2","Q02":"2","Q09":"0","Q04":"2","Q03":"1"},"rt":72039.10000002384,"item_order":[4,5,7,6,0,1,8,3,2],"radio_events":[3859.800000011921,7461.400000035763,9989.5,11885.200000047684,14087.400000035763,17541.5,19587.900000035763,66657.5,71323.10000002384],"key_events":[],"mouse_events":[3859.800000011921,7461.400000035763,9989.5,11885.200000047684,14087.400000035763,17541.5,19587.900000035763,53019.60000002384,62413.200000047684,66657.5,70409.30000001192,71323.10000002384,72037.5],"straightlining":0.4444444444444444,"zigzagging":0.375,"honeypot":0,"survey":"pcf","trial_type":"survey-template","trial_index":2,"time_elapsed":203400,"internal_node_id":"0.0-2.0","experiment":"validation","task_version":"2.0","jspsych_version":"6.3.1","infrequency":1},{"responses":{"Q10":"1","Q07":"2","Q02":"2","Q04":"3","Q11":"0","Q08":"3","Q03":"3","Q06":"3","Q09":"2","Q05":"3","Q01":"2"},"rt":62438.5,"item_order":[9,6,1,3,10,7,2,5,8,4,0],"radio_events":[7046.399999976158,8398.300000011921,14676.699999988079,26024.399999976158,29944.100000023842,35710.30000001192,37832.19999998808,42618,45958.39999997616,49418.10000002384,53290.39999997616,61396.30000001192],"key_events":[],"mouse_events":[7046.399999976158,8398.300000011921,14676.699999988079,20518,26024.399999976158,29172.19999998808,29944.100000023842,35710.30000001192,37832.19999998808,42618,45958.39999997616,49418.10000002384,53290.39999997616,53984.10000002384,55410.39999997616,61396.30000001192,62436.30000001192],"straightlining":0.36363636363636365,"zigzagging":0.6,"honeypot":0,"survey":"nfc10","trial_type":"survey-template","trial_index":3,"time_elapsed":265842,"internal_node_id":"0.0-3.0","experiment":"validation","task_version":"2.0","jspsych_version":"6.3.1","infrequency":0},{"rt":422833.40000003576,"response":{"Q2":4,"Q3":3,"Q6":0,"Q7":5,"Q0":2,"Q1":3,"Q8":0,"Q4":2,"Q5":4},"question_order":[2,3,6,7,0,1,8,4,5],"survey":"sns","trial_type":"survey-likert","trial_index":4,"time_elapsed":688681,"internal_node_id":"0.0-4.0","experiment":"validation","task_version":"2.0","jspsych_version":"6.3.1","infrequency":0},{"value":1,"trial_type":"call-function","trial_index":5,"time_elapsed":688684,"internal_node_id":"0.0-5.0","experiment":"validation","task_version":"2.0","jspsych_version":"6.3.1","interactions":"[{\"event\":\"blur\",\"trial\":1,\"time\":12287},{\"event\":\"focus\",\"trial\":1,\"time\":122881},{\"event\":\"blur\",\"trial\":2,\"time\":152126},{\"event\":\"focus\",\"trial\":2,\"time\":184275},{\"event\":\"blur\",\"trial\":2,\"time\":186018},{\"event\":\"focus\",\"trial\":2,\"time\":193652},{\"event\":\"blur\",\"trial\":4,\"time\":273152},{\"event\":\"focus\",\"trial\":4,\"time\":285884},{\"event\":\"blur\",\"trial\":4,\"time\":287493},{\"event\":\"focus\",\"trial\":4,\"time\":341618},{\"event\":\"blur\",\"trial\":4,\"time\":362887},{\"event\":\"focus\",\"trial\":4,\"time\":578585},{\"event\":\"blur\",\"trial\":4,\"time\":599101},{\"event\":\"focus\",\"trial\":4,\"time\":674728}]"}]