[{"view_history":[{"page_index":0,"viewing_time":5998.9000000003725}],"rt":5999.299999998882,"trial_type":"instructions","trial_index":0,"time_elapsed":6026,"internal_node_id":"0.0-0.0","experiment":"validation","task_version":"2.0","jspsych_version":"6.3.1"},{"rt":16998.200000001118,"responses":{"age":"31","gender-categorical":"Male","gender-free-response":"","ethnicity":"Not Hispanic or Latino","race":["Black or African American"],"education":"Bachelor degree"},"survey":"demographics","trial_type":"survey-demo","trial_index":1,"time_elapsed":23025,"internal_node_id":"0.0-1.0","experiment":"validation","task_version":"2.0","jspsych_version":"6.3.1"},{"responses":{"Q05":"3","Q06":"3","Q01":"2","Q03":"3","Q09":"3","Q04":"3","Q10":"3","Q07":"2","Q11":"0","Q02":"3","Q08":"3"},"rt":59077.699999999255,"item_order":[4,5,0,2,8,3,9,6,10,1,7],"radio_events":[11629,15020.89999999851,24181,27884.39999999851,31476.799999998882,35964.79999999888,39604.5,45060.39999999851,50036.39999999851,51132.699999999255,55508.29999999888,58244.59999999963],"key_events":[],"mouse_events":[11629,15020.89999999851,24181,27332.599999999627,27884.39999999851,31476.799999998882,35436.29999999888,35964.79999999888,39604.5,44532.79999999888,45060.39999999851,50036.39999999851,51132.699999999255,55508.29999999888,58244.59999999963,59076.59999999963],"straightlining":0.45454545454545453,"zigzagging":0.3,"honeypot":0,"survey":"nfc10","trial_type":"survey-template","trial_index":2,"time_elapsed":82106,"internal_node_id":"0.0-2.0","experiment":"validation","task_version":"2.0","jspsych_version":"6.3.1","infrequency":0},{"responses":{"Q08":"3","Q05":"3","Q02":"3","Q03":"2","Q01":"3","Q09":"0","Q07":"4","Q06":"3","Q04":"3"},"rt":36589.90000000037,"item_order":[7,4,1,2,0,8,6,5,3],"radio_events":[5492.800000000745,7404.800000000745,10284.800000000745,14501,15460.800000000745,18421,21028.900000000373,23788.900000000373,27468.800000000745,29701.099999999627,35460.90000000037],"key_events":[],"mouse_events":[5492.800000000745,7404.800000000745,10284.800000000745,13212.800000000745,14501,15460.800000000745,18421,21028.900000000373,23788.900000000373,27468.800000000745,29204.900000000373,29701.099999999627,33484.90000000037,34108.40000000037,34476.40000000037,34980.800000000745,35460.90000000037,36589.09999999963],"straightlining":0.6666666666666666,"zigzagging":0.5,"honeypot":0,"survey":"pcf","trial_type":"survey-template","trial_index":3,"time_elapsed":118698,"internal_node_id":"0.0-3.0","experiment":"validation","task_version":"2.0","jspsych_version":"6.3.1","infrequency":1},{"rt":67605.09999999963,"response":{"Q2":3,"Q5":4,"Q0":4,"Q4":4,"Q6":1,"Q1":4,"Q8":0,"Q7":4,"Q3":4},"question_order":[2,5,0,4,6,1,8,7,3],"survey":"sns","trial_type":"survey-likert","trial_index":4,"time_elapsed":186306,"internal_node_id":"0.0-4.0","experiment":"validation","task_version":"2.0","jspsych_version":"6.3.1","infrequency":0},{"value":1,"trial_type":"call-function","trial_index":5,"time_elapsed":186307,"internal_node_id":"0.0-5.0","experiment":"validation","task_version":"2.0","jspsych_version":"6.3.1","interactions":"[]"}]