[{"view_history":[{"page_index":0,"viewing_time":1185.7000007629395}],"rt":1185.8000001907349,"trial_type":"instructions","trial_index":0,"time_elapsed":1206,"internal_node_id":"0.0-0.0","experiment":"validation","task_version":"2.0","jspsych_version":"6.3.1"},{"rt":52182.800000190735,"responses":{"age":"25","gender-categorical":"Other","gender-free-response":"non-binary","ethnicity":"Not Hispanic or Latino","race":["White"],"education":"Bachelor degree"},"survey":"demographics","trial_type":"survey-demo","trial_index":1,"time_elapsed":53390,"internal_node_id":"0.0-1.0","experiment":"validation","task_version":"2.0","jspsych_version":"6.3.1"},{"responses":{"Q06":"3","Q01":"3","Q11":"0","Q05":"1","Q07":"2","Q10":"4","Q04":"3","Q02":"4","Q08":"3","Q09":"3","Q03":"3"},"rt":76803.10000038147,"item_order":[5,0,10,4,6,9,3,1,7,8,2],"radio_events":[14905.5,15521.60000038147,23505.5,27993.400000572205,43129.5,48873.900000572205,51873.900000572205,52809.400000572205,60233.400000572205,62849.300000190735,66897.9000005722,75513.69999980927],"key_events":[],"mouse_events":[12049.60000038147,14905.5,15521.60000038147,21617.900000572205,22697.5,23505.5,27993.400000572205,42329.5,43129.5,47930.199999809265,48873.900000572205,51873.900000572205,52809.400000572205,54330.199999809265,57177.900000572205,60233.400000572205,61522,62345.300000190735,62849.300000190735,65953.60000038147,66897.9000005722,75513.69999980927,76801.80000019073],"straightlining":0.45454545454545453,"zigzagging":0.2,"honeypot":0,"survey":"nfc10","trial_type":"survey-template","trial_index":2,"time_elapsed":130200,"internal_node_id":"0.0-2.0","experiment":"validation","task_version":"2.0","jspsych_version":"6.3.1","infrequency":0},{"rt":41777.400000572205,"response":{"Q6":0,"Q0":3,"Q5":0,"Q4":3,"Q8":0,"Q7":2,"Q2":5,"Q1":4,"Q3":5},"question_order":[6,0,5,4,8,7,2,1,3],"survey":"sns","trial_type":"survey-likert","trial_index":3,"time_elapsed":171983,"internal_node_id":"0.0-3.0","experiment":"validation","task_version":"2.0","jspsych_version":"6.3.1","infrequency":0},{"responses":{"Q01":"4","Q08":"4","Q05":"2","Q06":"4","Q07":"4","Q09":"4","Q02":"4","Q03":"4","Q04":"4"},"rt":27945.20000076294,"item_order":[0,7,4,5,6,8,1,2,3],"radio_events":[4216.400000572205,6592.300000190735,10368.60000038147,13865.20000076294,14392.60000038147,17600.400000572205,20696.400000572205,24184.5,25048.400000572205],"key_events":[],"mouse_events":[4216.400000572205,6592.300000190735,8592.60000038147,9032.20000076294,10000.5,10368.60000038147,12016.800000190735,12944.300000190735,13512.900000572205,13865.20000076294,14392.60000038147,17600.400000572205,20696.400000572205,22728.400000572205,23600.5,24184.5,25048.400000572205,27944.400000572205],"straightlining":0.7777777777777778,"zigzagging":0.25,"honeypot":0,"survey":"pcf","trial_type":"survey-template","trial_index":4,"time_elapsed":199935,"internal_node_id":"0.0-4.0","experiment":"validation","task_version":"2.0","jspsych_version":"6.3.1","infrequency":0},{"value":0,"trial_type":"call-function","trial_index":5,"time_elapsed":199938,"internal_node_id":"0.0-5.0","experiment":"validation","task_version":"2.0","jspsych_version":"6.3.1","interactions":"[{\"event\":\"blur\",\"trial\":1,\"time\":14645},{\"event\":\"focus\",\"trial\":1,\"time\":45627}]"}]