[{"view_history":[{"page_index":0,"viewing_time":2888.5999999046326}],"rt":2888.7999999523163,"trial_type":"instructions","trial_index":0,"time_elapsed":2903,"internal_node_id":"0.0-0.0","experiment":"validation","task_version":"2.0","jspsych_version":"6.3.1"},{"rt":17007,"responses":{"age":"45","gender-categorical":"Female","gender-free-response":"","ethnicity":"Not Hispanic or Latino","race":["White"],"education":"High school"},"survey":"demographics","trial_type":"survey-demo","trial_index":1,"time_elapsed":19911,"internal_node_id":"0.0-1.0","experiment":"validation","task_version":"2.0","jspsych_version":"6.3.1"},{"responses":{"Q10":"0","Q03":"1","Q02":"0","Q08":"0","Q05":"3","Q11":"0","Q04":"0","Q07":"0","Q01":"0","Q06":"0","Q09":"0"},"rt":50750.09999990463,"item_order":[9,2,1,7,4,10,3,6,0,5,8],"radio_events":[3276.7999999523163,6380.700000047684,9188.799999952316,13356.900000095367,18916.700000047684,22268.799999952316,32748.5,41740.799999952316,44340.700000047684,46388.700000047684,49564.799999952316],"key_events":[],"mouse_events":[3276.7999999523163,5244.5,6380.700000047684,9188.799999952316,13356.900000095367,17276.700000047684,18916.700000047684,22268.799999952316,32748.5,41740.799999952316,44340.700000047684,46388.700000047684,48284.799999952316,49564.799999952316,50748.90000009537],"straightlining":0.7272727272727273,"zigzagging":0.4,"honeypot":0,"survey":"nfc10","trial_type":"survey-template","trial_index":2,"time_elapsed":70664,"internal_node_id":"0.0-2.0","experiment":"validation","task_version":"2.0","jspsych_version":"6.3.1","infrequency":0},{"responses":{"Q06":"4","Q05":"4","Q07":"4","Q09":"4","Q04":"4","Q01":"4","Q02":"4","Q03":"4","Q08":"2"},"rt":50805.90000009537,"item_order":[5,4,6,8,3,0,1,2,7],"radio_events":[16020.5,17780.60000014305,25124.60000014305,30092.60000014305,31676.700000047684,32372.60000014305,33788.90000009537,36628.700000047684,43380.700000047684,47692.799999952316],"key_events":[],"mouse_events":[16020.5,17780.60000014305,18940.700000047684,21220.60000014305,25124.60000014305,26460.700000047684,27804.700000047684,29412.700000047684,30092.60000014305,30516.799999952316,31164.60000014305,31676.700000047684,32372.60000014305,33788.90000009537,35636.799999952316,36628.700000047684,37444.799999952316,38092.700000047684,39540.700000047684,43380.700000047684,47692.799999952316,50805],"straightlining":0.7777777777777778,"zigzagging":0.25,"honeypot":0,"survey":"pcf","trial_type":"survey-template","trial_index":3,"time_elapsed":121472,"internal_node_id":"0.0-3.0","experiment":"validation","task_version":"2.0","jspsych_version":"6.3.1","infrequency":0},{"rt":39557.200000047684,"response":{"Q8":0,"Q6":0,"Q5":0,"Q4":0,"Q7":5,"Q0":0,"Q2":0,"Q3":0,"Q1":0},"question_order":[8,6,5,4,7,0,2,3,1],"survey":"sns","trial_type":"survey-likert","trial_index":4,"time_elapsed":161033,"internal_node_id":"0.0-4.0","experiment":"validation","task_version":"2.0","jspsych_version":"6.3.1","infrequency":0},{"value":0,"trial_type":"call-function","trial_index":5,"time_elapsed":161034,"internal_node_id":"0.0-5.0","experiment":"validation","task_version":"2.0","jspsych_version":"6.3.1","interactions":"[]"}]