[{"view_history":[{"page_index":0,"viewing_time":11821.199999999997}],"rt":11821.300000000003,"trial_type":"instructions","trial_index":0,"time_elapsed":11836,"internal_node_id":"0.0-0.0","experiment":"validation","task_version":"2.0","jspsych_version":"6.3.1"},{"rt":17510.300000000003,"responses":{"age":"21","gender-categorical":"Male","gender-free-response":"","ethnicity":"Not Hispanic or Latino","race":["Asian"],"education":"Associate degree"},"survey":"demographics","trial_type":"survey-demo","trial_index":1,"time_elapsed":29348,"internal_node_id":"0.0-1.0","experiment":"validation","task_version":"2.0","jspsych_version":"6.3.1"},{"responses":{"Q04":"3","Q06":"2","Q03":"2","Q08":"2","Q07":"1","Q05":"2","Q01":"2","Q02":"3","Q09":"3"},"rt":18715.600000000006,"item_order":[3,5,2,7,6,4,0,1,8],"radio_events":[2270.5999999999913,3287.7999999999884,3948.5999999999913,5299.5,6284.099999999991,16425.5,16803.5,17656.399999999994,18257],"key_events":[],"mouse_events":[859.2999999999884,1004.5,1153.3999999999942,1295.699999999997,1429,2270.5999999999913,2833.7999999999884,3287.7999999999884,3948.5999999999913,4611.599999999991,5299.5,6284.099999999991,16425.5,16803.5,17136.5,17656.399999999994,18257,18714.699999999983],"straightlining":0.5555555555555556,"zigzagging":0.5,"honeypot":0,"survey":"pcf","trial_type":"survey-template","trial_index":2,"time_elapsed":48069,"internal_node_id":"0.0-2.0","experiment":"validation","task_version":"2.0","jspsych_version":"6.3.1","infrequency":0.5},{"responses":{"Q06":"1","Q01":"2","Q09":"2","Q07":"3","Q05":"2","Q08":"3","Q04":"3","Q02":"2","Q03":"1","Q10":"3","Q11":"2"},"rt":83395.1,"item_order":[5,0,8,6,4,7,3,1,2,9,10],"radio_events":[1056.3000000000175,1714.2000000000116,2048.3000000000175,11932.399999999994,12664.700000000012,13513.399999999994,15237,15882.700000000012,16564,17196.70000000001,17980.399999999994],"key_events":[],"mouse_events":[1056.3000000000175,1714.2000000000116,2048.3000000000175,2671.2000000000116,11932.399999999994,12664.700000000012,13513.399999999994,14888.300000000017,15237,15882.700000000012,16564,17196.70000000001,17980.399999999994,83394],"straightlining":0.45454545454545453,"zigzagging":0.7,"honeypot":0,"survey":"nfc10","trial_type":"survey-template","trial_index":3,"time_elapsed":131469,"internal_node_id":"0.0-3.0","experiment":"validation","task_version":"2.0","jspsych_version":"6.3.1","infrequency":1},{"rt":23728.20000000001,"response":{"Q3":2,"Q5":3,"Q1":2,"Q2":2,"Q4":1,"Q7":3,"Q8":0,"Q6":2,"Q0":3},"question_order":[3,5,1,2,4,7,8,6,0],"survey":"sns","trial_type":"survey-likert","trial_index":4,"time_elapsed":155205,"internal_node_id":"0.0-4.0","experiment":"validation","task_version":"2.0","jspsych_version":"6.3.1","infrequency":0},{"value":1.5,"trial_type":"call-function","trial_index":5,"time_elapsed":155210,"internal_node_id":"0.0-5.0","experiment":"validation","task_version":"2.0","jspsych_version":"6.3.1","interactions":"[{\"event\":\"focus\",\"trial\":0,\"time\":10651},{\"event\":\"blur\",\"trial\":1,\"time\":15403},{\"event\":\"focus\",\"trial\":1,\"time\":23293},{\"event\":\"blur\",\"trial\":3,\"time\":51361},{\"event\":\"focus\",\"trial\":3,\"time\":58049},{\"event\":\"blur\",\"trial\":3,\"time\":58378},{\"event\":\"focus\",\"trial\":3,\"time\":59122}]"}]