[{"view_history":[{"page_index":0,"viewing_time":2621.3999999910593}],"rt":2624.5,"trial_type":"instructions","trial_index":0,"time_elapsed":2650,"internal_node_id":"0.0-0.0","experiment":"validation","task_version":"2.0","jspsych_version":"6.3.1"},{"rt":9461.90000000596,"responses":{"age":"34","gender-categorical":"Female","gender-free-response":"","ethnicity":"Not Hispanic or Latino","race":["White"],"education":"Bachelor degree"},"survey":"demographics","trial_type":"survey-demo","trial_index":1,"time_elapsed":12126,"internal_node_id":"0.0-1.0","experiment":"validation","task_version":"2.0","jspsych_version":"6.3.1"},{"rt":27731.5,"response":{"Q0":0,"Q4":4,"Q8":0,"Q1":3,"Q7":5,"Q5":5,"Q6":0,"Q2":0,"Q3":5},"question_order":[0,4,8,1,7,5,6,2,3],"survey":"sns","trial_type":"survey-likert","trial_index":2,"time_elapsed":39878,"internal_node_id":"0.0-2.0","experiment":"validation","task_version":"2.0","jspsych_version":"6.3.1","infrequency":0},{"responses":{"Q04":"3","Q05":"4","Q03":"4","Q09":"4","Q06":"4","Q01":"4","Q07":"4","Q02":"4","Q08":"3"},"rt":30836.40000000596,"item_order":[3,4,2,8,5,0,6,1,7],"radio_events":[8651.10000000894,10854.90000000596,15966.40000000596,17847.20000000298,21859.29999999702,23701.10000000894,24692.40000000596,26955.90000000596,29375,30035.79999999702],"key_events":[],"mouse_events":[7758.5,8651.10000000894,9486.79999999702,10854.90000000596,12992.29999999702,14087.10000000894,15386.90000000596,15966.40000000596,17847.20000000298,21246.60000000894,21859.29999999702,23701.10000000894,24692.40000000596,25804.5,26955.90000000596,27632.90000000596,28300.29999999702,29375,30035.79999999702,30827.20000000298],"straightlining":0.6666666666666666,"zigzagging":0.5,"honeypot":0,"survey":"pcf","trial_type":"survey-template","trial_index":3,"time_elapsed":70729,"internal_node_id":"0.0-3.0","experiment":"validation","task_version":"2.0","jspsych_version":"6.3.1","infrequency":0},{"responses":{"Q04":"4","Q09":"1","Q10":"1","Q06":"2","Q03":"1","Q11":"0","Q02":"1","Q08":"2","Q05":"3","Q07":"1","Q01":"2"},"rt":41644.09999999404,"item_order":[3,8,9,5,2,10,1,7,4,6,0],"radio_events":[3342.2000000029802,5978.79999999702,9847.70000000298,13556.90000000596,15625.79999999702,22884.90000000596,27281.29999999702,29994.79999999702,33223.29999999702,37925.5,39778.59999999404,40890.70000000298],"key_events":[],"mouse_events":[3342.2000000029802,5978.79999999702,9847.70000000298,12058.29999999702,12857.90000000596,13556.90000000596,14724.59999999404,15625.79999999702,22380.59999999404,22884.90000000596,27281.29999999702,29994.79999999702,33223.29999999702,37925.5,39778.59999999404,40890.70000000298,41635.90000000596],"straightlining":0.45454545454545453,"zigzagging":0.7,"honeypot":0,"survey":"nfc10","trial_type":"survey-template","trial_index":4,"time_elapsed":112388,"internal_node_id":"0.0-4.0","experiment":"validation","task_version":"2.0","jspsych_version":"6.3.1","infrequency":0},{"value":0,"trial_type":"call-function","trial_index":5,"time_elapsed":112394,"internal_node_id":"0.0-5.0","experiment":"validation","task_version":"2.0","jspsych_version":"6.3.1","interactions":"[]"}]