[{"view_history":[{"page_index":0,"viewing_time":1920.3999999761581}],"rt":1920.6000000238419,"trial_type":"instructions","trial_index":0,"time_elapsed":1934,"internal_node_id":"0.0-0.0","experiment":"validation","task_version":"2.0","jspsych_version":"6.3.1"},{"rt":15216.600000023842,"responses":{"age":"30","gender-categorical":"Other","gender-free-response":"nonbinary","ethnicity":"Not Hispanic or Latino","race":["Black or African American"],"education":"High school"},"survey":"demographics","trial_type":"survey-demo","trial_index":1,"time_elapsed":17153,"internal_node_id":"0.0-1.0","experiment":"validation","task_version":"2.0","jspsych_version":"6.3.1"},{"rt":26030.69999998808,"response":{"Q4":1,"Q1":0,"Q2":0,"Q3":0,"Q7":3,"Q0":0,"Q8":0,"Q5":5,"Q6":0},"question_order":[4,1,2,3,7,0,8,5,6],"survey":"sns","trial_type":"survey-likert","trial_index":2,"time_elapsed":43186,"internal_node_id":"0.0-2.0","experiment":"validation","task_version":"2.0","jspsych_version":"6.3.1","infrequency":0},{"responses":{"Q08":"3","Q06":"2","Q02":"1","Q03":"2","Q04":"2","Q09":"3","Q07":"2","Q01":"2","Q05":"0"},"rt":33649.40000003576,"item_order":[7,5,1,2,3,8,6,0,4],"radio_events":[3722.699999988079,6996.400000035763,10081.300000011921,11214.800000011921,12929.600000023842,14013.600000023842,16465.600000023842,24372.400000035763,28234.69999998808,29524.600000023842,30666.600000023842,32160.30000001192],"key_events":[],"mouse_events":[3143.300000011921,3722.699999988079,6996.400000035763,8873.5,9529.699999988079,10081.300000011921,10603.5,11214.800000011921,12929.600000023842,14013.600000023842,16465.600000023842,24372.400000035763,28234.69999998808,29020.400000035763,29524.600000023842,30666.600000023842,32160.30000001192,33648.40000003576],"straightlining":0.5555555555555556,"zigzagging":0.625,"honeypot":0,"survey":"pcf","trial_type":"survey-template","trial_index":3,"time_elapsed":76838,"internal_node_id":"0.0-3.0","experiment":"validation","task_version":"2.0","jspsych_version":"6.3.1","infrequency":0.5},{"responses":{"Q04":"0","Q10":"0","Q09":"0","Q07":"0","Q01":"0","Q08":"0","Q06":"0","Q05":"0","Q03":"0","Q02":"0","Q11":"0"},"rt":32220.399999976158,"item_order":[3,9,8,6,0,7,5,4,2,1,10],"radio_events":[6524.099999964237,9706.399999976158,14508,16419.399999976158,17352.19999998808,18467.399999976158,19904.399999976158,22421,23419.899999976158,26419.299999952316,28582.19999998808],"key_events":[],"mouse_events":[6524.099999964237,9706.399999976158,14083.399999976158,14508,15689.099999964237,16419.399999976158,17352.19999998808,18467.399999976158,19904.399999976158,22421,23419.899999976158,25959,26419.299999952316,28582.19999998808,32219.399999976158],"straightlining":0.7272727272727273,"zigzagging":0.3,"honeypot":0,"survey":"nfc10","trial_type":"survey-template","trial_index":4,"time_elapsed":109060,"internal_node_id":"0.0-4.0","experiment":"validation","task_version":"2.0","jspsych_version":"6.3.1","infrequency":0},{"value":0.5,"trial_type":"call-function","trial_index":5,"time_elapsed":109061,"internal_node_id":"0.0-5.0","experiment":"validation","task_version":"2.0","jspsych_version":"6.3.1","interactions":"[]"}]