[{"view_history":[{"page_index":0,"viewing_time":2596}],"rt":2596,"trial_type":"instructions","trial_index":0,"time_elapsed":2597,"internal_node_id":"0.0-0.0","experiment":"validation","task_version":"2.0","jspsych_version":"6.3.1"},{"rt":20586,"responses":{"age":"39","gender-categorical":"Male","gender-free-response":"","ethnicity":"Not Hispanic or Latino","race":["White"],"education":"Some college"},"survey":"demographics","trial_type":"survey-demo","trial_index":1,"time_elapsed":23186,"internal_node_id":"0.0-1.0","experiment":"validation","task_version":"2.0","jspsych_version":"6.3.1"},{"responses":{"Q09":"3","Q04":"3","Q01":"3","Q07":"4","Q06":"3","Q03":"4","Q02":"3","Q10":"3","Q08":"3","Q11":"0","Q05":"3"},"rt":285343,"item_order":[8,3,0,6,5,2,1,9,7,10,4],"radio_events":[12760,16795,19510,23244,26707,29671,113472,117463,119000,170301,174305,284552],"key_events":[],"mouse_events":[12760,16795,19510,23244,26707,29671,113472,117463,119000,169877,170301,173767,174305,284552,285343],"straightlining":0.5454545454545454,"zigzagging":0.3,"honeypot":0,"survey":"nfc10","trial_type":"survey-template","trial_index":2,"time_elapsed":308530,"internal_node_id":"0.0-2.0","experiment":"validation","task_version":"2.0","jspsych_version":"6.3.1","infrequency":0},{"rt":251263,"response":{"Q8":0,"Q1":4,"Q3":5,"Q7":4,"Q6":1,"Q0":2,"Q2":2,"Q5":4,"Q4":3},"question_order":[8,1,3,7,6,0,2,5,4],"survey":"sns","trial_type":"survey-likert","trial_index":3,"time_elapsed":559795,"internal_node_id":"0.0-3.0","experiment":"validation","task_version":"2.0","jspsych_version":"6.3.1","infrequency":0},{"responses":{"Q05":"3","Q06":"2","Q07":"3","Q09":"4","Q02":"4","Q01":"4","Q04":"3","Q03":"3","Q08":"1"},"rt":420530,"item_order":[4,5,6,8,1,0,3,2,7],"radio_events":[34833,41378,44232,125252,152097,159541,316729,413968,417915,419533],"key_events":[],"mouse_events":[33557,34833,41378,44232,125252,152097,157728,159020,159541,222208,226229,238810,316729,379598,413304,413968,417915,419533,420530],"straightlining":0.4444444444444444,"zigzagging":0.5,"honeypot":0,"survey":"pcf","trial_type":"survey-template","trial_index":4,"time_elapsed":980328,"internal_node_id":"0.0-4.0","experiment":"validation","task_version":"2.0","jspsych_version":"6.3.1","infrequency":0},{"value":0,"trial_type":"call-function","trial_index":5,"time_elapsed":980329,"internal_node_id":"0.0-5.0","experiment":"validation","task_version":"2.0","jspsych_version":"6.3.1","interactions":"[{\"event\":\"focus\",\"trial\":0,\"time\":0},{\"event\":\"blur\",\"trial\":2,\"time\":102120},{\"event\":\"focus\",\"trial\":2,\"time\":136570},{\"event\":\"blur\",\"trial\":2,\"time\":145741},{\"event\":\"focus\",\"trial\":2,\"time\":192977},{\"event\":\"blur\",\"trial\":2,\"time\":225997},{\"event\":\"focus\",\"trial\":2,\"time\":307658},{\"event\":\"blur\",\"trial\":3,\"time\":385467},{\"event\":\"focus\",\"trial\":3,\"time\":458046},{\"event\":\"blur\",\"trial\":3,\"time\":468659},{\"event\":\"focus\",\"trial\":3,\"time\":505875},{\"event\":\"blur\",\"trial\":3,\"time\":544717},{\"event\":\"focus\",\"trial\":3,\"time\":559131},{\"event\":\"blur\",\"trial\":4,\"time\":610977},{\"event\":\"focus\",\"trial\":4,\"time\":684970},{\"event\":\"blur\",\"trial\":4,\"time\":748101},{\"event\":\"focus\",\"trial\":4,\"time\":781931},{\"event\":\"blur\",\"trial\":4,\"time\":799826},{\"event\":\"focus\",\"trial\":4,\"time\":876461},{\"event\":\"blur\",\"trial\":4,\"time\":892610},{\"event\":\"focus\",\"trial\":4,\"time\":939320}]"}]