[{"view_history":[{"page_index":0,"viewing_time":4993.200000001118}],"rt":4994.5,"trial_type":"instructions","trial_index":0,"time_elapsed":5008,"internal_node_id":"0.0-0.0","experiment":"validation","task_version":"2.0","jspsych_version":"6.3.1"},{"rt":13675.799999998882,"responses":{"age":"42","gender-categorical":"Female","gender-free-response":"","ethnicity":"Not Hispanic or Latino","race":["White"],"education":"Bachelor degree"},"survey":"demographics","trial_type":"survey-demo","trial_index":1,"time_elapsed":18686,"internal_node_id":"0.0-1.0","experiment":"validation","task_version":"2.0","jspsych_version":"6.3.1"},{"responses":{"Q06":"4","Q09":"4","Q11":"0","Q05":"4","Q10":"4","Q04":"4","Q02":"4","Q07":"4","Q03":"4","Q01":"4","Q08":"4"},"rt":35483.800000000745,"item_order":[5,8,10,4,9,3,1,6,2,0,7],"radio_events":[3980.2000000011176,8967.200000001118,10640,15961.099999999627,18702.300000000745,23114.099999999627,26054.700000001118,28784,30526.200000001118,32524.800000000745,33281.09999999963,34696.09999999963],"key_events":[],"mouse_events":[3980.2000000011176,8967.200000001118,10640,15961.099999999627,18702.300000000745,23114.099999999627,26054.700000001118,28784,30526.200000001118,32524.800000000745,33281.09999999963,34696.09999999963,35480.59999999963],"straightlining":0.6363636363636364,"zigzagging":0.6,"honeypot":0,"survey":"nfc10","trial_type":"survey-template","trial_index":2,"time_elapsed":54174,"internal_node_id":"0.0-2.0","experiment":"validation","task_version":"2.0","jspsych_version":"6.3.1","infrequency":0},{"responses":{"Q08":"4","Q02":"4","Q09":"4","Q01":"4","Q03":"4","Q04":"4","Q07":"4","Q05":"4","Q06":"4"},"rt":38686.699999999255,"item_order":[7,1,8,0,2,3,6,4,5],"radio_events":[7726.0999999996275,8532.400000000373,11642.5,14048.099999999627,17564.900000000373,18164.900000000373,20684.699999999255,22379,24422.199999999255,25137.400000000373,26593.400000000373,35080.40000000037],"key_events":[],"mouse_events":[6591.699999999255,7726.0999999996275,8532.400000000373,11642.5,14048.099999999627,17564.900000000373,18164.900000000373,19224.699999999255,20684.699999999255,22379,24422.199999999255,25137.400000000373,26593.400000000373,35080.40000000037,38683.40000000037],"straightlining":0.8888888888888888,"zigzagging":0.25,"honeypot":0,"survey":"pcf","trial_type":"survey-template","trial_index":3,"time_elapsed":92866,"internal_node_id":"0.0-3.0","experiment":"validation","task_version":"2.0","jspsych_version":"6.3.1","infrequency":0},{"rt":37196.40000000037,"response":{"Q8":0,"Q6":0,"Q0":3,"Q7":5,"Q1":5,"Q5":5,"Q4":5,"Q3":5,"Q2":5},"question_order":[8,6,0,7,1,5,4,3,2],"survey":"sns","trial_type":"survey-likert","trial_index":4,"time_elapsed":130073,"internal_node_id":"0.0-4.0","experiment":"validation","task_version":"2.0","jspsych_version":"6.3.1","infrequency":0},{"value":0,"trial_type":"call-function","trial_index":5,"time_elapsed":130077,"internal_node_id":"0.0-5.0","experiment":"validation","task_version":"2.0","jspsych_version":"6.3.1","interactions":"[]"}]