[{"view_history":[{"page_index":0,"viewing_time":2041.0999999642372}],"rt":2041.3999999761581,"trial_type":"instructions","trial_index":0,"time_elapsed":2058,"internal_node_id":"0.0-0.0","experiment":"validation","task_version":"2.0","jspsych_version":"6.3.1"},{"rt":9823.199999988079,"responses":{"age":"30","gender-categorical":"Male","gender-free-response":"","ethnicity":"Not Hispanic or Latino","race":["White"],"education":"Master degree or higher"},"survey":"demographics","trial_type":"survey-demo","trial_index":1,"time_elapsed":11882,"internal_node_id":"0.0-1.0","experiment":"validation","task_version":"2.0","jspsych_version":"6.3.1"},{"responses":{"Q05":"2","Q06":"2","Q04":"1","Q07":"4","Q02":"2","Q01":"3","Q09":"4","Q03":"3","Q08":"4"},"rt":26014.19999998808,"item_order":[4,5,3,6,1,0,8,2,7],"radio_events":[2861.300000011921,8165.399999976158,12869.399999976158,14869.399999976158,17133.399999976158,18429.30000001192,20237.30000001192,24237.30000001192,25101.399999976158],"key_events":[],"mouse_events":[2861.300000011921,5421.399999976158,7485.300000011921,8165.399999976158,8653.5,12173.300000011921,12541.399999976158,12869.399999976158,13829.199999988079,14869.399999976158,16157.300000011921,16781.30000001192,17133.399999976158,18429.30000001192,20237.30000001192,22749.5,24237.30000001192,25101.399999976158,26013.30000001192],"straightlining":0.3333333333333333,"zigzagging":0.375,"honeypot":0,"survey":"pcf","trial_type":"survey-template","trial_index":2,"time_elapsed":37899,"internal_node_id":"0.0-2.0","experiment":"validation","task_version":"2.0","jspsych_version":"6.3.1","infrequency":0},{"responses":{"Q07":"4","Q11":"0","Q02":"4","Q03":"4","Q06":"4","Q04":"3","Q05":"4","Q10":"3","Q01":"3","Q08":"4","Q09":"3"},"rt":38606.30000001192,"item_order":[6,10,1,2,5,3,4,9,0,7,8],"radio_events":[10045.600000023842,11077.400000035763,14469.5,16029.5,20405.400000035763,21317.5,25837.400000035763,28077.400000035763,29885.5,34189.5,36141.40000003576,37861.40000003576],"key_events":[],"mouse_events":[6805.5,7125.400000035763,9445.600000023842,9757.400000035763,10045.600000023842,11077.400000035763,14469.5,16029.5,18005.400000035763,20405.400000035763,21317.5,24541.5,25837.400000035763,27525.600000023842,28077.400000035763,29630,29885.5,33773.40000003576,34189.5,36141.40000003576,37437.40000003576,37861.40000003576,38605.5],"straightlining":0.36363636363636365,"zigzagging":0.7,"honeypot":0,"survey":"nfc10","trial_type":"survey-template","trial_index":3,"time_elapsed":76506,"internal_node_id":"0.0-3.0","experiment":"validation","task_version":"2.0","jspsych_version":"6.3.1","infrequency":0},{"rt":26789.700000047684,"response":{"Q0":5,"Q8":0,"Q7":5,"Q2":5,"Q4":5,"Q3":5,"Q6":1,"Q1":5,"Q5":4},"question_order":[0,8,7,2,4,3,6,1,5],"survey":"sns","trial_type":"survey-likert","trial_index":4,"time_elapsed":103298,"internal_node_id":"0.0-4.0","experiment":"validation","task_version":"2.0","jspsych_version":"6.3.1","infrequency":0},{"value":0,"trial_type":"call-function","trial_index":5,"time_elapsed":103299,"internal_node_id":"0.0-5.0","experiment":"validation","task_version":"2.0","jspsych_version":"6.3.1","interactions":"[]"}]