[{"view_history":[{"page_index":0,"viewing_time":2894.1999999284744}],"rt":2894.5,"trial_type":"instructions","trial_index":0,"time_elapsed":2905,"internal_node_id":"0.0-0.0","experiment":"validation","task_version":"2.0","jspsych_version":"6.3.1"},{"rt":12424.799999952316,"responses":{"age":"37","gender-categorical":"Female","gender-free-response":"","ethnicity":"Not Hispanic or Latino","race":["Black or African American"],"education":"High school"},"survey":"demographics","trial_type":"survey-demo","trial_index":1,"time_elapsed":15336,"internal_node_id":"0.0-1.0","experiment":"validation","task_version":"2.0","jspsych_version":"6.3.1"},{"responses":{"Q03":"4","Q01":"2","Q10":"2","Q02":"2","Q11":"0","Q08":"3","Q09":"2","Q04":"3","Q05":"4","Q06":"2","Q07":"3"},"rt":85893.69999992847,"item_order":[2,0,9,1,10,7,8,3,4,5,6],"radio_events":[3424.899999976158,7394.299999952316,9236.600000023842,10818.699999928474,18934.299999952316,24008.899999976158,29010.699999928474,34297.699999928474,64757.89999997616,68215.19999992847,76122.89999997616,80332.29999995232,84197.19999992847],"key_events":[],"mouse_events":[3424.899999976158,4251.899999976158,4805,7394.299999952316,8777.899999976158,9236.600000023842,10818.699999928474,18934.299999952316,22817.799999952316,24008.899999976158,28472.100000023842,29010.699999928474,33818,34297.699999928474,37460.299999952316,38268.799999952316,39016,63395.699999928474,64356.199999928474,64757.89999997616,67653.39999997616,68215.19999992847,76122.89999997616,79690.69999992847,80332.29999995232,84197.19999992847,85889.69999992847],"straightlining":0.45454545454545453,"zigzagging":0.4,"honeypot":0,"survey":"nfc10","trial_type":"survey-template","trial_index":2,"time_elapsed":101243,"internal_node_id":"0.0-2.0","experiment":"validation","task_version":"2.0","jspsych_version":"6.3.1","infrequency":0},{"responses":{"Q08":"3","Q05":"1","Q06":"2","Q03":"2","Q01":"2","Q09":"4","Q04":"2","Q07":"2","Q02":"2"},"rt":48023.299999952316,"item_order":[7,4,5,2,0,8,3,6,1],"radio_events":[4293.399999976158,6957,10816.899999976158,15498.099999904633,28720.099999904633,36207.09999990463,37271.199999928474,39891.5,46473.89999997616],"key_events":[],"mouse_events":[4293.399999976158,6487.199999928474,6957,10816.899999976158,15498.099999904633,18491.599999904633,27219.599999904633,27816.899999976158,28276.099999904633,28720.099999904633,33055,33629.199999928474,34444.5,35333.199999928474,36207.09999990463,37271.199999928474,39342.39999997616,39891.5,40804.89999997616,41224.89999997616,42801.09999990463,46473.89999997616,48020.89999997616],"straightlining":0.6666666666666666,"zigzagging":0.125,"honeypot":0,"survey":"pcf","trial_type":"survey-template","trial_index":3,"time_elapsed":149272,"internal_node_id":"0.0-3.0","experiment":"validation","task_version":"2.0","jspsych_version":"6.3.1","infrequency":0},{"rt":50522,"response":{"Q3":4,"Q7":3,"Q5":0,"Q4":4,"Q2":4,"Q6":1,"Q0":1,"Q8":0,"Q1":1},"question_order":[3,7,5,4,2,6,0,8,1],"survey":"sns","trial_type":"survey-likert","trial_index":4,"time_elapsed":199800,"internal_node_id":"0.0-4.0","experiment":"validation","task_version":"2.0","jspsych_version":"6.3.1","infrequency":0},{"value":0,"trial_type":"call-function","trial_index":5,"time_elapsed":199802,"internal_node_id":"0.0-5.0","experiment":"validation","task_version":"2.0","jspsych_version":"6.3.1","interactions":"[]"}]