[{"view_history":[{"page_index":0,"viewing_time":2595.4000000059605}],"rt":2596,"trial_type":"instructions","trial_index":0,"time_elapsed":2601,"internal_node_id":"0.0-0.0","experiment":"validation","task_version":"2.0","jspsych_version":"6.3.1"},{"rt":22559.10000000149,"responses":{"age":"36","gender-categorical":"Other","gender-free-response":"non-binary","ethnicity":"Not Hispanic or Latino","race":["Asian","White"],"education":"Bachelor degree"},"survey":"demographics","trial_type":"survey-demo","trial_index":1,"time_elapsed":25163,"internal_node_id":"0.0-1.0","experiment":"validation","task_version":"2.0","jspsych_version":"6.3.1"},{"rt":80741.60000000149,"response":{"Q3":5,"Q4":5,"Q7":5,"Q8":0,"Q2":5,"Q6":0,"Q1":4,"Q0":4,"Q5":5},"question_order":[3,4,7,8,2,6,1,0,5],"survey":"sns","trial_type":"survey-likert","trial_index":2,"time_elapsed":105911,"internal_node_id":"0.0-2.0","experiment":"validation","task_version":"2.0","jspsych_version":"6.3.1","infrequency":0},{"responses":{"Q04":"4","Q01":"0","Q03":"3","Q06":"3","Q02":"3","Q10":"3","Q08":"4","Q05":"3","Q07":"2","Q11":"0","Q09":"3"},"rt":111171.89999999851,"item_order":[3,0,2,5,1,9,7,4,6,10,8],"radio_events":[13139.19999999553,19513.69999999553,30733.89999999851,36970.19999999553,60234,64109.09999999404,74553.79999999702,80921.5,89832.79999999702,97897,103844.09999999404,110348.69999999553],"key_events":[],"mouse_events":[13139.19999999553,19513.69999999553,30018.09999999404,30733.89999999851,35049.39999999851,36970.19999999553,59602,60234,64109.09999999404,71173.79999999702,74553.79999999702,79897.59999999404,80921.5,88589.39999999851,89832.79999999702,96281.19999999553,97477.59999999404,97897,103844.09999999404,110348.69999999553,111169],"straightlining":0.36363636363636365,"zigzagging":0.3,"honeypot":0,"survey":"nfc10","trial_type":"survey-template","trial_index":3,"time_elapsed":217090,"internal_node_id":"0.0-3.0","experiment":"validation","task_version":"2.0","jspsych_version":"6.3.1","infrequency":0},{"responses":{"Q06":"2","Q09":"4","Q05":"1","Q07":"2","Q08":"2","Q03":"2","Q04":"2","Q02":"2","Q01":"2"},"rt":67738,"item_order":[5,8,4,6,7,2,3,1,0],"radio_events":[15229.39999999851,20905.39999999851,23444.30000000447,27408.60000000149,31380.60000000149,40932.89999999851,51756.5,55984.39999999851,59059.80000000447,65948.39999999851],"key_events":[],"mouse_events":[15229.39999999851,20905.39999999851,23444.30000000447,27408.60000000149,31380.60000000149,40932.89999999851,43732.70000000298,44380.80000000447,51228.30000000447,51756.5,55984.39999999851,59059.80000000447,64816.20000000298,65948.39999999851,67736.10000000149],"straightlining":0.7777777777777778,"zigzagging":0.25,"honeypot":0,"survey":"pcf","trial_type":"survey-template","trial_index":4,"time_elapsed":284833,"internal_node_id":"0.0-4.0","experiment":"validation","task_version":"2.0","jspsych_version":"6.3.1","infrequency":0},{"value":0,"trial_type":"call-function","trial_index":5,"time_elapsed":284834,"internal_node_id":"0.0-5.0","experiment":"validation","task_version":"2.0","jspsych_version":"6.3.1","interactions":"[]"}]