[{"view_history":[{"page_index":0,"viewing_time":4642.599999427795}],"rt":4645.299999237061,"trial_type":"instructions","trial_index":0,"time_elapsed":4701,"internal_node_id":"0.0-0.0","experiment":"validation","task_version":"2.0","jspsych_version":"6.3.1"},{"rt":13615.900000572205,"responses":{"age":"33","gender-categorical":"Female","gender-free-response":"","ethnicity":"Not Hispanic or Latino","race":["Asian"],"education":"Bachelor degree"},"survey":"demographics","trial_type":"survey-demo","trial_index":1,"time_elapsed":18325,"internal_node_id":"0.0-1.0","experiment":"validation","task_version":"2.0","jspsych_version":"6.3.1"},{"rt":48041.5,"response":{"Q4":3,"Q3":3,"Q2":3,"Q5":1,"Q6":1,"Q7":4,"Q8":0,"Q0":2,"Q1":3},"question_order":[4,3,2,5,6,7,8,0,1],"survey":"sns","trial_type":"survey-likert","trial_index":2,"time_elapsed":66380,"internal_node_id":"0.0-2.0","experiment":"validation","task_version":"2.0","jspsych_version":"6.3.1","infrequency":0},{"responses":{"Q01":"2","Q06":"2","Q02":"2","Q05":"2","Q07":"3","Q03":"2","Q08":"1","Q04":"2","Q09":"4"},"rt":42089.60000038147,"item_order":[0,5,1,4,6,2,7,3,8],"radio_events":[4542.60000038147,6968.10000038147,14812.900000572205,17588,20172.699999809265,31864.10000038147,32906.10000038147,38537.900000572205,40462.300000190735],"key_events":[],"mouse_events":[3752.300000190735,4542.60000038147,6968.10000038147,14812.900000572205,17588,20172.699999809265,26804.800000190735,31143.699999809265,31864.10000038147,32906.10000038147,37275.60000038147,38537.900000572205,40462.300000190735,42085.400000572205],"straightlining":0.6666666666666666,"zigzagging":0.5,"honeypot":0,"survey":"pcf","trial_type":"survey-template","trial_index":3,"time_elapsed":108480,"internal_node_id":"0.0-3.0","experiment":"validation","task_version":"2.0","jspsych_version":"6.3.1","infrequency":0},{"responses":{"Q10":"1","Q08":"1","Q09":"0","Q05":"1","Q04":"0","Q06":"0","Q07":"0","Q11":"0","Q02":"0","Q01":"0","Q03":"0"},"rt":65784.79999923706,"item_order":[9,7,8,4,3,5,6,10,1,0,2],"radio_events":[7824.5,11581.89999961853,13365.79999923706,14324.199999809265,18152.199999809265,18468.29999923706,19384.29999923706,19552.699999809265,23454.599999427795,25889.89999961853,26992.5,31140.89999961853,35089.099999427795,42243.599999427795,58194.39999961853,59035.29999923706,61770.89999961853,64155],"key_events":[18152.199999809265,18468.29999923706,19384.29999923706,19552.699999809265],"mouse_events":[7824.5,11581.89999961853,13365.79999923706,14324.199999809265,23454.599999427795,25889.89999961853,26992.5,30500.29999923706,31140.89999961853,35089.099999427795,41121.39999961853,42243.599999427795,48566.29999923706,52032.39999961853,53265.5,58194.39999961853,59035.29999923706,61149.599999427795,61770.89999961853,64155,65780.5],"straightlining":0.5454545454545454,"zigzagging":0.4,"honeypot":0,"survey":"nfc10","trial_type":"survey-template","trial_index":4,"time_elapsed":174274,"internal_node_id":"0.0-4.0","experiment":"validation","task_version":"2.0","jspsych_version":"6.3.1","infrequency":0},{"value":0,"trial_type":"call-function","trial_index":5,"time_elapsed":174279,"internal_node_id":"0.0-5.0","experiment":"validation","task_version":"2.0","jspsych_version":"6.3.1","interactions":"[]"}]