[{"view_history":[{"page_index":0,"viewing_time":6911.399999999907}],"rt":6912.299999999814,"trial_type":"instructions","trial_index":0,"time_elapsed":6922,"internal_node_id":"0.0-0.0","experiment":"validation","task_version":"2.0","jspsych_version":"6.3.1"},{"rt":21879.900000000373,"responses":{"age":"49","gender-categorical":"Female","gender-free-response":"","ethnicity":"Not Hispanic or Latino","race":["White"],"education":"Bachelor degree"},"survey":"demographics","trial_type":"survey-demo","trial_index":1,"time_elapsed":28805,"internal_node_id":"0.0-1.0","experiment":"validation","task_version":"2.0","jspsych_version":"6.3.1"},{"responses":{"Q07":"4","Q09":"4","Q02":"4","Q03":"3","Q08":"3","Q06":"4","Q01":"4","Q04":"4","Q05":"3"},"rt":61961.59999999963,"item_order":[6,8,1,2,7,5,0,3,4],"radio_events":[8525,11558.799999999814,15025.69999999972,22659.099999999627,26092,30981.899999999907,35859.5,40426.09999999963,41892.5],"key_events":[],"mouse_events":[8525,11558.799999999814,15025.69999999972,22659.099999999627,26092,27026.19999999972,30981.899999999907,35859.5,40426.09999999963,41892.5,50360.299999999814,61958.5],"straightlining":0.5555555555555556,"zigzagging":0.625,"honeypot":0,"survey":"pcf","trial_type":"survey-template","trial_index":2,"time_elapsed":90771,"internal_node_id":"0.0-2.0","experiment":"validation","task_version":"2.0","jspsych_version":"6.3.1","infrequency":0},{"rt":63348.39999999991,"response":{"Q7":4,"Q0":0,"Q4":2,"Q8":0,"Q6":2,"Q1":1,"Q2":1,"Q3":2,"Q5":1},"question_order":[7,0,4,8,6,1,2,3,5],"survey":"sns","trial_type":"survey-likert","trial_index":3,"time_elapsed":154124,"internal_node_id":"0.0-3.0","experiment":"validation","task_version":"2.0","jspsych_version":"6.3.1","infrequency":0},{"responses":{"Q06":"3","Q02":"3","Q07":"2","Q08":"4","Q04":"3","Q09":"3","Q10":"3","Q05":"3","Q03":"4","Q01":"3","Q11":"0"},"rt":155149.09999999963,"item_order":[5,1,6,7,3,8,9,4,2,0,10],"radio_events":[11376.69999999972,21096,30276.799999999814,36425.69999999972,43493.799999999814,50076.299999999814,59110.19999999972,67709.29999999981,75227.09999999963,77661.5,79959.5,91196.09999999963,123811.8999999999],"key_events":[],"mouse_events":[11376.69999999972,21096,29127,30276.799999999814,36425.69999999972,43493.799999999814,50076.299999999814,59110.19999999972,67709.29999999981,75227.09999999963,77661.5,79959.5,91196.09999999963,106225.59999999963,123811.8999999999,154111.09999999963,155144.5],"straightlining":0.45454545454545453,"zigzagging":0.2,"honeypot":0,"survey":"nfc10","trial_type":"survey-template","trial_index":4,"time_elapsed":309273,"internal_node_id":"0.0-4.0","experiment":"validation","task_version":"2.0","jspsych_version":"6.3.1","infrequency":0},{"value":0,"trial_type":"call-function","trial_index":5,"time_elapsed":309276,"internal_node_id":"0.0-5.0","experiment":"validation","task_version":"2.0","jspsych_version":"6.3.1","interactions":"[{\"event\":\"blur\",\"trial\":4,\"time\":271440},{\"event\":\"focus\",\"trial\":4,\"time\":274825}]"}]