[{"view_history":[{"page_index":0,"viewing_time":19998.20000000298}],"rt":20000,"trial_type":"instructions","trial_index":0,"time_elapsed":20021,"internal_node_id":"0.0-0.0","experiment":"validation","task_version":"2.0","jspsych_version":"6.3.1"},{"rt":16853.39999999851,"responses":{"age":"29","gender-categorical":"Female","gender-free-response":"","ethnicity":"Not Hispanic or Latino","race":["White"],"education":"Some college"},"survey":"demographics","trial_type":"survey-demo","trial_index":1,"time_elapsed":36893,"internal_node_id":"0.0-1.0","experiment":"validation","task_version":"2.0","jspsych_version":"6.3.1"},{"responses":{"Q06":"0","Q04":"1","Q08":"2","Q09":"4","Q05":"0","Q03":"2","Q07":"1","Q02":"1","Q01":"1"},"rt":49474.60000000149,"item_order":[5,3,7,8,4,2,6,1,0],"radio_events":[8245.20000000298,12460,23522.90000000596,25064,33187.10000000149,34596.5,37500.30000000447,39322.80000000447,44759.60000000149],"key_events":[],"mouse_events":[8245.20000000298,12460,16655.10000000149,20887.20000000298,23522.90000000596,25064,31445,33187.10000000149,34596.5,37500.30000000447,39322.80000000447,40683.40000000596,44759.60000000149,49457.5],"straightlining":0.4444444444444444,"zigzagging":0.375,"honeypot":0,"survey":"pcf","trial_type":"survey-template","trial_index":2,"time_elapsed":86399,"internal_node_id":"0.0-2.0","experiment":"validation","task_version":"2.0","jspsych_version":"6.3.1","infrequency":0},{"rt":77910,"response":{"Q3":4,"Q6":0,"Q0":2,"Q7":3,"Q1":3,"Q4":2,"Q5":5,"Q2":4,"Q8":0},"question_order":[3,6,0,7,1,4,5,2,8],"survey":"sns","trial_type":"survey-likert","trial_index":3,"time_elapsed":164332,"internal_node_id":"0.0-3.0","experiment":"validation","task_version":"2.0","jspsych_version":"6.3.1","infrequency":0},{"responses":{"Q10":"2","Q02":"2","Q11":"0","Q08":"3","Q04":"1","Q09":"3","Q06":"1","Q05":"1","Q07":"2","Q03":"1","Q01":"1"},"rt":69576.09999999404,"item_order":[9,1,10,7,3,8,5,4,6,2,0],"radio_events":[12942.59999999404,17177.29999999702,19437.5,23958.59999999404,30535.19999999553,38440.09999999404,41920.69999999553,45799.59999999404,47842.89999999851,54330.29999999702,60349.69999999553,64453.59999999404,68271.79999999702],"key_events":[],"mouse_events":[12942.59999999404,17177.29999999702,18448.89999999851,19437.5,23958.59999999404,30535.19999999553,38440.09999999404,41920.69999999553,45799.59999999404,47842.89999999851,54330.29999999702,59497.29999999702,60349.69999999553,64453.59999999404,68271.79999999702,69562.69999999553],"straightlining":0.45454545454545453,"zigzagging":0.2,"honeypot":0,"survey":"nfc10","trial_type":"survey-template","trial_index":4,"time_elapsed":233926,"internal_node_id":"0.0-4.0","experiment":"validation","task_version":"2.0","jspsych_version":"6.3.1","infrequency":0},{"value":0,"trial_type":"call-function","trial_index":5,"time_elapsed":233933,"internal_node_id":"0.0-5.0","experiment":"validation","task_version":"2.0","jspsych_version":"6.3.1","interactions":"[{\"event\":\"blur\",\"trial\":0,\"time\":531},{\"event\":\"focus\",\"trial\":0,\"time\":17705},{\"event\":\"blur\",\"trial\":1,\"time\":23002},{\"event\":\"focus\",\"trial\":1,\"time\":24254},{\"event\":\"blur\",\"trial\":2,\"time\":84760},{\"event\":\"focus\",\"trial\":2,\"time\":85021}]"}]