[{"view_history":[{"page_index":0,"viewing_time":1640.5}],"rt":1640.800000011921,"trial_type":"instructions","trial_index":0,"time_elapsed":1657,"internal_node_id":"0.0-0.0","experiment":"validation","task_version":"2.0","jspsych_version":"6.3.1"},{"rt":9199.5,"responses":{"age":"27","gender-categorical":"Female","gender-free-response":"","ethnicity":"Not Hispanic or Latino","race":["Black or African American"],"education":"Bachelor degree"},"survey":"demographics","trial_type":"survey-demo","trial_index":1,"time_elapsed":10860,"internal_node_id":"0.0-1.0","experiment":"validation","task_version":"2.0","jspsych_version":"6.3.1"},{"responses":{"Q03":"4","Q11":"0","Q08":"2","Q05":"2","Q10":"3","Q09":"2","Q07":"3","Q02":"3","Q04":"1","Q01":"2","Q06":"3"},"rt":96110.70000001788,"item_order":[2,10,7,4,9,8,6,1,3,0,5],"radio_events":[73868.30000001192,81465.90000000596,83083.5,83911.80000001192,84859.5,86081.90000000596,89425,90632.80000001192,91670,92686.30000001192,94285.30000001192],"key_events":[],"mouse_events":[73868.30000001192,81465.90000000596,83083.5,83911.80000001192,84859.5,86081.90000000596,87246.30000001192,88781.70000001788,89425,90632.80000001192,91670,92686.30000001192,94285.30000001192,96108.5],"straightlining":0.45454545454545453,"zigzagging":0.5,"honeypot":0,"survey":"nfc10","trial_type":"survey-template","trial_index":2,"time_elapsed":106981,"internal_node_id":"0.0-2.0","experiment":"validation","task_version":"2.0","jspsych_version":"6.3.1","infrequency":0},{"responses":{"Q08":"2","Q01":"3","Q02":"3","Q04":"4","Q03":"4","Q06":"4","Q07":"3","Q05":"3","Q09":"4"},"rt":18144.20000001788,"item_order":[7,0,1,3,2,5,6,4,8],"radio_events":[3013.2000000178814,4440.200000017881,7280.300000011921,8647.300000011921,9508.300000011921,11635.700000017881,13412.300000011921,15044.59999999404,17638],"key_events":[],"mouse_events":[3013.2000000178814,4440.200000017881,5592.5,6326.5999999940395,7280.300000011921,8647.300000011921,9508.300000011921,11635.700000017881,13412.300000011921,15044.59999999404,17057.40000000596,17638,18141.20000001788],"straightlining":0.4444444444444444,"zigzagging":0.375,"honeypot":0,"survey":"pcf","trial_type":"survey-template","trial_index":3,"time_elapsed":125129,"internal_node_id":"0.0-3.0","experiment":"validation","task_version":"2.0","jspsych_version":"6.3.1","infrequency":0},{"rt":32386.40000000596,"response":{"Q4":4,"Q7":4,"Q5":0,"Q6":5,"Q0":0,"Q8":0,"Q1":0,"Q3":0,"Q2":0},"question_order":[4,7,5,6,0,8,1,3,2],"survey":"sns","trial_type":"survey-likert","trial_index":4,"time_elapsed":157521,"internal_node_id":"0.0-4.0","experiment":"validation","task_version":"2.0","jspsych_version":"6.3.1","infrequency":0},{"value":0,"trial_type":"call-function","trial_index":5,"time_elapsed":157523,"internal_node_id":"0.0-5.0","experiment":"validation","task_version":"2.0","jspsych_version":"6.3.1","interactions":"[{\"event\":\"blur\",\"trial\":2,\"time\":11942},{\"event\":\"focus\",\"trial\":2,\"time\":15140},{\"event\":\"blur\",\"trial\":2,\"time\":16179},{\"event\":\"focus\",\"trial\":2,\"time\":83204},{\"event\":\"blur\",\"trial\":4,\"time\":127317},{\"event\":\"focus\",\"trial\":4,\"time\":134897}]"}]