[{"view_history":[{"page_index":0,"viewing_time":2462}],"rt":2462.2000000476837,"trial_type":"instructions","trial_index":0,"time_elapsed":2465,"internal_node_id":"0.0-0.0","experiment":"validation","task_version":"2.0","jspsych_version":"6.3.1"},{"rt":12174.599999904633,"responses":{"age":"63","gender-categorical":"Male","gender-free-response":"","ethnicity":"Not Hispanic or Latino","race":["White"],"education":"Master degree or higher"},"survey":"demographics","trial_type":"survey-demo","trial_index":1,"time_elapsed":14641,"internal_node_id":"0.0-1.0","experiment":"validation","task_version":"2.0","jspsych_version":"6.3.1"},{"rt":36373.299999952316,"response":{"Q2":5,"Q5":3,"Q3":5,"Q8":0,"Q4":5,"Q7":5,"Q6":0,"Q1":5,"Q0":5},"question_order":[2,5,3,8,4,7,6,1,0],"survey":"sns","trial_type":"survey-likert","trial_index":2,"time_elapsed":51018,"internal_node_id":"0.0-2.0","experiment":"validation","task_version":"2.0","jspsych_version":"6.3.1","infrequency":0},{"responses":{"Q04":"4","Q07":"4","Q08":"4","Q01":"4","Q10":"4","Q05":"4","Q06":"4","Q11":"0","Q02":"3","Q09":"4","Q03":"4"},"rt":42572.799999952316,"item_order":[3,6,7,0,9,4,5,10,1,8,2],"radio_events":[7227.5,10595.400000095367,12587.299999952316,14403.700000047684,16427.200000047684,24267.299999952316,30827.400000095367,32355.299999952316,36763.40000009537,38667.299999952316,40779.59999990463],"key_events":[],"mouse_events":[7227.5,10595.400000095367,12587.299999952316,14403.700000047684,16427.200000047684,23499.200000047684,24267.299999952316,27243.5,30827.400000095367,32355.299999952316,36027.40000009537,36763.40000009537,38667.299999952316,40779.59999990463,42571.5],"straightlining":0.5454545454545454,"zigzagging":0.6,"honeypot":0,"survey":"nfc10","trial_type":"survey-template","trial_index":3,"time_elapsed":93595,"internal_node_id":"0.0-3.0","experiment":"validation","task_version":"2.0","jspsych_version":"6.3.1","infrequency":0},{"responses":{"Q05":"4","Q08":"4","Q01":"4","Q03":"4","Q04":"4","Q07":"4","Q06":"4","Q09":"4","Q02":"4"},"rt":192332.70000004768,"item_order":[4,7,0,2,3,6,5,8,1],"radio_events":[174763.79999995232,176155.59999990463,178451.5,178899.70000004768,180187.59999990463,181523.59999990463,183059.70000004768,187051.59999990463,190227.79999995232],"key_events":[],"mouse_events":[174763.79999995232,176155.59999990463,176939.59999990463,177763.59999990463,178451.5,178899.70000004768,180187.59999990463,181523.59999990463,183059.70000004768,186555.39999985695,187051.59999990463,189339.79999995232,190227.79999995232,192331.70000004768],"straightlining":0.8888888888888888,"zigzagging":0.25,"honeypot":0,"survey":"pcf","trial_type":"survey-template","trial_index":4,"time_elapsed":285931,"internal_node_id":"0.0-4.0","experiment":"validation","task_version":"2.0","jspsych_version":"6.3.1","infrequency":0},{"value":0,"trial_type":"call-function","trial_index":5,"time_elapsed":285932,"internal_node_id":"0.0-5.0","experiment":"validation","task_version":"2.0","jspsych_version":"6.3.1","interactions":"[]"}]