[{"view_history":[{"page_index":0,"viewing_time":8920.599999999627}],"rt":8921,"trial_type":"instructions","trial_index":0,"time_elapsed":8982,"internal_node_id":"0.0-0.0","experiment":"validation","task_version":"2.0","jspsych_version":"6.3.1"},{"rt":7335.799999998882,"responses":{"age":"24","gender-categorical":"Female","gender-free-response":"","ethnicity":"Not Hispanic or Latino","race":["White"],"education":"High school"},"survey":"demographics","trial_type":"survey-demo","trial_index":1,"time_elapsed":16322,"internal_node_id":"0.0-1.0","experiment":"validation","task_version":"2.0","jspsych_version":"6.3.1"},{"responses":{"Q08":"2","Q03":"3","Q04":"3","Q07":"2","Q10":"1","Q01":"0","Q09":"1","Q02":"3","Q06":"3","Q05":"3","Q11":"0"},"rt":51506.40000000037,"item_order":[7,2,3,6,9,0,8,1,5,4,10],"radio_events":[5352.299999998882,11164,18173.900000000373,19172.199999999255,24187.900000000373,26697.900000000373,28836,29400,35061.90000000037,38609.90000000037,39265.79999999888,44385.90000000037,50248],"key_events":[],"mouse_events":[5352.299999998882,9507.799999998882,11164,13879.699999999255,17869.799999998882,18173.900000000373,19172.199999999255,22264,24187.900000000373,25067.799999998882,26697.900000000373,28836,29400,35061.90000000037,35480.5,35756.29999999888,38609.90000000037,39265.79999999888,44385.90000000037,50248,51504.09999999963],"straightlining":0.45454545454545453,"zigzagging":0.6,"honeypot":0,"survey":"nfc10","trial_type":"survey-template","trial_index":2,"time_elapsed":67836,"internal_node_id":"0.0-2.0","experiment":"validation","task_version":"2.0","jspsych_version":"6.3.1","infrequency":0},{"responses":{"Q06":"2","Q01":"3","Q09":"4","Q07":"4","Q05":"2","Q08":"4","Q02":"3","Q04":"4","Q03":"4"},"rt":23231.199999999255,"item_order":[5,0,8,6,4,7,1,3,2],"radio_events":[5312.0999999996275,7298,9682.900000000373,11195,13187,16432.900000000373,18402.900000000373,22178.799999998882,22534.900000000373],"key_events":[],"mouse_events":[3917.699999999255,5312.0999999996275,7298,9682.900000000373,11195,12839,13187,16432.900000000373,18402.900000000373,20715.099999999627,22178.799999998882,22534.900000000373,23229.099999999627],"straightlining":0.4444444444444444,"zigzagging":0.5,"honeypot":0,"survey":"pcf","trial_type":"survey-template","trial_index":3,"time_elapsed":91071,"internal_node_id":"0.0-3.0","experiment":"validation","task_version":"2.0","jspsych_version":"6.3.1","infrequency":0},{"rt":35901.60000000149,"response":{"Q4":3,"Q0":0,"Q5":1,"Q2":1,"Q6":1,"Q3":1,"Q1":1,"Q8":0,"Q7":2},"question_order":[4,0,5,2,6,3,1,8,7],"survey":"sns","trial_type":"survey-likert","trial_index":4,"time_elapsed":126978,"internal_node_id":"0.0-4.0","experiment":"validation","task_version":"2.0","jspsych_version":"6.3.1","infrequency":0},{"value":0,"trial_type":"call-function","trial_index":5,"time_elapsed":126980,"internal_node_id":"0.0-5.0","experiment":"validation","task_version":"2.0","jspsych_version":"6.3.1","interactions":"[{\"event\":\"blur\",\"trial\":0,\"time\":400},{\"event\":\"focus\",\"trial\":0,\"time\":8324}]"}]