[{"view_history":[{"page_index":0,"viewing_time":2649.7000000476837}],"rt":2649.9000000953674,"trial_type":"instructions","trial_index":0,"time_elapsed":2661,"internal_node_id":"0.0-0.0","experiment":"validation","task_version":"2.0","jspsych_version":"6.3.1"},{"rt":10594.799999952316,"responses":{"age":"26","gender-categorical":"Male","gender-free-response":"","ethnicity":"Not Hispanic or Latino","race":["Asian"],"education":"Some college"},"survey":"demographics","trial_type":"survey-demo","trial_index":1,"time_elapsed":13257,"internal_node_id":"0.0-1.0","experiment":"validation","task_version":"2.0","jspsych_version":"6.3.1"},{"responses":{"Q08":"2","Q02":"1","Q04":"1","Q09":"2","Q03":"2","Q01":"2","Q07":"3","Q11":"0","Q06":"2","Q05":"3","Q10":"2"},"rt":64692,"item_order":[7,1,3,8,2,0,6,10,5,4,9],"radio_events":[5612.799999952316,9674.400000095367,16531.799999952316,27799.10000014305,28310.799999952316,29367.10000014305,31588,34475,37874.799999952316,41619.10000014305,45044.700000047684,51053.700000047684,56153.90000009537,63982.700000047684],"key_events":[],"mouse_events":[5612.799999952316,9674.400000095367,16531.799999952316,27799.10000014305,28310.799999952316,28744.799999952316,29367.10000014305,30958.60000014305,31588,34475,37874.799999952316,41619.10000014305,45044.700000047684,51053.700000047684,56153.90000009537,63325.799999952316,63982.700000047684,64690.700000047684],"straightlining":0.5454545454545454,"zigzagging":0.5,"honeypot":0,"survey":"nfc10","trial_type":"survey-template","trial_index":2,"time_elapsed":77952,"internal_node_id":"0.0-2.0","experiment":"validation","task_version":"2.0","jspsych_version":"6.3.1","infrequency":0},{"responses":{"Q06":"2","Q09":"4","Q05":"2","Q04":"2","Q08":"3","Q02":"1","Q07":"4","Q01":"1","Q03":"1"},"rt":48079.700000047684,"item_order":[5,8,4,3,7,1,6,0,2],"radio_events":[5858.799999952316,9493.600000143051,11527.799999952316,14857.700000047684,18907.700000047684,24292.700000047684,32816.700000047684,34294.5,35889.700000047684,38936.799999952316,39521.700000047684,41033.700000047684,44354.799999952316],"key_events":[],"mouse_events":[5858.799999952316,9493.600000143051,11527.799999952316,14857.700000047684,18907.700000047684,24292.700000047684,32816.700000047684,34294.5,35889.700000047684,38936.799999952316,39521.700000047684,41033.700000047684,44354.799999952316,48078.799999952316],"straightlining":0.3333333333333333,"zigzagging":0.125,"honeypot":0,"survey":"pcf","trial_type":"survey-template","trial_index":3,"time_elapsed":126034,"internal_node_id":"0.0-3.0","experiment":"validation","task_version":"2.0","jspsych_version":"6.3.1","infrequency":0},{"rt":52418,"response":{"Q8":0,"Q1":2,"Q3":5,"Q7":4,"Q6":2,"Q4":4,"Q5":5,"Q0":2,"Q2":0},"question_order":[8,1,3,7,6,4,5,0,2],"survey":"sns","trial_type":"survey-likert","trial_index":4,"time_elapsed":178454,"internal_node_id":"0.0-4.0","experiment":"validation","task_version":"2.0","jspsych_version":"6.3.1","infrequency":0},{"value":0,"trial_type":"call-function","trial_index":5,"time_elapsed":178456,"internal_node_id":"0.0-5.0","experiment":"validation","task_version":"2.0","jspsych_version":"6.3.1","interactions":"[]"}]