[{"view_history":[{"page_index":0,"viewing_time":2273.9000000059605}],"rt":2274.2000000178814,"trial_type":"instructions","trial_index":0,"time_elapsed":2288,"internal_node_id":"0.0-0.0","experiment":"validation","task_version":"2.0","jspsych_version":"6.3.1"},{"rt":8592.09999999404,"responses":{"age":"24","gender-categorical":"Female","gender-free-response":"","ethnicity":"Not Hispanic or Latino","race":["White"],"education":"Bachelor degree"},"survey":"demographics","trial_type":"survey-demo","trial_index":1,"time_elapsed":10885,"internal_node_id":"0.0-1.0","experiment":"validation","task_version":"2.0","jspsych_version":"6.3.1"},{"responses":{"Q05":"3","Q03":"1","Q08":"3","Q11":"0","Q04":"3","Q02":"1","Q07":"1","Q10":"1","Q06":"0","Q09":"1","Q01":"1"},"rt":142241.89999997616,"item_order":[4,2,7,10,3,1,6,9,5,8,0],"radio_events":[9845.399999976158,10789.59999999404,14000.59999999404,15315.59999999404,21686.19999998808,29060.69999998808,31829,37565.09999999404,100963.69999998808,106514.5,108347.69999998808,139600.39999997616,141472.29999998212],"key_events":[],"mouse_events":[8933.5,9845.399999976158,10789.59999999404,14000.59999999404,14856.399999976158,15315.59999999404,21686.19999998808,29060.69999998808,31829,37565.09999999404,99261.29999998212,100963.69999998808,102311.69999998808,106514.5,108347.69999998808,139600.39999997616,141472.29999998212,142239.29999998212],"straightlining":0.6363636363636364,"zigzagging":0.3,"honeypot":0,"survey":"nfc10","trial_type":"survey-template","trial_index":2,"time_elapsed":153137,"internal_node_id":"0.0-2.0","experiment":"validation","task_version":"2.0","jspsych_version":"6.3.1","infrequency":0},{"responses":{"Q09":"4","Q04":"2","Q03":"3","Q08":"4","Q01":"3","Q02":"3","Q05":"3","Q06":"3","Q07":"4"},"rt":29945.20000001788,"item_order":[8,3,2,7,0,1,4,5,6],"radio_events":[4011.300000011921,8288.300000011921,12815.40000000596,15387.800000011921,18202.5,21955.20000001788,25215.40000000596,26192,28887.40000000596],"key_events":[],"mouse_events":[4011.300000011921,7731.700000017881,8288.300000011921,12815.40000000596,15387.800000011921,18202.5,21955.20000001788,25215.40000000596,26192,28887.40000000596,29943.90000000596],"straightlining":0.5555555555555556,"zigzagging":0.5,"honeypot":0,"survey":"pcf","trial_type":"survey-template","trial_index":3,"time_elapsed":183087,"internal_node_id":"0.0-3.0","experiment":"validation","task_version":"2.0","jspsych_version":"6.3.1","infrequency":0},{"rt":48166.09999999404,"response":{"Q3":4,"Q8":0,"Q0":3,"Q4":4,"Q2":2,"Q5":4,"Q1":4,"Q6":1,"Q7":4},"question_order":[3,8,0,4,2,5,1,6,7],"survey":"sns","trial_type":"survey-likert","trial_index":4,"time_elapsed":231259,"internal_node_id":"0.0-4.0","experiment":"validation","task_version":"2.0","jspsych_version":"6.3.1","infrequency":0},{"value":0,"trial_type":"call-function","trial_index":5,"time_elapsed":231261,"internal_node_id":"0.0-5.0","experiment":"validation","task_version":"2.0","jspsych_version":"6.3.1","interactions":"[]"}]