[{"view_history":[{"page_index":0,"viewing_time":1577.1000000238419}],"rt":1577.4000000357628,"trial_type":"instructions","trial_index":0,"time_elapsed":1584,"internal_node_id":"0.0-0.0","experiment":"validation","task_version":"2.0","jspsych_version":"6.3.1"},{"rt":24455.69999998808,"responses":{"age":"19","gender-categorical":"Other","gender-free-response":"nonbinary","ethnicity":"Not Hispanic or Latino","race":["White"],"education":"Some college"},"survey":"demographics","trial_type":"survey-demo","trial_index":1,"time_elapsed":26044,"internal_node_id":"0.0-1.0","experiment":"validation","task_version":"2.0","jspsych_version":"6.3.1"},{"responses":{"Q05":"1","Q02":"2","Q03":"1","Q08":"2","Q09":"4","Q01":"1","Q04":"2","Q07":"2","Q06":"0"},"rt":31002.099999964237,"item_order":[4,1,2,7,8,0,3,6,5],"radio_events":[4280.800000011921,9085.699999988079,14409.699999988079,18103.099999964237,19969.19999998808,22749.899999976158,25954,28998.5,30418.80000001192],"key_events":[],"mouse_events":[3038.699999988079,4280.800000011921,9085.699999988079,14409.699999988079,18103.099999964237,19969.19999998808,22749.899999976158,25954,28998.5,30418.80000001192,30998.19999998808],"straightlining":0.4444444444444444,"zigzagging":0.625,"honeypot":0,"survey":"pcf","trial_type":"survey-template","trial_index":2,"time_elapsed":57066,"internal_node_id":"0.0-2.0","experiment":"validation","task_version":"2.0","jspsych_version":"6.3.1","infrequency":0},{"rt":45206.60000002384,"response":{"Q7":3,"Q8":0,"Q4":4,"Q5":4,"Q1":2,"Q0":0,"Q2":1,"Q6":1,"Q3":1},"question_order":[7,8,4,5,1,0,2,6,3],"survey":"sns","trial_type":"survey-likert","trial_index":3,"time_elapsed":102292,"internal_node_id":"0.0-3.0","experiment":"validation","task_version":"2.0","jspsych_version":"6.3.1","infrequency":0},{"responses":{"Q06":"0","Q04":"0","Q10":"4","Q01":"1","Q08":"1","Q07":"0","Q11":"0","Q05":"1","Q02":"1","Q09":"2","Q03":"2"},"rt":92298.80000001192,"item_order":[5,3,9,0,7,6,10,4,1,8,2],"radio_events":[12922.899999976158,16266.099999964237,24235.899999976158,26844.30000001192,29854.80000001192,33710.80000001192,43654.30000001192,48540,51665.89999997616,55820.69999998808,59612.89999997616,90000.69999998808],"key_events":[],"mouse_events":[10970.300000011921,12516.399999976158,12922.899999976158,15771.399999976158,16266.099999964237,23781,24235.899999976158,26844.30000001192,29854.80000001192,33710.80000001192,42448.69999998808,43654.30000001192,48540,51665.89999997616,55046.19999998808,55820.69999998808,59029.19999998808,59612.89999997616,67284,68786.19999998808,75671.39999997616,89331.5,90000.69999998808,92294.39999997616],"straightlining":0.2727272727272727,"zigzagging":0.3,"honeypot":0,"survey":"nfc10","trial_type":"survey-template","trial_index":4,"time_elapsed":194609,"internal_node_id":"0.0-4.0","experiment":"validation","task_version":"2.0","jspsych_version":"6.3.1","infrequency":0},{"value":0,"trial_type":"call-function","trial_index":5,"time_elapsed":194621,"internal_node_id":"0.0-5.0","experiment":"validation","task_version":"2.0","jspsych_version":"6.3.1","interactions":"[{\"event\":\"blur\",\"trial\":4,\"time\":104644},{\"event\":\"focus\",\"trial\":4,\"time\":105908},{\"event\":\"blur\",\"trial\":4,\"time\":171509},{\"event\":\"focus\",\"trial\":4,\"time\":173057},{\"event\":\"blur\",\"trial\":4,\"time\":174250},{\"event\":\"focus\",\"trial\":4,\"time\":177176}]"}]