[{"view_history":[{"page_index":0,"viewing_time":5037.899999976158}],"rt":5039.199999988079,"trial_type":"instructions","trial_index":0,"time_elapsed":5054,"internal_node_id":"0.0-0.0","experiment":"validation","task_version":"2.0","jspsych_version":"6.3.1"},{"rt":12726.899999976158,"responses":{"age":"21","gender-categorical":"Female","gender-free-response":"","ethnicity":"Not Hispanic or Latino","race":["White"],"education":"Some college"},"survey":"demographics","trial_type":"survey-demo","trial_index":1,"time_elapsed":17787,"internal_node_id":"0.0-1.0","experiment":"validation","task_version":"2.0","jspsych_version":"6.3.1"},{"responses":{"Q09":"0","Q11":"0","Q10":"3","Q02":"0","Q04":"1","Q08":"0","Q01":"0","Q06":"1","Q07":"1","Q05":"1","Q03":"3"},"rt":45328,"item_order":[8,10,9,1,3,7,0,5,6,4,2],"radio_events":[3814.800000011921,8422.5,19114.19999998808,28586,30778.30000001192,33546.39999997616,35498.59999996424,36642.59999996424,38738.59999996424,41658.80000001192,43650.89999997616],"key_events":[],"mouse_events":[3286.399999976158,3814.800000011921,8422.5,19114.19999998808,23850.19999998808,24995,25362.099999964237,27482.399999976158,28586,30778.30000001192,33546.39999997616,35498.59999996424,36642.59999996424,38738.59999996424,41658.80000001192,43650.89999997616,45323.09999996424],"straightlining":0.45454545454545453,"zigzagging":0.1,"honeypot":0,"survey":"nfc10","trial_type":"survey-template","trial_index":2,"time_elapsed":63124,"internal_node_id":"0.0-2.0","experiment":"validation","task_version":"2.0","jspsych_version":"6.3.1","infrequency":0},{"rt":42007.799999952316,"response":{"Q7":2,"Q3":3,"Q5":4,"Q2":4,"Q0":2,"Q1":1,"Q8":0,"Q6":0,"Q4":3},"question_order":[7,3,5,2,0,1,8,6,4],"survey":"sns","trial_type":"survey-likert","trial_index":3,"time_elapsed":105141,"internal_node_id":"0.0-3.0","experiment":"validation","task_version":"2.0","jspsych_version":"6.3.1","infrequency":0},{"responses":{"Q07":"4","Q03":"1","Q02":"1","Q01":"2","Q08":"3","Q06":"1","Q09":"4","Q05":"0","Q04":"0"},"rt":37949.89999997616,"item_order":[6,2,1,0,7,5,8,4,3],"radio_events":[12166.800000011921,14574.899999976158,15590.899999976158,18110.80000001192,19206.80000001192,20478.69999998808,22966.599999964237,24446.69999998808,30843.599999964237,37150.5],"key_events":[],"mouse_events":[12166.800000011921,14574.899999976158,15590.899999976158,17007.69999998808,18110.80000001192,19206.80000001192,20478.69999998808,22966.599999964237,24446.69999998808,26142.599999964237,29763.399999976158,30195.5,30843.599999964237,31555.19999998808,32642.5,33390.5,36030.39999997616,36583.19999998808,37150.5,37946.19999998808],"straightlining":0.3333333333333333,"zigzagging":0.375,"honeypot":0,"survey":"pcf","trial_type":"survey-template","trial_index":4,"time_elapsed":143098,"internal_node_id":"0.0-4.0","experiment":"validation","task_version":"2.0","jspsych_version":"6.3.1","infrequency":0},{"value":0,"trial_type":"call-function","trial_index":5,"time_elapsed":143100,"internal_node_id":"0.0-5.0","experiment":"validation","task_version":"2.0","jspsych_version":"6.3.1","interactions":"[]"}]