[{"view_history":[{"page_index":0,"viewing_time":159756.80000007153}],"rt":159757.40000009537,"trial_type":"instructions","trial_index":0,"time_elapsed":159768,"internal_node_id":"0.0-0.0","experiment":"validation","task_version":"2.0","jspsych_version":"6.3.1"},{"rt":9312.100000023842,"responses":{"age":"39","gender-categorical":"Male","gender-free-response":"","ethnicity":"Not Hispanic or Latino","race":["White"],"education":"Master degree or higher"},"survey":"demographics","trial_type":"survey-demo","trial_index":1,"time_elapsed":169082,"internal_node_id":"0.0-1.0","experiment":"validation","task_version":"2.0","jspsych_version":"6.3.1"},{"rt":29335,"response":{"Q1":3,"Q7":4,"Q3":4,"Q4":5,"Q0":4,"Q5":5,"Q8":0,"Q2":4,"Q6":4},"question_order":[1,7,3,4,0,5,8,2,6],"survey":"sns","trial_type":"survey-likert","trial_index":2,"time_elapsed":198421,"internal_node_id":"0.0-2.0","experiment":"validation","task_version":"2.0","jspsych_version":"6.3.1","infrequency":0},{"responses":{"Q08":"3","Q05":"0","Q04":"1","Q11":"3","Q06":"1","Q02":"2","Q09":"3","Q07":"3","Q10":"2","Q01":"3","Q03":"3"},"rt":24036.900000095367,"item_order":[7,4,3,10,5,1,8,6,9,0,2],"radio_events":[4565.900000095367,6457.300000071526,7895.400000095367,10855.5,13348.100000023842,14771.600000023842,16785.5,17449.5,18528,21005.5,22973.400000095367],"key_events":[],"mouse_events":[4565.900000095367,5793.400000095367,6457.300000071526,7130,7895.400000095367,10855.5,11473.600000023842,13348.100000023842,14771.600000023842,16785.5,17449.5,18528,19005.5,21005.5,22973.400000095367,24035.600000023842],"straightlining":0.5454545454545454,"zigzagging":0.6,"honeypot":0,"survey":"nfc10","trial_type":"survey-template","trial_index":3,"time_elapsed":222461,"internal_node_id":"0.0-3.0","experiment":"validation","task_version":"2.0","jspsych_version":"6.3.1","infrequency":1},{"responses":{"Q05":"3","Q06":"2","Q08":"3","Q09":"4","Q03":"2","Q04":"2","Q02":"3","Q07":"3","Q01":"3"},"rt":35180.700000047684,"item_order":[4,5,7,8,2,3,1,6,0],"radio_events":[2965.899999976158,3989.7999999523163,4552.299999952316,5059.700000047684,5597.799999952316,9839.799999952316,15903.799999952316,20809.899999976158,28725.799999952316,31015.700000047684,33241.799999952316,34171.700000047684],"key_events":[],"mouse_events":[2965.899999976158,3989.7999999523163,4552.299999952316,5059.700000047684,5597.799999952316,9839.799999952316,15903.799999952316,19879.899999976158,20809.899999976158,28725.799999952316,31015.700000047684,33241.799999952316,34171.700000047684,35179.799999952316],"straightlining":0.5555555555555556,"zigzagging":0.375,"honeypot":0,"survey":"pcf","trial_type":"survey-template","trial_index":4,"time_elapsed":257644,"internal_node_id":"0.0-4.0","experiment":"validation","task_version":"2.0","jspsych_version":"6.3.1","infrequency":0},{"value":1,"trial_type":"call-function","trial_index":5,"time_elapsed":257646,"internal_node_id":"0.0-5.0","experiment":"validation","task_version":"2.0","jspsych_version":"6.3.1","interactions":"[{\"event\":\"blur\",\"trial\":0,\"time\":123},{\"event\":\"focus\",\"trial\":0,\"time\":1757},{\"event\":\"blur\",\"trial\":0,\"time\":5290},{\"event\":\"focus\",\"trial\":0,\"time\":158547}]"}]