[{"view_history":[{"page_index":0,"viewing_time":1555.0999999940395}],"rt":1555.3999999910593,"trial_type":"instructions","trial_index":0,"time_elapsed":1576,"internal_node_id":"0.0-0.0","experiment":"validation","task_version":"2.0","jspsych_version":"6.3.1"},{"rt":12152.09999999404,"responses":{"age":"20","gender-categorical":"Female","gender-free-response":"","ethnicity":"Not Hispanic or Latino","race":["White"],"education":"Some college"},"survey":"demographics","trial_type":"survey-demo","trial_index":1,"time_elapsed":13732,"internal_node_id":"0.0-1.0","experiment":"validation","task_version":"2.0","jspsych_version":"6.3.1"},{"responses":{"Q01":"1","Q04":"1","Q09":"4","Q07":"0","Q02":"1","Q06":"1","Q03":"1","Q05":"1","Q08":"1"},"rt":20449.20000000298,"item_order":[0,3,8,6,1,5,2,4,7],"radio_events":[5990.899999991059,6511.29999999702,8754.29999999702,10332.29999999702,13596.20000000298,14381.39999999106,16243.89999999106,18694.5,19411.29999999702],"key_events":[],"mouse_events":[2751.3999999910593,3440.5,4168.899999991059,5990.899999991059,6511.29999999702,6968.20000000298,8754.29999999702,10332.29999999702,11835.29999999702,13596.20000000298,14381.39999999106,15722.89999999106,16243.89999999106,17285.09999999404,18694.5,19411.29999999702,20444.70000000298],"straightlining":0.7777777777777778,"zigzagging":0.25,"honeypot":0,"survey":"pcf","trial_type":"survey-template","trial_index":2,"time_elapsed":34190,"internal_node_id":"0.0-2.0","experiment":"validation","task_version":"2.0","jspsych_version":"6.3.1","infrequency":0},{"rt":36242.59999999404,"response":{"Q8":0,"Q5":2,"Q2":1,"Q7":3,"Q1":3,"Q6":3,"Q4":3,"Q3":3,"Q0":3},"question_order":[8,5,2,7,1,6,4,3,0],"survey":"sns","trial_type":"survey-likert","trial_index":3,"time_elapsed":70441,"internal_node_id":"0.0-3.0","experiment":"validation","task_version":"2.0","jspsych_version":"6.3.1","infrequency":0},{"responses":{"Q08":"1","Q04":"0","Q07":"1","Q06":"1","Q10":"1","Q09":"1","Q05":"1","Q03":"1","Q02":"1","Q01":"1","Q11":"0"},"rt":55535.59999999404,"item_order":[7,3,6,5,9,8,4,2,1,0,10],"radio_events":[5323.0999999940395,5983.29999999702,10140.20000000298,11073.29999999702,14116.20000000298,16962.70000000298,20923.29999999702,22253.29999999702,23826.29999999702,27190.09999999404,30060.40000000596,32614.90000000596,34092.79999999702,35342.09999999404,45455.09999999404,52130.20000000298],"key_events":[],"mouse_events":[4850.29999999702,5323.0999999940395,5983.29999999702,10140.20000000298,11073.29999999702,14116.20000000298,16515.29999999702,16962.70000000298,20379,20923.29999999702,22253.29999999702,23826.29999999702,27190.09999999404,29227.59999999404,30060.40000000596,32614.90000000596,34092.79999999702,35342.09999999404,45455.09999999404,52130.20000000298,55530.29999999702],"straightlining":0.6363636363636364,"zigzagging":0.1,"honeypot":0,"survey":"nfc10","trial_type":"survey-template","trial_index":4,"time_elapsed":125986,"internal_node_id":"0.0-4.0","experiment":"validation","task_version":"2.0","jspsych_version":"6.3.1","infrequency":0},{"value":0,"trial_type":"call-function","trial_index":5,"time_elapsed":125992,"internal_node_id":"0.0-5.0","experiment":"validation","task_version":"2.0","jspsych_version":"6.3.1","interactions":"[]"}]