[{"success":true,"timeout":false,"failed_images":[],"failed_audio":[],"failed_video":[],"trial_type":"preload","trial_index":0,"time_elapsed":2154,"internal_node_id":"0.0-0.0","experiment":"validation","task_version":"2.0","jspsych_version":"6.3.1"},{"success":true,"trial_type":"fullscreen","trial_index":1,"time_elapsed":5755,"internal_node_id":"0.0-1.0","experiment":"validation","task_version":"2.0","jspsych_version":"6.3.1"},{"view_history":[{"page_index":0,"viewing_time":5406},{"page_index":1,"viewing_time":8047}],"rt":13453,"trial_type":"instructions","trial_index":2,"time_elapsed":19210,"internal_node_id":"0.0-2.0","experiment":"validation","task_version":"2.0","jspsych_version":"6.3.1"},{"min_width":700,"min_height":600,"inner_width":2560,"inner_height":1440,"trial_type":"screen-check","trial_index":3,"time_elapsed":19211,"internal_node_id":"0.0-3.0-0.0-0.0","experiment":"validation","task_version":"2.0","jspsych_version":"6.3.1"},{"rt":null,"stimulus":"<div style=\"font-size:24px;\">Loading puzzle:<br>1 / 9</div>","response":null,"trial_type":"html-keyboard-response","trial_index":4,"time_elapsed":20414,"internal_node_id":"0.0-3.0-0.0-1.0","experiment":"validation","task_version":"2.0","jspsych_version":"6.3.1"},{"stimulus":"../static/img/rpm/a11.png","choice_order":[5,3,2,1,4,0],"correct":4,"choice":5,"accuracy":0,"rt":4764,"screen_resolution":[2560,1440],"minimum_resolution":1,"all_loaded":true,"test_form":"a","trial_type":"rpm","trial_index":5,"time_elapsed":25181,"internal_node_id":"0.0-3.0-0.0-2.0","experiment":"validation","task_version":"2.0","jspsych_version":"6.3.1"},{"min_width":700,"min_height":600,"inner_width":2560,"inner_height":1440,"trial_type":"screen-check","trial_index":6,"time_elapsed":25181,"internal_node_id":"0.0-3.0-0.0-0.1","experiment":"validation","task_version":"2.0","jspsych_version":"6.3.1"},{"rt":null,"stimulus":"<div style=\"font-size:24px;\">Loading puzzle:<br>2 / 9</div>","response":null,"trial_type":"html-keyboard-response","trial_index":7,"time_elapsed":26384,"internal_node_id":"0.0-3.0-0.0-1.1","experiment":"validation","task_version":"2.0","jspsych_version":"6.3.1"},{"stimulus":"../static/img/rpm/a24.png","choice_order":[4,1,5,2,3,0],"correct":4,"choice":4,"accuracy":1,"rt":8988,"screen_resolution":[2560,1440],"minimum_resolution":1,"all_loaded":true,"test_form":"a","trial_type":"rpm","trial_index":8,"time_elapsed":35375,"internal_node_id":"0.0-3.0-0.0-2.1","experiment":"validation","task_version":"2.0","jspsych_version":"6.3.1"},{"min_width":700,"min_height":600,"inner_width":2560,"inner_height":1440,"trial_type":"screen-check","trial_index":9,"time_elapsed":35375,"internal_node_id":"0.0-3.0-0.0-0.2","experiment":"validation","task_version":"2.0","jspsych_version":"6.3.1"},{"rt":null,"stimulus":"<div style=\"font-size:24px;\">Loading puzzle:<br>3 / 9</div>","response":null,"trial_type":"html-keyboard-response","trial_index":10,"time_elapsed":36577,"internal_node_id":"0.0-3.0-0.0-1.2","experiment":"validation","task_version":"2.0","jspsych_version":"6.3.1"},{"stimulus":"../static/img/rpm/a28.png","choice_order":[2,0,4,6,3,7,5,1],"correct":7,"choice":3,"accuracy":0,"rt":16456,"screen_resolution":[2560,1440],"minimum_resolution":1,"all_loaded":true,"test_form":"a","trial_type":"rpm","trial_index":11,"time_elapsed":53034,"internal_node_id":"0.0-3.0-0.0-2.2","experiment":"validation","task_version":"2.0","jspsych_version":"6.3.1"},{"min_width":700,"min_height":600,"inner_width":2560,"inner_height":1440,"trial_type":"screen-check","trial_index":12,"time_elapsed":53034,"internal_node_id":"0.0-3.0-0.0-0.3","experiment":"validation","task_version":"2.0","jspsych_version":"6.3.1"},{"rt":null,"stimulus":"<div style=\"font-size:24px;\">Loading puzzle:<br>4 / 9</div>","response":null,"trial_type":"html-keyboard-response","trial_index":13,"time_elapsed":54237,"internal_node_id":"0.0-3.0-0.0-1.3","experiment":"validation","task_version":"2.0","jspsych_version":"6.3.1"},{"stimulus":"../static/img/rpm/a36.png","choice_order":[7,2,0,6,1,5,4,3],"correct":1,"choice":3,"accuracy":0,"rt":18293,"screen_resolution":[2560,1440],"minimum_resolution":1,"all_loaded":true,"test_form":"a","trial_type":"rpm","trial_index":14,"time_elapsed":72530,"internal_node_id":"0.0-3.0-0.0-2.3","experiment":"validation","task_version":"2.0","jspsych_version":"6.3.1"},{"min_width":700,"min_height":600,"inner_width":2560,"inner_height":1440,"trial_type":"screen-check","trial_index":15,"time_elapsed":72531,"internal_node_id":"0.0-3.0-0.0-0.4","experiment":"validation","task_version":"2.0","jspsych_version":"6.3.1"},{"rt":null,"stimulus":"<div style=\"font-size:24px;\">Loading puzzle:<br>5 / 9</div>","response":null,"trial_type":"html-keyboard-response","trial_index":16,"time_elapsed":73732,"internal_node_id":"0.0-3.0-0.0-1.4","experiment":"validation","task_version":"2.0","jspsych_version":"6.3.1"},{"stimulus":"../static/img/rpm/a43.png","choice_order":[3,7,5,6,4,0,2,1],"correct":4,"choice":4,"accuracy":1,"rt":18127,"screen_resolution":[2560,1440],"minimum_resolution":1,"all_loaded":true,"test_form":"a","trial_type":"rpm","trial_index":17,"time_elapsed":91860,"internal_node_id":"0.0-3.0-0.0-2.4","experiment":"validation","task_version":"2.0","jspsych_version":"6.3.1"},{"min_width":700,"min_height":600,"inner_width":2560,"inner_height":1440,"trial_type":"screen-check","trial_index":18,"time_elapsed":91861,"internal_node_id":"0.0-3.0-0.0-0.5","experiment":"validation","task_version":"2.0","jspsych_version":"6.3.1"},{"rt":null,"stimulus":"<div style=\"font-size:24px;\">Loading puzzle:<br>6 / 9</div>","response":null,"trial_type":"html-keyboard-response","trial_index":19,"time_elapsed":93063,"internal_node_id":"0.0-3.0-0.0-1.5","experiment":"validation","task_version":"2.0","jspsych_version":"6.3.1"},{"stimulus":"../static/img/rpm/a48.png","choice_order":[2,3,7,5,1,4,6,0],"correct":5,"choice":4,"accuracy":0,"rt":24751,"screen_resolution":[2560,1440],"minimum_resolution":1,"all_loaded":true,"test_form":"a","trial_type":"rpm","trial_index":20,"time_elapsed":117816,"internal_node_id":"0.0-3.0-0.0-2.5","experiment":"validation","task_version":"2.0","jspsych_version":"6.3.1"},{"min_width":700,"min_height":600,"inner_width":2560,"inner_height":1440,"trial_type":"screen-check","trial_index":21,"time_elapsed":117816,"internal_node_id":"0.0-3.0-0.0-0.6","experiment":"validation","task_version":"2.0","jspsych_version":"6.3.1"},{"rt":null,"stimulus":"<div style=\"font-size:24px;\">Loading puzzle:<br>7 / 9</div>","response":null,"trial_type":"html-keyboard-response","trial_index":22,"time_elapsed":119018,"internal_node_id":"0.0-3.0-0.0-1.6","experiment":"validation","task_version":"2.0","jspsych_version":"6.3.1"},{"stimulus":"../static/img/rpm/a49.png","choice_order":[2,6,7,3,5,0,1,4],"correct":6,"choice":6,"accuracy":1,"rt":9714,"screen_resolution":[2560,1440],"minimum_resolution":1,"all_loaded":true,"test_form":"a","trial_type":"rpm","trial_index":23,"time_elapsed":128732,"internal_node_id":"0.0-3.0-0.0-2.6","experiment":"validation","task_version":"2.0","jspsych_version":"6.3.1"},{"min_width":700,"min_height":600,"inner_width":2560,"inner_height":1440,"trial_type":"screen-check","trial_index":24,"time_elapsed":128732,"internal_node_id":"0.0-3.0-0.0-0.7","experiment":"validation","task_version":"2.0","jspsych_version":"6.3.1"},{"rt":null,"stimulus":"<div style=\"font-size:24px;\">Loading puzzle:<br>8 / 9</div>","response":null,"trial_type":"html-keyboard-response","trial_index":25,"time_elapsed":129934,"internal_node_id":"0.0-3.0-0.0-1.7","experiment":"validation","task_version":"2.0","jspsych_version":"6.3.1"},{"stimulus":"../static/img/rpm/a53.png","choice_order":[4,1,6,0,5,3,7,2],"correct":0,"choice":0,"accuracy":1,"rt":10505,"screen_resolution":[2560,1440],"minimum_resolution":1,"all_loaded":true,"test_form":"a","trial_type":"rpm","trial_index":26,"time_elapsed":140440,"internal_node_id":"0.0-3.0-0.0-2.7","experiment":"validation","task_version":"2.0","jspsych_version":"6.3.1"},{"min_width":700,"min_height":600,"inner_width":2560,"inner_height":1440,"trial_type":"screen-check","trial_index":27,"time_elapsed":140441,"internal_node_id":"0.0-3.0-0.0-0.8","experiment":"validation","task_version":"2.0","jspsych_version":"6.3.1"},{"rt":null,"stimulus":"<div style=\"font-size:24px;\">Loading puzzle:<br>9 / 9</div>","response":null,"trial_type":"html-keyboard-response","trial_index":28,"time_elapsed":141645,"internal_node_id":"0.0-3.0-0.0-1.8","experiment":"validation","task_version":"2.0","jspsych_version":"6.3.1"},{"stimulus":"../static/img/rpm/a55.png","choice_order":[2,7,0,1,5,3,4,6],"correct":1,"choice":3,"accuracy":0,"rt":23854,"screen_resolution":[2560,1440],"minimum_resolution":1,"all_loaded":true,"test_form":"a","trial_type":"rpm","trial_index":29,"time_elapsed":165502,"internal_node_id":"0.0-3.0-0.0-2.8","experiment":"validation","task_version":"2.0","jspsych_version":"6.3.1"},{"value":{"rpm_raw":4,"rpm_err":5,"rpm_adj":42.90248572113494,"rpm_rt":135452},"trial_type":"call-function","trial_index":30,"time_elapsed":165504,"internal_node_id":"0.0-3.0-1.0","experiment":"validation","task_version":"2.0","jspsych_version":"6.3.1"},{"view_history":[{"page_index":0,"viewing_time":2136}],"rt":2136,"trial_type":"instructions","trial_index":31,"time_elapsed":167640,"internal_node_id":"0.0-4.0","experiment":"validation","task_version":"2.0","jspsych_version":"6.3.1","interactions":"[{\"event\":\"focus\",\"trial\":0,\"time\":1},{\"event\":\"blur\",\"trial\":0,\"time\":35},{\"event\":\"focus\",\"trial\":0,\"time\":115},{\"event\":\"blur\",\"trial\":1,\"time\":4973},{\"event\":\"focus\",\"trial\":1,\"time\":5040},{\"event\":\"fullscreenenter\",\"trial\":1,\"time\":5132}]"}]