[{"view_history":[{"page_index":0,"viewing_time":3299}],"rt":3299.399999976158,"trial_type":"instructions","trial_index":0,"time_elapsed":3313,"internal_node_id":"0.0-0.0","experiment":"validation","task_version":"2.0","jspsych_version":"6.3.1"},{"rt":14301,"responses":{"age":"33","gender-categorical":"Female","gender-free-response":"","ethnicity":"Not Hispanic or Latino","race":["White"],"education":"Associate degree"},"survey":"demographics","trial_type":"survey-demo","trial_index":1,"time_elapsed":17616,"internal_node_id":"0.0-1.0","experiment":"validation","task_version":"2.0","jspsych_version":"6.3.1"},{"responses":{"Q02":"3","Q01":"3","Q05":"2","Q07":"4","Q06":"3","Q09":"4","Q04":"3","Q08":"2","Q03":"3"},"rt":40703.80000001192,"item_order":[1,0,4,6,5,8,3,7,2],"radio_events":[10489.600000023842,14123.699999988079,16027.900000035763,17501.69999998808,20561.69999998808,22893.600000023842,29613.600000023842,33141.60000002384,36297.80000001192,38693.5],"key_events":[],"mouse_events":[7696.199999988079,9234.400000035763,9757.800000011921,10087.900000035763,10489.600000023842,11126.100000023842,12971.699999988079,13301.800000011921,13655.900000035763,14123.699999988079,15049.800000011921,16027.900000035763,16957.900000035763,17501.69999998808,20023.600000023842,20561.69999998808,22893.600000023842,29613.600000023842,32653.900000035763,33141.60000002384,35789.60000002384,36297.80000001192,37799.69999998808,38213.69999998808,38693.5,40701.90000003576],"straightlining":0.5555555555555556,"zigzagging":0.5,"honeypot":0,"survey":"pcf","trial_type":"survey-template","trial_index":2,"time_elapsed":58323,"internal_node_id":"0.0-2.0","experiment":"validation","task_version":"2.0","jspsych_version":"6.3.1","infrequency":0},{"rt":54135.39999997616,"response":{"Q8":0,"Q6":1,"Q2":5,"Q5":5,"Q1":3,"Q0":3,"Q4":5,"Q3":5,"Q7":5},"question_order":[8,6,2,5,1,0,4,3,7],"survey":"sns","trial_type":"survey-likert","trial_index":3,"time_elapsed":112461,"internal_node_id":"0.0-3.0","experiment":"validation","task_version":"2.0","jspsych_version":"6.3.1","infrequency":0},{"responses":{"Q04":"3","Q11":"0","Q01":"3","Q08":"4","Q05":"3","Q07":"4","Q03":"4","Q02":"3","Q06":"3","Q09":"4","Q10":"4"},"rt":96252,"item_order":[3,10,0,7,4,6,2,1,5,8,9],"radio_events":[12061.399999976158,22999.30000001192,52987.60000002384,53591.30000001192,55459.10000002384,59793.30000001192,66919.10000002384,70183.39999997616,75125.5,79269.10000002384,82725.19999998808,93661.19999998808],"key_events":[],"mouse_events":[10461.300000011921,11187.300000011921,12061.399999976158,22029.30000001192,22999.30000001192,51117.69999998808,52467.19999998808,52987.60000002384,53591.30000001192,55459.10000002384,59793.30000001192,65731.19999998808,66459.10000002384,66919.10000002384,69693.39999997616,70183.39999997616,73533.5,74065.30000001192,74617.19999998808,75125.5,75721.19999998808,78515.19999998808,79269.10000002384,81529.19999998808,81915.39999997616,82321.19999998808,82725.19999998808,85237.30000001192,88829.19999998808,92433.39999997616,92973.39999997616,93303.19999998808,93661.19999998808,96251.19999998808],"straightlining":0.36363636363636365,"zigzagging":0.4,"honeypot":0,"survey":"nfc10","trial_type":"survey-template","trial_index":4,"time_elapsed":208714,"internal_node_id":"0.0-4.0","experiment":"validation","task_version":"2.0","jspsych_version":"6.3.1","infrequency":0},{"value":0,"trial_type":"call-function","trial_index":5,"time_elapsed":208716,"internal_node_id":"0.0-5.0","experiment":"validation","task_version":"2.0","jspsych_version":"6.3.1","interactions":"[]"}]