[{"view_history":[{"page_index":0,"viewing_time":4521.600000143051}],"rt":4522.299999952316,"trial_type":"instructions","trial_index":0,"time_elapsed":4559,"internal_node_id":"0.0-0.0","experiment":"validation","task_version":"2.0","jspsych_version":"6.3.1"},{"rt":13794.299999952316,"responses":{"age":"37","gender-categorical":"Male","gender-free-response":"","ethnicity":"Not Hispanic or Latino","race":["White"],"education":"Associate degree"},"survey":"demographics","trial_type":"survey-demo","trial_index":1,"time_elapsed":18356,"internal_node_id":"0.0-1.0","experiment":"validation","task_version":"2.0","jspsych_version":"6.3.1"},{"responses":{"Q06":"3","Q07":"3","Q05":"3","Q08":"3","Q03":"3","Q02":"3","Q04":"3","Q09":"4","Q01":"3"},"rt":33683,"item_order":[5,6,4,7,2,1,3,8,0],"radio_events":[7594.200000047684,9276.099999904633,11705.599999904633,13307.799999952316,14637.599999904633,19783.700000047684,26591.900000095367,29500.299999952316,32816.299999952316],"key_events":[],"mouse_events":[7594.200000047684,9276.099999904633,11705.599999904633,13307.799999952316,14637.599999904633,19783.700000047684,20408,23516.5,26176.599999904633,26591.900000095367,27602.099999904633,29500.299999952316,30366,32816.299999952316,33681.799999952316],"straightlining":0.8888888888888888,"zigzagging":0,"honeypot":0,"survey":"pcf","trial_type":"survey-template","trial_index":2,"time_elapsed":52045,"internal_node_id":"0.0-2.0","experiment":"validation","task_version":"2.0","jspsych_version":"6.3.1","infrequency":0},{"rt":40218,"response":{"Q0":1,"Q8":0,"Q3":4,"Q6":0,"Q4":1,"Q2":4,"Q7":4,"Q1":4,"Q5":4},"question_order":[0,8,3,6,4,2,7,1,5],"survey":"sns","trial_type":"survey-likert","trial_index":3,"time_elapsed":92268,"internal_node_id":"0.0-3.0","experiment":"validation","task_version":"2.0","jspsych_version":"6.3.1","infrequency":0},{"responses":{"Q08":"4","Q03":"0","Q09":"3","Q02":"3","Q05":"3","Q10":"4","Q04":"4","Q07":"3","Q11":"0","Q01":"4","Q06":"3"},"rt":48478.90000009537,"item_order":[7,2,8,1,4,9,3,6,10,0,5],"radio_events":[8712.100000143051,9463.299999952316,16625.299999952316,18595,22153.400000095367,25605.700000047684,31540.700000047684,36187.60000014305,36876.799999952316,44279.200000047684,46827.700000047684],"key_events":[],"mouse_events":[8712.100000143051,9463.299999952316,10609.400000095367,11771.5,16625.299999952316,18595,22153.400000095367,25605.700000047684,31540.700000047684,33864.90000009537,36187.60000014305,36876.799999952316,37501.700000047684,38191.5,41490.90000009537,44279.200000047684,45079.60000014305,46827.700000047684,48477.700000047684],"straightlining":0.36363636363636365,"zigzagging":0.4,"honeypot":0,"survey":"nfc10","trial_type":"survey-template","trial_index":4,"time_elapsed":140751,"internal_node_id":"0.0-4.0","experiment":"validation","task_version":"2.0","jspsych_version":"6.3.1","infrequency":0},{"value":0,"trial_type":"call-function","trial_index":5,"time_elapsed":140753,"internal_node_id":"0.0-5.0","experiment":"validation","task_version":"2.0","jspsych_version":"6.3.1","interactions":"[]"}]