[{"view_history":[{"page_index":0,"viewing_time":1396.1000000089407}],"rt":1396.2000000029802,"trial_type":"instructions","trial_index":0,"time_elapsed":1405,"internal_node_id":"0.0-0.0","experiment":"validation","task_version":"2.0","jspsych_version":"6.3.1"},{"rt":9898.29999999702,"responses":{"age":"22","gender-categorical":"Male","gender-free-response":"","ethnicity":"Not Hispanic or Latino","race":["White"],"education":"High school"},"survey":"demographics","trial_type":"survey-demo","trial_index":1,"time_elapsed":11304,"internal_node_id":"0.0-1.0","experiment":"validation","task_version":"2.0","jspsych_version":"6.3.1"},{"rt":26283,"response":{"Q5":0,"Q8":0,"Q2":2,"Q6":4,"Q7":2,"Q0":0,"Q4":4,"Q1":2,"Q3":1},"question_order":[5,8,2,6,7,0,4,1,3],"survey":"sns","trial_type":"survey-likert","trial_index":2,"time_elapsed":37589,"internal_node_id":"0.0-2.0","experiment":"validation","task_version":"2.0","jspsych_version":"6.3.1","infrequency":0},{"responses":{"Q10":"2","Q06":"2","Q09":"1","Q02":"2","Q04":"1","Q07":"3","Q03":"3","Q05":"4","Q11":"0","Q01":"2","Q08":"3"},"rt":34576.79999999702,"item_order":[9,5,8,1,3,6,2,4,10,0,7],"radio_events":[5123.100000008941,5555.29999999702,7427.4000000059605,8121,9774.90000000596,13031.70000000298,14898,16863.79999999702,18011.90000000596,20248.79999999702,23252.79999999702,25030.70000000298,30267.79999999702,33549.70000000298],"key_events":[],"mouse_events":[4129.100000008941,5123.100000008941,5555.29999999702,6263.79999999702,6864.9000000059605,7185.9000000059605,7427.4000000059605,8121,9297.90000000596,9774.90000000596,11427.10000000894,12192.29999999702,12706.10000000894,13031.70000000298,13796.5,14898,15973.10000000894,16441.70000000298,16863.79999999702,17546.90000000596,18011.90000000596,20248.79999999702,23252.79999999702,25030.70000000298,29293.20000000298,29642.40000000596,29909,30267.79999999702,32246.40000000596,33219.10000000894,33549.70000000298,34228.10000000894,34576],"straightlining":0.36363636363636365,"zigzagging":0.5,"honeypot":0,"survey":"nfc10","trial_type":"survey-template","trial_index":3,"time_elapsed":72168,"internal_node_id":"0.0-3.0","experiment":"validation","task_version":"2.0","jspsych_version":"6.3.1","infrequency":0},{"responses":{"Q04":"0","Q06":"1","Q01":"1","Q03":"1","Q09":"4","Q08":"1","Q07":"0","Q02":"1","Q05":"1"},"rt":31729.40000000596,"item_order":[3,5,0,2,8,7,6,1,4],"radio_events":[10865.20000000298,13206.79999999702,13590.90000000596,15047,16063.29999999702,16323.70000000298,17162.09999999404,20926.79999999702,27752.29999999702,29020.59999999404,31064.40000000596],"key_events":[],"mouse_events":[10512,10865.20000000298,12371.59999999404,12663.90000000596,12941.70000000298,13206.79999999702,13590.90000000596,14470,14785.29999999702,15047,16063.29999999702,16323.70000000298,17162.09999999404,18194.40000000596,20419.5,20926.79999999702,24836.29999999702,25141.29999999702,25472.79999999702,25775.90000000596,26810.59999999404,27130.40000000596,27424.79999999702,27752.29999999702,28756.79999999702,29020.59999999404,30201.29999999702,30812.59999999404,31064.40000000596,31728.79999999702],"straightlining":0.6666666666666666,"zigzagging":0.625,"honeypot":0,"survey":"pcf","trial_type":"survey-template","trial_index":4,"time_elapsed":103899,"internal_node_id":"0.0-4.0","experiment":"validation","task_version":"2.0","jspsych_version":"6.3.1","infrequency":0},{"value":0,"trial_type":"call-function","trial_index":5,"time_elapsed":103900,"internal_node_id":"0.0-5.0","experiment":"validation","task_version":"2.0","jspsych_version":"6.3.1","interactions":"[{\"event\":\"blur\",\"trial\":4,\"time\":76970},{\"event\":\"focus\",\"trial\":4,\"time\":81223}]"}]