[{"view_history":[{"page_index":0,"viewing_time":16790}],"rt":16792,"trial_type":"instructions","trial_index":0,"time_elapsed":16856,"internal_node_id":"0.0-0.0","experiment":"validation","task_version":"2.0","jspsych_version":"6.3.1"},{"rt":24418,"responses":{"age":"32","gender-categorical":"Female","gender-free-response":"","ethnicity":"Not Hispanic or Latino","race":["Black or African American"],"education":"Associate degree"},"survey":"demographics","trial_type":"survey-demo","trial_index":1,"time_elapsed":41282,"internal_node_id":"0.0-1.0","experiment":"validation","task_version":"2.0","jspsych_version":"6.3.1"},{"rt":65314.300000000745,"response":{"Q0":1,"Q2":1,"Q3":1,"Q1":1,"Q6":0,"Q7":5,"Q4":5,"Q5":5,"Q8":0},"question_order":[0,2,3,1,6,7,4,5,8],"survey":"sns","trial_type":"survey-likert","trial_index":2,"time_elapsed":106625,"internal_node_id":"0.0-2.0","experiment":"validation","task_version":"2.0","jspsych_version":"6.3.1","infrequency":0},{"responses":{"Q03":"1","Q08":"3","Q09":"4","Q01":"4","Q06":"3","Q05":"1","Q04":"3","Q07":"3","Q02":"3"},"rt":67590.69999999925,"item_order":[2,7,8,0,5,4,3,6,1],"radio_events":[9472.400000000373,13831.199999999255,22351.799999998882,29618.400000000373,33917,39182.59999999963,51741.59999999963,56054.79999999888,63501.09999999963],"key_events":[],"mouse_events":[95.19999999925494,9472.400000000373,13831.199999999255,19764.799999998882,22351.799999998882,26262.199999999255,29618.400000000373,33917,39182.59999999963,44615.199999999255,48224.40000000037,48451.29999999888,49535.29999999888,49788.79999999888,51741.59999999963,56054.79999999888,62035.90000000037,63501.09999999963,64845.40000000037,66462.59999999963,67586.69999999925],"straightlining":0.5555555555555556,"zigzagging":0.25,"honeypot":0,"survey":"pcf","trial_type":"survey-template","trial_index":3,"time_elapsed":174228,"internal_node_id":"0.0-3.0","experiment":"validation","task_version":"2.0","jspsych_version":"6.3.1","infrequency":0},{"responses":{"Q05":"4","Q08":"3","Q06":"2","Q02":"2","Q11":"0","Q10":"4","Q03":"4","Q07":"2","Q04":"2","Q01":"2","Q09":"1"},"rt":108965.90000000037,"item_order":[4,7,5,1,10,9,2,6,3,0,8],"radio_events":[16159.400000000373,25516.5,35658.10000000149,41116.20000000112,43187.5,49867.5,61061.300000000745,68422.70000000112,77033,85823.20000000112,97037.5,105618.30000000075],"key_events":[],"mouse_events":[16159.400000000373,24563.60000000149,25516.5,34967,35658.10000000149,41116.20000000112,43187.5,49867.5,60037.90000000037,61061.300000000745,66801.80000000075,68422.70000000112,73815.5,73906.60000000149,77033,81995.70000000112,85823.20000000112,97037.5,105618.30000000075,108962],"straightlining":0.45454545454545453,"zigzagging":0.4,"honeypot":0,"survey":"nfc10","trial_type":"survey-template","trial_index":4,"time_elapsed":283206,"internal_node_id":"0.0-4.0","experiment":"validation","task_version":"2.0","jspsych_version":"6.3.1","infrequency":0},{"value":0,"trial_type":"call-function","trial_index":5,"time_elapsed":283214,"internal_node_id":"0.0-5.0","experiment":"validation","task_version":"2.0","jspsych_version":"6.3.1","interactions":"[]"}]