[{"view_history":[{"page_index":0,"viewing_time":2959}],"rt":2959.100000023842,"trial_type":"instructions","trial_index":0,"time_elapsed":2974,"internal_node_id":"0.0-0.0","experiment":"validation","task_version":"2.0","jspsych_version":"6.3.1"},{"rt":7349.199999928474,"responses":{"age":"30","gender-categorical":"Male","gender-free-response":"","ethnicity":"Not Hispanic or Latino","race":["Asian"],"education":"Bachelor degree"},"survey":"demographics","trial_type":"survey-demo","trial_index":1,"time_elapsed":10324,"internal_node_id":"0.0-1.0","experiment":"validation","task_version":"2.0","jspsych_version":"6.3.1"},{"responses":{"Q09":"3","Q01":"3","Q10":"3","Q02":"3","Q11":"0","Q08":"3","Q04":"4","Q07":"3","Q06":"3","Q03":"4","Q05":"4"},"rt":32238.600000023842,"item_order":[8,0,9,1,10,7,3,6,5,2,4],"radio_events":[4474.899999976158,5949,6547,8203,8866,13101.799999952316,18707,23823.399999976158,25252.799999952316,27626.899999976158,28733.399999976158,31405],"key_events":[],"mouse_events":[2936.600000023842,3522.899999976158,3983.6999999284744,4474.899999976158,4923.600000023842,5949,6547,8203,8866,9439,13101.799999952316,18707,20684.899999976158,22125.899999976158,22922.899999976158,23311.299999952316,23823.399999976158,24836,25252.799999952316,25967.199999928474,27291.100000023842,27626.899999976158,28202,28733.399999976158,30382.699999928474,30803.899999976158,31405,32237.699999928474],"straightlining":0.6363636363636364,"zigzagging":0,"honeypot":0,"survey":"nfc10","trial_type":"survey-template","trial_index":2,"time_elapsed":42567,"internal_node_id":"0.0-2.0","experiment":"validation","task_version":"2.0","jspsych_version":"6.3.1","infrequency":0},{"responses":{"Q02":"4","Q04":"4","Q05":"4","Q09":"4","Q08":"4","Q03":"4","Q06":"4","Q01":"4","Q07":"4"},"rt":26311.899999976158,"item_order":[1,3,4,8,7,2,5,0,6],"radio_events":[4667.300000071526,5727.800000071526,7113.300000071526,9609.100000023842,10792.5,12909,19063.200000047684,21887,25549.100000023842],"key_events":[],"mouse_events":[3679.2000000476837,4129.700000047684,4667.300000071526,5220,5727.800000071526,6266.100000023842,6720,7113.300000071526,8498.100000023842,9113.200000047684,9609.100000023842,10792.5,11787.399999976158,12522.600000023842,12909,19063.200000047684,21887,25116.100000023842,25549.100000023842,26311.300000071526],"straightlining":0.8888888888888888,"zigzagging":0.25,"honeypot":0,"survey":"pcf","trial_type":"survey-template","trial_index":3,"time_elapsed":68882,"internal_node_id":"0.0-3.0","experiment":"validation","task_version":"2.0","jspsych_version":"6.3.1","infrequency":0},{"rt":130683.80000007153,"response":{"Q8":0,"Q5":5,"Q7":5,"Q4":5,"Q3":5,"Q1":5,"Q2":5,"Q0":5,"Q6":0},"question_order":[8,5,7,4,3,1,2,0,6],"survey":"sns","trial_type":"survey-likert","trial_index":4,"time_elapsed":199570,"internal_node_id":"0.0-4.0","experiment":"validation","task_version":"2.0","jspsych_version":"6.3.1","infrequency":0},{"value":0,"trial_type":"call-function","trial_index":5,"time_elapsed":199573,"internal_node_id":"0.0-5.0","experiment":"validation","task_version":"2.0","jspsych_version":"6.3.1","interactions":"[]"}]