[{"view_history":[{"page_index":0,"viewing_time":2733.7000000029802}],"rt":2733.8999999910593,"trial_type":"instructions","trial_index":0,"time_elapsed":2750,"internal_node_id":"0.0-0.0","experiment":"validation","task_version":"2.0","jspsych_version":"6.3.1"},{"rt":12006.300000011921,"responses":{"age":"27","gender-categorical":"Male","gender-free-response":"","ethnicity":"Not Hispanic or Latino","race":["White"],"education":"Master degree or higher"},"survey":"demographics","trial_type":"survey-demo","trial_index":1,"time_elapsed":14758,"internal_node_id":"0.0-1.0","experiment":"validation","task_version":"2.0","jspsych_version":"6.3.1"},{"rt":31322.10000000894,"response":{"Q5":4,"Q7":5,"Q2":5,"Q6":0,"Q8":0,"Q4":5,"Q3":5,"Q1":5,"Q0":5},"question_order":[5,7,2,6,8,4,3,1,0],"survey":"sns","trial_type":"survey-likert","trial_index":2,"time_elapsed":46087,"internal_node_id":"0.0-2.0","experiment":"validation","task_version":"2.0","jspsych_version":"6.3.1","infrequency":0},{"responses":{"Q07":"3","Q09":"4","Q02":"3","Q05":"3","Q04":"2","Q08":"4","Q03":"4","Q06":"3","Q01":"4"},"rt":35941.79999999702,"item_order":[6,8,1,4,3,7,2,5,0],"radio_events":[3211.0999999940395,6402.70000000298,11392.70000000298,17338.39999999106,19174.70000000298,24164.59999999404,26360.5,27894.29999999702,35200.39999999106],"key_events":[],"mouse_events":[3211.0999999940395,5832.5999999940395,6402.70000000298,11392.70000000298,13914.39999999106,16396.70000000298,17338.39999999106,19174.70000000298,20262.89999999106,20864.79999999702,21236.59999999404,21920.09999999404,22444.5,23544.5,24164.59999999404,25586.29999999702,26360.5,27894.29999999702,28688.70000000298,35200.39999999106,35940.70000000298],"straightlining":0.4444444444444444,"zigzagging":0.375,"honeypot":0,"survey":"pcf","trial_type":"survey-template","trial_index":3,"time_elapsed":82033,"internal_node_id":"0.0-3.0","experiment":"validation","task_version":"2.0","jspsych_version":"6.3.1","infrequency":0},{"responses":{"Q08":"4","Q05":"2","Q10":"1","Q09":"3","Q02":"2","Q01":"2","Q11":"0","Q04":"1","Q06":"1","Q03":"2","Q07":"1"},"rt":68644.79999999702,"item_order":[7,4,9,8,1,0,10,3,5,2,6],"radio_events":[3804.7999999970198,6030.5,8060.5,11656.89999999106,12434.70000000298,17230.79999999702,20436.70000000298,24104.29999999702,56073.89999999106,61225.79999999702,67408],"key_events":[],"mouse_events":[3804.7999999970198,6030.5,6879,8060.5,8626.89999999106,9742.79999999702,10776.59999999404,11656.89999999106,12434.70000000298,17230.79999999702,18620.59999999404,20436.70000000298,24104.29999999702,56073.89999999106,59010.09999999404,59931.70000000298,61225.79999999702,61945.89999999106,67408,68643.79999999702],"straightlining":0.36363636363636365,"zigzagging":0.4,"honeypot":0,"survey":"nfc10","trial_type":"survey-template","trial_index":4,"time_elapsed":150680,"internal_node_id":"0.0-4.0","experiment":"validation","task_version":"2.0","jspsych_version":"6.3.1","infrequency":0},{"value":0,"trial_type":"call-function","trial_index":5,"time_elapsed":150683,"internal_node_id":"0.0-5.0","experiment":"validation","task_version":"2.0","jspsych_version":"6.3.1","interactions":"[]"}]