[{"view_history":[{"page_index":0,"viewing_time":2570.5}],"rt":2570.7999999970198,"trial_type":"instructions","trial_index":0,"time_elapsed":2583,"internal_node_id":"0.0-0.0","experiment":"validation","task_version":"2.0","jspsych_version":"6.3.1"},{"rt":12496.89999999106,"responses":{"age":"32","gender-categorical":"Male","gender-free-response":"","ethnicity":"Not Hispanic or Latino","race":["Asian"],"education":"Master degree or higher"},"survey":"demographics","trial_type":"survey-demo","trial_index":1,"time_elapsed":15083,"internal_node_id":"0.0-1.0","experiment":"validation","task_version":"2.0","jspsych_version":"6.3.1"},{"responses":{"Q05":"2","Q08":"2","Q01":"2","Q06":"2","Q09":"4","Q07":"3","Q02":"2","Q03":"2","Q04":"2"},"rt":31542.80000001192,"item_order":[4,7,0,5,8,6,1,2,3],"radio_events":[2437.6000000089407,3888.7000000029802,5072.600000008941,5882.5,6332.20000000298,10942.5,23936.20000000298,24532.40000000596,26849.90000000596,27367.60000000894,30022.20000000298],"key_events":[],"mouse_events":[2437.6000000089407,2833.2000000029802,3541.300000011921,3888.7000000029802,4350.100000008941,5072.600000008941,5442.5,5882.5,6332.20000000298,10942.5,23148.60000000894,23936.20000000298,24532.40000000596,25556.30000001192,26220,26849.90000000596,27367.60000000894,28076.10000000894,30022.20000000298,31540.90000000596],"straightlining":0.7777777777777778,"zigzagging":0.125,"honeypot":0,"survey":"pcf","trial_type":"survey-template","trial_index":2,"time_elapsed":46630,"internal_node_id":"0.0-2.0","experiment":"validation","task_version":"2.0","jspsych_version":"6.3.1","infrequency":0},{"responses":{"Q03":"2","Q06":"2","Q01":"2","Q04":"2","Q05":"2","Q07":"2","Q02":"2","Q11":"2","Q09":"2","Q08":"2","Q10":"2"},"rt":15667.79999999702,"item_order":[2,5,0,3,4,6,1,10,8,7,9],"radio_events":[4191.20000000298,4822,5586.5999999940395,6306.0999999940395,7116.20000000298,8579.09999999404,10671.20000000298,12033.59999999404,13551.20000000298,14226.09999999404,14912.70000000298],"key_events":[],"mouse_events":[3302.3999999910593,4191.20000000298,4822,5586.5999999940395,6306.0999999940395,7116.20000000298,8072.5999999940395,8579.09999999404,10671.20000000298,11245,12033.59999999404,12696.09999999404,13551.20000000298,14226.09999999404,14912.70000000298,15666],"straightlining":1,"zigzagging":0,"honeypot":0,"survey":"nfc10","trial_type":"survey-template","trial_index":3,"time_elapsed":62301,"internal_node_id":"0.0-3.0","experiment":"validation","task_version":"2.0","jspsych_version":"6.3.1","infrequency":1},{"rt":24576.79999999702,"response":{"Q0":2,"Q4":2,"Q8":0,"Q5":3,"Q7":2,"Q2":3,"Q6":3,"Q1":2,"Q3":3},"question_order":[0,4,8,5,7,2,6,1,3],"survey":"sns","trial_type":"survey-likert","trial_index":4,"time_elapsed":86882,"internal_node_id":"0.0-4.0","experiment":"validation","task_version":"2.0","jspsych_version":"6.3.1","infrequency":0},{"value":1,"trial_type":"call-function","trial_index":5,"time_elapsed":86886,"internal_node_id":"0.0-5.0","experiment":"validation","task_version":"2.0","jspsych_version":"6.3.1","interactions":"[]"}]