[{"view_history":[{"page_index":0,"viewing_time":1454.5}],"rt":1454.7999999523163,"trial_type":"instructions","trial_index":0,"time_elapsed":1470,"internal_node_id":"0.0-0.0","experiment":"validation","task_version":"2.0","jspsych_version":"6.3.1"},{"rt":15009.399999856949,"responses":{"age":"21","gender-categorical":"Other","gender-free-response":"agender","ethnicity":"Not Hispanic or Latino","race":["White"],"education":"Some college"},"survey":"demographics","trial_type":"survey-demo","trial_index":1,"time_elapsed":16481,"internal_node_id":"0.0-1.0","experiment":"validation","task_version":"2.0","jspsych_version":"6.3.1"},{"rt":43944.59999990463,"response":{"Q0":4,"Q4":1,"Q5":4,"Q2":2,"Q3":2,"Q7":3,"Q6":1,"Q1":4,"Q8":0},"question_order":[0,4,5,2,3,7,6,1,8],"survey":"sns","trial_type":"survey-likert","trial_index":2,"time_elapsed":60430,"internal_node_id":"0.0-2.0","experiment":"validation","task_version":"2.0","jspsych_version":"6.3.1","infrequency":0},{"responses":{"Q10":"2","Q01":"3","Q09":"2","Q03":"2","Q11":"0","Q05":"2","Q02":"1","Q08":"1","Q04":"1","Q06":"2","Q07":"3"},"rt":61807.700000047684,"item_order":[9,0,8,2,10,4,1,7,3,5,6],"radio_events":[8421.200000047684,13310.299999952316,16876.400000095367,21767.5,25290.200000047684,33288.60000014305,35615,39857.10000014305,43705.90000009537,47643.5,54442.90000009537,58254.200000047684,61045.40000009537],"key_events":[],"mouse_events":[8421.200000047684,13310.299999952316,16876.400000095367,21767.5,25290.200000047684,32753.60000014305,33288.60000014305,35615,39857.10000014305,43705.90000009537,47198.10000014305,47643.5,51922.799999952316,53069.10000014305,53605.799999952316,54045,54442.90000009537,58254.200000047684,61045.40000009537,61806.700000047684],"straightlining":0.45454545454545453,"zigzagging":0.5,"honeypot":0,"survey":"nfc10","trial_type":"survey-template","trial_index":3,"time_elapsed":122240,"internal_node_id":"0.0-3.0","experiment":"validation","task_version":"2.0","jspsych_version":"6.3.1","infrequency":0},{"responses":{"Q02":"2","Q05":"1","Q06":"2","Q07":"2","Q09":"4","Q04":"2","Q01":"2","Q03":"3","Q08":"4"},"rt":42111.39999985695,"item_order":[1,4,5,6,8,3,0,2,7],"radio_events":[7167.5,9847.599999904633,14727.200000047684,18871.700000047684,21038.39999985695,21855.599999904633,26185.799999952316,33618.299999952316,37972.59999990463,40782.799999952316],"key_events":[],"mouse_events":[7167.5,9847.599999904633,14727.200000047684,18871.700000047684,19961.5,21038.39999985695,21855.599999904633,26185.799999952316,33618.299999952316,37972.59999990463,40782.799999952316,42110.5],"straightlining":0.5555555555555556,"zigzagging":0.5,"honeypot":0,"survey":"pcf","trial_type":"survey-template","trial_index":4,"time_elapsed":164353,"internal_node_id":"0.0-4.0","experiment":"validation","task_version":"2.0","jspsych_version":"6.3.1","infrequency":0},{"value":0,"trial_type":"call-function","trial_index":5,"time_elapsed":164354,"internal_node_id":"0.0-5.0","experiment":"validation","task_version":"2.0","jspsych_version":"6.3.1","interactions":"[]"}]