[{"view_history":[{"page_index":0,"viewing_time":2875.1000000089407}],"rt":2875.2999999970198,"trial_type":"instructions","trial_index":0,"time_elapsed":2884,"internal_node_id":"0.0-0.0","experiment":"validation","task_version":"2.0","jspsych_version":"6.3.1"},{"rt":13546.5,"responses":{"age":"20","gender-categorical":"Female","gender-free-response":"","ethnicity":"Not Hispanic or Latino","race":["White"],"education":"Some college"},"survey":"demographics","trial_type":"survey-demo","trial_index":1,"time_elapsed":16432,"internal_node_id":"0.0-1.0","experiment":"validation","task_version":"2.0","jspsych_version":"6.3.1"},{"rt":33422.39999999106,"response":{"Q0":4,"Q2":5,"Q6":0,"Q8":0,"Q1":4,"Q5":5,"Q3":5,"Q4":5,"Q7":5},"question_order":[0,2,6,8,1,5,3,4,7],"survey":"sns","trial_type":"survey-likert","trial_index":2,"time_elapsed":49859,"internal_node_id":"0.0-2.0","experiment":"validation","task_version":"2.0","jspsych_version":"6.3.1","infrequency":0},{"responses":{"Q08":"3","Q03":"4","Q06":"4","Q09":"2","Q10":"3","Q04":"3","Q05":"3","Q11":"0","Q07":"4","Q02":"4","Q01":"3"},"rt":64645.29999999702,"item_order":[7,2,5,8,9,3,4,10,6,1,0],"radio_events":[5392.0999999940395,9294,14540,18076,27799.39999999106,40805.89999999106,46416.59999999404,51422.29999999702,58228.29999999702,61330.39999999106,63988.79999999702],"key_events":[],"mouse_events":[5392.0999999940395,9294,14540,18076,27799.39999999106,40805.89999999106,46416.59999999404,51422.29999999702,58228.29999999702,61330.39999999106,63988.79999999702,64640.70000000298],"straightlining":0.2727272727272727,"zigzagging":0.5,"honeypot":0,"survey":"nfc10","trial_type":"survey-template","trial_index":3,"time_elapsed":114563,"internal_node_id":"0.0-3.0","experiment":"validation","task_version":"2.0","jspsych_version":"6.3.1","infrequency":0},{"responses":{"Q07":"4","Q08":"3","Q06":"2","Q01":"4","Q03":"3","Q02":"2","Q05":"1","Q04":"3","Q09":"4"},"rt":40311,"item_order":[6,7,5,0,2,1,4,3,8],"radio_events":[2817.800000011921,4940.100000008941,5843.9000000059605,11143.300000011921,11872.300000011921,13797.10000000894,21188.70000000298,22532.70000000298,25897.20000000298,29568.60000000894,32866.20000000298,37917.10000000894,39674.40000000596],"key_events":[],"mouse_events":[2817.800000011921,4940.100000008941,5430.70000000298,5843.9000000059605,11143.300000011921,11872.300000011921,13797.10000000894,21188.70000000298,22532.70000000298,25526.60000000894,25897.20000000298,29568.60000000894,32866.20000000298,37917.10000000894,39058.40000000596,39674.40000000596,40307.20000000298],"straightlining":0.3333333333333333,"zigzagging":0.625,"honeypot":0,"survey":"pcf","trial_type":"survey-template","trial_index":4,"time_elapsed":154879,"internal_node_id":"0.0-4.0","experiment":"validation","task_version":"2.0","jspsych_version":"6.3.1","infrequency":0},{"value":0,"trial_type":"call-function","trial_index":5,"time_elapsed":154881,"internal_node_id":"0.0-5.0","experiment":"validation","task_version":"2.0","jspsych_version":"6.3.1","interactions":"[]"}]