[{"view_history":[{"page_index":0,"viewing_time":14560.300000011921}],"rt":14563.100000023842,"trial_type":"instructions","trial_index":0,"time_elapsed":14587,"internal_node_id":"0.0-0.0","experiment":"validation","task_version":"2.0","jspsych_version":"6.3.1"},{"rt":28377.80000001192,"responses":{"age":"50","gender-categorical":"Male","gender-free-response":"","ethnicity":"Not Hispanic or Latino","race":["White"],"education":"Bachelor degree"},"survey":"demographics","trial_type":"survey-demo","trial_index":1,"time_elapsed":42973,"internal_node_id":"0.0-1.0","experiment":"validation","task_version":"2.0","jspsych_version":"6.3.1"},{"responses":{"Q03":"3","Q06":"3","Q05":"3","Q09":"4","Q07":"3","Q08":"4","Q02":"3","Q01":"3","Q04":"3"},"rt":101392.09999999404,"item_order":[2,5,4,8,6,7,1,0,3],"radio_events":[30669.09999999404,38808.79999998212,44588.59999999404,51968.59999999404,68052,83787.5,84795.5,91603.29999998212,99707.29999998212],"key_events":[],"mouse_events":[30669.09999999404,38808.79999998212,44588.59999999404,51968.59999999404,60981.09999999404,68052,81019.79999998212,83787.5,84795.5,91603.29999998212,93131.59999999404,94611.19999998808,99707.29999998212,101387.39999997616],"straightlining":0.7777777777777778,"zigzagging":0.25,"honeypot":0,"survey":"pcf","trial_type":"survey-template","trial_index":2,"time_elapsed":144380,"internal_node_id":"0.0-2.0","experiment":"validation","task_version":"2.0","jspsych_version":"6.3.1","infrequency":0},{"responses":{"Q06":"3","Q11":"0","Q03":"3","Q10":"3","Q01":"3","Q09":"3","Q04":"3","Q08":"3","Q05":"3","Q02":"3","Q07":"3"},"rt":119623.89999997616,"item_order":[5,10,2,9,0,8,3,7,4,1,6],"radio_events":[26612.09999999404,35172.79999998212,42189.69999998808,58494,62837.69999998808,69811.29999998212,88756.89999997616,95835,104326.79999998212,110662.09999999404,118190],"key_events":[],"mouse_events":[26612.09999999404,35172.79999998212,42189.69999998808,58494,62837.69999998808,68265.09999999404,69811.29999998212,88756.89999997616,95835,104326.79999998212,110662.09999999404,118190,119619.29999998212],"straightlining":0.6363636363636364,"zigzagging":0.1,"honeypot":0,"survey":"nfc10","trial_type":"survey-template","trial_index":3,"time_elapsed":264013,"internal_node_id":"0.0-3.0","experiment":"validation","task_version":"2.0","jspsych_version":"6.3.1","infrequency":0},{"rt":86531,"response":{"Q6":1,"Q5":1,"Q1":4,"Q8":0,"Q4":5,"Q2":5,"Q7":5,"Q3":5,"Q0":4},"question_order":[6,5,1,8,4,2,7,3,0],"survey":"sns","trial_type":"survey-likert","trial_index":4,"time_elapsed":350559,"internal_node_id":"0.0-4.0","experiment":"validation","task_version":"2.0","jspsych_version":"6.3.1","infrequency":0},{"value":0,"trial_type":"call-function","trial_index":5,"time_elapsed":350565,"internal_node_id":"0.0-5.0","experiment":"validation","task_version":"2.0","jspsych_version":"6.3.1","interactions":"[{\"event\":\"blur\",\"trial\":1,\"time\":18789},{\"event\":\"focus\",\"trial\":1,\"time\":20179},{\"event\":\"blur\",\"trial\":1,\"time\":22328},{\"event\":\"focus\",\"trial\":1,\"time\":23816},{\"event\":\"blur\",\"trial\":2,\"time\":45302},{\"event\":\"focus\",\"trial\":2,\"time\":45399}]"}]