[{"view_history":[{"page_index":0,"viewing_time":1786}],"rt":1786.0999999996275,"trial_type":"instructions","trial_index":0,"time_elapsed":1805,"internal_node_id":"0.0-0.0","experiment":"validation","task_version":"2.0","jspsych_version":"6.3.1"},{"rt":10147.60000000149,"responses":{"age":"38","gender-categorical":"Male","gender-free-response":"","ethnicity":"Not Hispanic or Latino","race":["Asian"],"education":"Master degree or higher"},"survey":"demographics","trial_type":"survey-demo","trial_index":1,"time_elapsed":11955,"internal_node_id":"0.0-1.0","experiment":"validation","task_version":"2.0","jspsych_version":"6.3.1"},{"responses":{"Q04":"3","Q03":"3","Q02":"4","Q10":"4","Q05":"4","Q11":"0","Q06":"2","Q07":"3","Q09":"3","Q01":"3","Q08":"3"},"rt":61926.90000000037,"item_order":[3,2,1,9,4,10,5,6,8,0,7],"radio_events":[5270.300000000745,6546.5,11545.5,13602.800000000745,17488.300000000745,22147.5,34715.20000000112,43280.5,44498.09999999963,47512.59999999963,60660],"key_events":[],"mouse_events":[5270.300000000745,6546.5,9926.800000000745,10478.900000000373,11086.5,11545.5,13602.800000000745,17488.300000000745,21209,22147.5,34715.20000000112,40084.70000000112,42110.300000000745,43280.5,44498.09999999963,47512.59999999963,48344.20000000112,51846.90000000037,60660,61924.800000000745],"straightlining":0.36363636363636365,"zigzagging":0.2,"honeypot":0,"survey":"nfc10","trial_type":"survey-template","trial_index":2,"time_elapsed":73891,"internal_node_id":"0.0-2.0","experiment":"validation","task_version":"2.0","jspsych_version":"6.3.1","infrequency":0},{"rt":38265.40000000037,"response":{"Q2":5,"Q7":5,"Q6":0,"Q0":5,"Q1":5,"Q8":0,"Q4":4,"Q3":5,"Q5":5},"question_order":[2,7,6,0,1,8,4,3,5],"survey":"sns","trial_type":"survey-likert","trial_index":3,"time_elapsed":112165,"internal_node_id":"0.0-3.0","experiment":"validation","task_version":"2.0","jspsych_version":"6.3.1","infrequency":0},{"responses":{"Q01":"3","Q02":"4","Q03":"1","Q08":"4","Q06":"3","Q07":"3","Q04":"3","Q05":"2","Q09":"4"},"rt":50868.10000000149,"item_order":[0,1,2,7,5,6,3,4,8],"radio_events":[9028.10000000149,9619.800000000745,12575.800000000745,20198.5,25067.60000000149,32842.800000000745,36898,40407.60000000149,44983.90000000037,49343.70000000112],"key_events":[],"mouse_events":[4425.800000000745,8321.400000000373,9028.10000000149,9619.800000000745,12575.800000000745,19435.900000000373,19932.10000000149,20198.5,22687.60000000149,23393.5,23978,25067.60000000149,32842.800000000745,36898,40407.60000000149,43283.70000000112,44983.90000000037,48373.300000000745,49343.70000000112,50866.60000000149],"straightlining":0.4444444444444444,"zigzagging":0.375,"honeypot":0,"survey":"pcf","trial_type":"survey-template","trial_index":4,"time_elapsed":163040,"internal_node_id":"0.0-4.0","experiment":"validation","task_version":"2.0","jspsych_version":"6.3.1","infrequency":0},{"value":0,"trial_type":"call-function","trial_index":5,"time_elapsed":163046,"internal_node_id":"0.0-5.0","experiment":"validation","task_version":"2.0","jspsych_version":"6.3.1","interactions":"[]"}]