[{"success":true,"timeout":false,"failed_images":[],"failed_audio":[],"failed_video":[],"trial_type":"preload","trial_index":0,"time_elapsed":2086,"internal_node_id":"0.0-0.0","experiment":"validation","task_version":"2.0","jspsych_version":"6.3.1"},{"success":true,"trial_type":"fullscreen","trial_index":1,"time_elapsed":7825,"internal_node_id":"0.0-1.0","experiment":"validation","task_version":"2.0","jspsych_version":"6.3.1"},{"view_history":[{"page_index":0,"viewing_time":15179.400000000373},{"page_index":1,"viewing_time":11496.299999999814},{"page_index":2,"viewing_time":9640.5},{"page_index":3,"viewing_time":2184.7999999998137}],"rt":38501.59999999963,"trial_type":"instructions","trial_index":2,"time_elapsed":46327,"internal_node_id":"0.0-3.0","experiment":"validation","task_version":"2.0","jspsych_version":"6.3.1"},{"item":5,"shape_set":1,"distractor":"pd","choice_order":[3,2,1,0],"correct":0,"choice":0,"accuracy":1,"rt":2864.7000000001863,"screen_resolution":[1920,969],"minimum_resolution":1,"all_loaded":true,"item_set":"practice","trial_type":"mars","trial_index":3,"time_elapsed":49945,"internal_node_id":"0.0-4.0-0.0","experiment":"validation","task_version":"2.0","jspsych_version":"6.3.1"},{"item":2,"shape_set":1,"distractor":"pd","choice_order":[3,2,1,0],"correct":0,"choice":0,"accuracy":1,"rt":3932.2999999998137,"screen_resolution":[1920,969],"minimum_resolution":1,"all_loaded":true,"item_set":"practice","trial_type":"mars","trial_index":4,"time_elapsed":54629,"internal_node_id":"0.0-5.0-0.0","experiment":"validation","task_version":"2.0","jspsych_version":"6.3.1"},{"item":8,"shape_set":1,"distractor":"pd","choice_order":[1,3,2,0],"correct":0,"choice":0,"accuracy":1,"rt":6281,"screen_resolution":[1920,969],"minimum_resolution":1,"all_loaded":true,"item_set":"practice","trial_type":"mars","trial_index":5,"time_elapsed":61662,"internal_node_id":"0.0-6.0-0.0","experiment":"validation","task_version":"2.0","jspsych_version":"6.3.1"},{"view_history":[{"page_index":0,"viewing_time":3635.5999999996275},{"page_index":1,"viewing_time":37437.200000000186}],"rt":41073.799999999814,"trial_type":"instructions","trial_index":6,"time_elapsed":102736,"internal_node_id":"0.0-7.0","experiment":"validation","task_version":"2.0","jspsych_version":"6.3.1"},{"rt":null,"stimulus":"<div style=\"font-size:24px;\">Loading puzzle:<br>1 / 12</div>","response":null,"trial_type":"html-keyboard-response","trial_index":7,"time_elapsed":103941,"internal_node_id":"0.0-8.0-1.0","experiment":"validation","task_version":"2.0","jspsych_version":"6.3.1"},{"item":45,"shape_set":2,"distractor":"pd","choice_order":[0,1,2,3],"correct":0,"choice":0,"accuracy":1,"rt":16874.10000000056,"screen_resolution":[1920,969],"minimum_resolution":1,"all_loaded":true,"item_set":3,"short_form":3,"trial_type":"mars","trial_index":8,"time_elapsed":120817,"internal_node_id":"0.0-8.0-2.0","experiment":"validation","task_version":"2.0","jspsych_version":"6.3.1","browser_interactions":0},{"rt":null,"stimulus":"<div style=\"font-size:24px;\">Loading puzzle:<br>2 / 12</div>","response":null,"trial_type":"html-keyboard-response","trial_index":9,"time_elapsed":122019,"internal_node_id":"0.0-9.0-1.0","experiment":"validation","task_version":"2.0","jspsych_version":"6.3.1"},{"item":55,"shape_set":1,"distractor":"pd","choice_order":[2,3,0,1],"correct":0,"choice":0,"accuracy":1,"rt":28583.700000000186,"screen_resolution":[1920,969],"minimum_resolution":1,"all_loaded":true,"item_set":3,"short_form":3,"trial_type":"mars","trial_index":10,"time_elapsed":150605,"internal_node_id":"0.0-9.0-2.0","experiment":"validation","task_version":"2.0","jspsych_version":"6.3.1","browser_interactions":0},{"rt":null,"stimulus":"<div style=\"font-size:24px;\">Loading puzzle:<br>3 / 12</div>","response":null,"trial_type":"html-keyboard-response","trial_index":11,"time_elapsed":151807,"internal_node_id":"0.0-10.0-1.0","experiment":"validation","task_version":"2.0","jspsych_version":"6.3.1"},{"item":30,"shape_set":3,"distractor":"pd","choice_order":[2,0,1,3],"correct":0,"choice":0,"accuracy":1,"rt":25498.200000000186,"screen_resolution":[1920,969],"minimum_resolution":1,"all_loaded":true,"item_set":3,"short_form":3,"trial_type":"mars","trial_index":12,"time_elapsed":177308,"internal_node_id":"0.0-10.0-2.0","experiment":"validation","task_version":"2.0","jspsych_version":"6.3.1","browser_interactions":0},{"rt":null,"stimulus":"<div style=\"font-size:24px;\">Loading puzzle:<br>4 / 12</div>","response":null,"trial_type":"html-keyboard-response","trial_index":13,"time_elapsed":178509,"internal_node_id":"0.0-11.0-1.0","experiment":"validation","task_version":"2.0","jspsych_version":"6.3.1"},{"item":58,"shape_set":1,"distractor":"md","choice_order":[1,0,3,2],"correct":0,"choice":1,"accuracy":0,"rt":11191.699999999255,"screen_resolution":[1920,969],"minimum_resolution":1,"all_loaded":true,"item_set":3,"short_form":3,"trial_type":"mars","trial_index":14,"time_elapsed":189703,"internal_node_id":"0.0-11.0-2.0","experiment":"validation","task_version":"2.0","jspsych_version":"6.3.1","browser_interactions":0},{"rt":null,"stimulus":"<div style=\"font-size:24px;\">Loading puzzle:<br>5 / 12</div>","response":null,"trial_type":"html-keyboard-response","trial_index":15,"time_elapsed":190905,"internal_node_id":"0.0-12.0-1.0","experiment":"validation","task_version":"2.0","jspsych_version":"6.3.1"},{"item":17,"shape_set":1,"distractor":"pd","choice_order":[1,2,0,3],"correct":0,"choice":0,"accuracy":1,"rt":15024.5,"screen_resolution":[1920,969],"minimum_resolution":1,"all_loaded":true,"item_set":3,"short_form":3,"trial_type":"mars","trial_index":16,"time_elapsed":205931,"internal_node_id":"0.0-12.0-2.0","experiment":"validation","task_version":"2.0","jspsych_version":"6.3.1","browser_interactions":0},{"rt":null,"stimulus":"<div style=\"font-size:24px;\">Loading puzzle:<br>6 / 12</div>","response":null,"trial_type":"html-keyboard-response","trial_index":17,"time_elapsed":207132,"internal_node_id":"0.0-13.0-1.0","experiment":"validation","task_version":"2.0","jspsych_version":"6.3.1"},{"item":72,"shape_set":1,"distractor":"pd","choice_order":[1,0,3,2],"correct":0,"choice":0,"accuracy":1,"rt":11245.099999999627,"screen_resolution":[1920,969],"minimum_resolution":1,"all_loaded":true,"item_set":3,"short_form":3,"trial_type":"mars","trial_index":18,"time_elapsed":218381,"internal_node_id":"0.0-13.0-2.0","experiment":"validation","task_version":"2.0","jspsych_version":"6.3.1","browser_interactions":0},{"rt":null,"stimulus":"<div style=\"font-size:24px;\">Loading puzzle:<br>7 / 12</div>","response":null,"trial_type":"html-keyboard-response","trial_index":19,"time_elapsed":219582,"internal_node_id":"0.0-14.0-1.0","experiment":"validation","task_version":"2.0","jspsych_version":"6.3.1"},{"item":29,"shape_set":2,"distractor":"pd","choice_order":[2,1,3,0],"correct":0,"choice":0,"accuracy":1,"rt":16072,"screen_resolution":[1920,969],"minimum_resolution":1,"all_loaded":true,"item_set":3,"short_form":3,"trial_type":"mars","trial_index":20,"time_elapsed":235656,"internal_node_id":"0.0-14.0-2.0","experiment":"validation","task_version":"2.0","jspsych_version":"6.3.1","browser_interactions":0},{"rt":null,"stimulus":"<div style=\"font-size:24px;\">Loading puzzle:<br>8 / 12</div>","response":null,"trial_type":"html-keyboard-response","trial_index":21,"time_elapsed":236859,"internal_node_id":"0.0-15.0-1.0","experiment":"validation","task_version":"2.0","jspsych_version":"6.3.1"},{"item":76,"shape_set":2,"distractor":"pd","choice_order":[2,3,1,0],"correct":0,"choice":1,"accuracy":0,"rt":25445.89999999851,"screen_resolution":[1920,969],"minimum_resolution":1,"all_loaded":true,"item_set":3,"short_form":3,"trial_type":"mars","trial_index":22,"time_elapsed":262307,"internal_node_id":"0.0-15.0-2.0","experiment":"validation","task_version":"2.0","jspsych_version":"6.3.1","browser_interactions":0},{"rt":null,"stimulus":"<div style=\"font-size:24px;\">Loading puzzle:<br>9 / 12</div>","response":null,"trial_type":"html-keyboard-response","trial_index":23,"time_elapsed":263508,"internal_node_id":"0.0-16.0-1.0","experiment":"validation","task_version":"2.0","jspsych_version":"6.3.1"},{"item":35,"shape_set":2,"distractor":"pd","choice_order":[1,2,0,3],"correct":0,"choice":0,"accuracy":1,"rt":12448,"screen_resolution":[1920,969],"minimum_resolution":1,"all_loaded":true,"item_set":3,"short_form":3,"trial_type":"mars","trial_index":24,"time_elapsed":275959,"internal_node_id":"0.0-16.0-2.0","experiment":"validation","task_version":"2.0","jspsych_version":"6.3.1","browser_interactions":0},{"rt":null,"stimulus":"<div style=\"font-size:24px;\">Loading puzzle:<br>10 / 12</div>","response":null,"trial_type":"html-keyboard-response","trial_index":25,"time_elapsed":277161,"internal_node_id":"0.0-17.0-1.0","experiment":"validation","task_version":"2.0","jspsych_version":"6.3.1"},{"item":64,"shape_set":2,"distractor":"pd","choice_order":[2,0,3,1],"correct":0,"choice":0,"accuracy":1,"rt":17053.10000000149,"screen_resolution":[1920,969],"minimum_resolution":1,"all_loaded":true,"item_set":3,"short_form":3,"trial_type":"mars","trial_index":26,"time_elapsed":294217,"internal_node_id":"0.0-17.0-2.0","experiment":"validation","task_version":"2.0","jspsych_version":"6.3.1","browser_interactions":0},{"rt":null,"stimulus":"<div style=\"font-size:24px;\">Loading puzzle:<br>11 / 12</div>","response":null,"trial_type":"html-keyboard-response","trial_index":27,"time_elapsed":295419,"internal_node_id":"0.0-18.0-1.0","experiment":"validation","task_version":"2.0","jspsych_version":"6.3.1"},{"item":66,"shape_set":3,"distractor":"pd","choice_order":[0,2,3,1],"correct":0,"choice":0,"accuracy":1,"rt":15041.299999998882,"screen_resolution":[1920,969],"minimum_resolution":1,"all_loaded":true,"item_set":3,"short_form":3,"trial_type":"mars","trial_index":28,"time_elapsed":310462,"internal_node_id":"0.0-18.0-2.0","experiment":"validation","task_version":"2.0","jspsych_version":"6.3.1","browser_interactions":0},{"rt":null,"stimulus":"<div style=\"font-size:24px;\">Loading puzzle:<br>12 / 12</div>","response":null,"trial_type":"html-keyboard-response","trial_index":29,"time_elapsed":311663,"internal_node_id":"0.0-19.0-1.0","experiment":"validation","task_version":"2.0","jspsych_version":"6.3.1"},{"item":24,"shape_set":2,"distractor":"pd","choice_order":[1,2,0,3],"correct":0,"choice":0,"accuracy":1,"rt":14917.099999999627,"screen_resolution":[1920,969],"minimum_resolution":1,"all_loaded":true,"item_set":3,"short_form":3,"trial_type":"mars","trial_index":30,"time_elapsed":326583,"internal_node_id":"0.0-19.0-2.0","experiment":"validation","task_version":"2.0","jspsych_version":"6.3.1","browser_interactions":0},{"value":[0,0,0],"trial_type":"call-function","trial_index":31,"time_elapsed":326583,"internal_node_id":"0.0-20.0","experiment":"validation","task_version":"2.0","jspsych_version":"6.3.1","interactions":"[{\"event\":\"fullscreenenter\",\"trial\":1,\"time\":6838},{\"event\":\"fullscreenexit\",\"trial\":2,\"time\":12790},{\"event\":\"blur\",\"trial\":2,\"time\":14621},{\"event\":\"focus\",\"trial\":2,\"time\":14677},{\"event\":\"blur\",\"trial\":6,\"time\":82584},{\"event\":\"focus\",\"trial\":6,\"time\":102662}]"}]