[{"view_history":[{"page_index":0,"viewing_time":1866.6000000014901}],"rt":1866.699999999255,"trial_type":"instructions","trial_index":0,"time_elapsed":1877,"internal_node_id":"0.0-0.0","experiment":"validation","task_version":"2.0","jspsych_version":"6.3.1"},{"rt":11661.5,"responses":{"age":"23","gender-categorical":"Male","gender-free-response":"","ethnicity":"Not Hispanic or Latino","race":["Black or African American"],"education":"Some college"},"survey":"demographics","trial_type":"survey-demo","trial_index":1,"time_elapsed":13540,"internal_node_id":"0.0-1.0","experiment":"validation","task_version":"2.0","jspsych_version":"6.3.1"},{"rt":206377.80000000075,"response":{"Q2":3,"Q4":2,"Q1":0,"Q0":0,"Q6":2,"Q8":0,"Q5":4,"Q3":4,"Q7":3},"question_order":[2,4,1,0,6,8,5,3,7],"survey":"sns","trial_type":"survey-likert","trial_index":2,"time_elapsed":219922,"internal_node_id":"0.0-2.0","experiment":"validation","task_version":"2.0","jspsych_version":"6.3.1","infrequency":0},{"responses":{"Q02":"1","Q08":"3","Q07":"1","Q06":"2","Q01":"4","Q05":"2","Q09":"4","Q03":"3","Q04":"3"},"rt":273867.59999999776,"item_order":[1,7,6,5,0,4,8,2,3],"radio_events":[61195,63013.199999999255,67816.19999999925,207501.09999999776,209874.19999999925,214234.8999999985,216467,217519.29999999702,220747.79999999702,221283.79999999702],"key_events":[31065],"mouse_events":[59621.199999999255,60430.099999997765,61195,61665.099999997765,62441.29999999702,63013.199999999255,64650.099999997765,65180.099999997765,66282.79999999702,66770,67100.19999999925,67541.89999999851,67816.19999999925,68448,90975,206471.3999999985,207501.09999999776,209276.8999999985,209874.19999999925,210555.8999999985,211076.8999999985,212118.8999999985,212801.8999999985,213390.59999999776,214234.8999999985,215537.09999999776,216467,217519.29999999702,218252.79999999702,218906.79999999702,219844.79999999702,220348.79999999702,220747.79999999702,221283.79999999702,273866.799999997],"straightlining":0.3333333333333333,"zigzagging":0.125,"honeypot":0,"survey":"pcf","trial_type":"survey-template","trial_index":3,"time_elapsed":493794,"internal_node_id":"0.0-3.0","experiment":"validation","task_version":"2.0","jspsych_version":"6.3.1","infrequency":0},{"responses":{"Q03":"2","Q08":"3","Q01":"1","Q11":"0","Q02":"2","Q04":"1","Q07":"3","Q09":"1","Q05":"2","Q10":"2","Q06":"1"},"rt":256517.3999999985,"item_order":[2,7,0,10,1,3,6,8,4,9,5],"radio_events":[3978.7999999970198,4678.89999999851,5628.89999999851,188273.79999999702,188824.79999999702,202022.59999999776,205438.59999999776,208901.8999999985,212333.69999999925,228495.5,230107.79999999702,234322.09999999776,241065.79999999702,245452.8999999985],"key_events":[183521.3999999985],"mouse_events":[1308.699999999255,1898.8999999985099,2480.7999999970198,2948.7999999970198,3662.7999999970198,3978.7999999970198,4678.89999999851,5303.89999999851,5628.89999999851,6214.699999999255,7073.699999999255,184706,185428.5,186487.79999999702,187312.8999999985,187982.09999999776,188273.79999999702,188824.79999999702,189870.79999999702,190272.79999999702,198847.59999999776,199887.59999999776,202022.59999999776,202705.8999999985,203925.8999999985,204470.59999999776,205438.59999999776,206280.79999999702,208490.69999999925,208901.8999999985,209460.3999999985,209807.59999999776,211125.59999999776,212020.59999999776,212333.69999999925,227905.29999999702,228495.5,229533.29999999702,230107.79999999702,233933.09999999776,234322.09999999776,239718.79999999702,240407.5,241065.79999999702,244961.79999999702,245452.8999999985,256516.59999999776],"straightlining":0.36363636363636365,"zigzagging":0.5,"honeypot":0,"survey":"nfc10","trial_type":"survey-template","trial_index":4,"time_elapsed":750317,"internal_node_id":"0.0-4.0","experiment":"validation","task_version":"2.0","jspsych_version":"6.3.1","infrequency":0},{"value":0,"trial_type":"call-function","trial_index":5,"time_elapsed":750319,"internal_node_id":"0.0-5.0","experiment":"validation","task_version":"2.0","jspsych_version":"6.3.1","interactions":"[{\"event\":\"blur\",\"trial\":2,\"time\":33432},{\"event\":\"focus\",\"trial\":2,\"time\":199432},{\"event\":\"blur\",\"trial\":3,\"time\":221875},{\"event\":\"focus\",\"trial\":3,\"time\":250890},{\"event\":\"blur\",\"trial\":3,\"time\":252724},{\"event\":\"focus\",\"trial\":3,\"time\":273240},{\"event\":\"blur\",\"trial\":3,\"time\":273352},{\"event\":\"focus\",\"trial\":3,\"time\":279423},{\"event\":\"blur\",\"trial\":3,\"time\":288524},{\"event\":\"focus\",\"trial\":3,\"time\":310795},{\"event\":\"blur\",\"trial\":3,\"time\":313587},{\"event\":\"focus\",\"trial\":3,\"time\":424802},{\"event\":\"blur\",\"trial\":3,\"time\":442756},{\"event\":\"focus\",\"trial\":3,\"time\":492159},{\"event\":\"blur\",\"trial\":4,\"time\":503706},{\"event\":\"focus\",\"trial\":4,\"time\":677220},{\"event\":\"blur\",\"trial\":4,\"time\":685118},{\"event\":\"focus\",\"trial\":4,\"time\":688738},{\"event\":\"blur\",\"trial\":4,\"time\":689183},{\"event\":\"focus\",\"trial\":4,\"time\":691091}]"}]