[{"view_history":[{"page_index":0,"viewing_time":2656.439999991562}],"rt":2656.9049999816343,"trial_type":"instructions","trial_index":0,"time_elapsed":2670,"internal_node_id":"0.0-0.0","experiment":"validation","task_version":"2.0","jspsych_version":"6.3.1"},{"rt":10562.440000008792,"responses":{"age":"27","gender-categorical":"Female","gender-free-response":"","ethnicity":"Hispanic or Latino","race":["White"],"education":"Master degree or higher"},"survey":"demographics","trial_type":"survey-demo","trial_index":1,"time_elapsed":13239,"internal_node_id":"0.0-1.0","experiment":"validation","task_version":"2.0","jspsych_version":"6.3.1"},{"rt":50243.549999955576,"response":{"Q1":1,"Q7":2,"Q5":1,"Q6":1,"Q3":2,"Q2":3,"Q8":0,"Q4":2,"Q0":0},"question_order":[1,7,5,6,3,2,8,4,0],"survey":"sns","trial_type":"survey-likert","trial_index":2,"time_elapsed":63492,"internal_node_id":"0.0-2.0","experiment":"validation","task_version":"2.0","jspsych_version":"6.3.1","infrequency":0},{"responses":{"Q01":"2","Q05":"1","Q03":"2","Q04":"3","Q06":"2","Q09":"4","Q07":"4","Q02":"3","Q08":"4"},"rt":34732.85999998916,"item_order":[0,4,2,3,5,8,6,1,7],"radio_events":[4435.935000015888,6661.6350000258535,11671.305000025313,16528.990000020713,17116.210000007413,19007.060000032652,20872.16000002809,23340.599999995902,27104.764999996405,30606.33500001859,33690.795000002254],"key_events":[],"mouse_events":[4435.935000015888,6661.6350000258535,11671.305000025313,16528.990000020713,17116.210000007413,19007.060000032652,20384.475000028033,20872.16000002809,23340.599999995902,27104.764999996405,30606.33500001859,33106.68500000611,33690.795000002254,34728.40000002179],"straightlining":0.3333333333333333,"zigzagging":0.875,"honeypot":0,"survey":"pcf","trial_type":"survey-template","trial_index":3,"time_elapsed":98231,"internal_node_id":"0.0-3.0","experiment":"validation","task_version":"2.0","jspsych_version":"6.3.1","infrequency":0},{"responses":{"Q10":"3","Q03":"3","Q09":"2","Q04":"3","Q06":"1","Q11":"0","Q05":"2","Q07":"1","Q02":"2","Q01":"2","Q08":"3"},"rt":123519.98499996262,"item_order":[9,2,8,3,5,10,4,6,1,0,7],"radio_events":[7276.7149999854155,9287.699999986216,19436.764999991283,23890.689999971073,45312.78500001645,53233.85999997845,105852.72999998415,110047.01999999816,115997.26999999257,120942.49499996658,122883.64000001457],"key_events":[],"mouse_events":[7276.7149999854155,9287.699999986216,19436.764999991283,23051.334999967366,23890.689999971073,45312.78500001645,53233.85999997845,105852.72999998415,110047.01999999816,115997.26999999257,119847.58000000147,120942.49499996658,122883.64000001457,123516.36499998858],"straightlining":0.36363636363636365,"zigzagging":0.6,"honeypot":0,"survey":"nfc10","trial_type":"survey-template","trial_index":4,"time_elapsed":221758,"internal_node_id":"0.0-4.0","experiment":"validation","task_version":"2.0","jspsych_version":"6.3.1","infrequency":0},{"value":0,"trial_type":"call-function","trial_index":5,"time_elapsed":221761,"internal_node_id":"0.0-5.0","experiment":"validation","task_version":"2.0","jspsych_version":"6.3.1","interactions":"[]"}]