[{"view_history":[{"page_index":0,"viewing_time":5741.300000000745}],"rt":5742,"trial_type":"instructions","trial_index":0,"time_elapsed":5755,"internal_node_id":"0.0-0.0","experiment":"validation","task_version":"2.0","jspsych_version":"6.3.1"},{"rt":25045.89999999851,"responses":{"age":"49","gender-categorical":"Male","gender-free-response":"","ethnicity":"Not Hispanic or Latino","race":["American Indian/Alaska Native","White"],"education":"Bachelor degree"},"survey":"demographics","trial_type":"survey-demo","trial_index":1,"time_elapsed":30803,"internal_node_id":"0.0-1.0","experiment":"validation","task_version":"2.0","jspsych_version":"6.3.1"},{"responses":{"Q07":"4","Q01":"3","Q03":"4","Q08":"4","Q10":"4","Q09":"4","Q05":"4","Q06":"4","Q02":"4","Q04":"4","Q11":"0"},"rt":72244.39999999851,"item_order":[6,0,2,7,9,8,4,5,1,3,10],"radio_events":[11267.5,15779.5,25587.599999997765,26843.29999999702,31835.39999999851,35195.39999999851,39083.5,44027.39999999851,47323.39999999851,53123.29999999702,66563.29999999702,70259.19999999925],"key_events":[10211.599999997765,11267.5,15779.5,22747.5,25587.599999997765,26843.29999999702,31835.39999999851,34699.39999999851,35195.39999999851,39083.5,44027.39999999851,47323.39999999851,51939.199999999255,53123.29999999702,66563.29999999702,70259.19999999925,72243.09999999776],"mouse_events":[],"straightlining":0.5454545454545454,"zigzagging":0.5,"honeypot":0,"survey":"nfc10","trial_type":"survey-template","trial_index":2,"time_elapsed":103053,"internal_node_id":"0.0-2.0","experiment":"validation","task_version":"2.0","jspsych_version":"6.3.1","infrequency":0},{"responses":{"Q04":"2","Q08":"4","Q06":"2","Q03":"4","Q01":"2","Q09":"4","Q05":"1","Q02":"2","Q07":"3"},"rt":57067.599999997765,"item_order":[3,7,5,2,0,8,4,1,6],"radio_events":[14787,20195,28002.89999999851,33810.89999999851,37106.89999999851,40018.79999999702,43690.79999999702,48914.89999999851,55954.79999999702],"key_events":[11355.199999999255,14787,19291.099999997765,20195,24090.89999999851,28002.89999999851,30235,31235,33106.89999999851,33810.89999999851,36282.89999999851,37106.89999999851,40018.79999999702,43690.79999999702,48914.89999999851,54362.79999999702,55954.79999999702,57066.599999997765],"mouse_events":[],"straightlining":0.4444444444444444,"zigzagging":0.375,"honeypot":0,"survey":"pcf","trial_type":"survey-template","trial_index":3,"time_elapsed":160124,"internal_node_id":"0.0-3.0","experiment":"validation","task_version":"2.0","jspsych_version":"6.3.1","infrequency":0},{"rt":94811.79999999702,"response":{"Q8":0,"Q4":3,"Q1":5,"Q3":5,"Q5":3,"Q2":5,"Q6":2,"Q0":5,"Q7":5},"question_order":[8,4,1,3,5,2,6,0,7],"survey":"sns","trial_type":"survey-likert","trial_index":4,"time_elapsed":254940,"internal_node_id":"0.0-4.0","experiment":"validation","task_version":"2.0","jspsych_version":"6.3.1","infrequency":0},{"value":0,"trial_type":"call-function","trial_index":5,"time_elapsed":254942,"internal_node_id":"0.0-5.0","experiment":"validation","task_version":"2.0","jspsych_version":"6.3.1","interactions":"[]"}]