[{"view_history":[{"page_index":0,"viewing_time":3250.9000000059605}],"rt":3251.4000000059605,"trial_type":"instructions","trial_index":0,"time_elapsed":3266,"internal_node_id":"0.0-0.0","experiment":"validation","task_version":"2.0","jspsych_version":"6.3.1"},{"rt":16352.40000000596,"responses":{"age":"37","gender-categorical":"Other","gender-free-response":"agender","ethnicity":"Not Hispanic or Latino","race":["White"],"education":"Some college"},"survey":"demographics","trial_type":"survey-demo","trial_index":1,"time_elapsed":19620,"internal_node_id":"0.0-1.0","experiment":"validation","task_version":"2.0","jspsych_version":"6.3.1"},{"rt":48820.70000000298,"response":{"Q0":0,"Q3":0,"Q2":0,"Q8":0,"Q4":0,"Q7":0,"Q6":3,"Q5":3,"Q1":0},"question_order":[0,3,2,8,4,7,6,5,1],"survey":"sns","trial_type":"survey-likert","trial_index":2,"time_elapsed":68445,"internal_node_id":"0.0-2.0","experiment":"validation","task_version":"2.0","jspsych_version":"6.3.1","infrequency":0},{"responses":{"Q04":"1","Q03":"0","Q08":"0","Q05":"0","Q01":"0","Q02":"0","Q06":"0","Q09":"4","Q07":"2"},"rt":43393.90000000596,"item_order":[3,2,7,4,0,1,5,8,6],"radio_events":[6789.4000000059605,12483.90000000596,14248.40000000596,15770.300000011921,19911.40000000596,22178.30000001192,31793.70000000298,36258.30000001192,42506.30000001192],"key_events":[],"mouse_events":[6144.5,6789.4000000059605,9902.90000000596,12483.90000000596,14248.40000000596,15770.300000011921,18652.20000000298,19911.40000000596,20708.40000000596,22178.30000001192,31793.70000000298,35900.5,36258.30000001192,37065.80000001192,42506.30000001192,43392.80000001192],"straightlining":0.7777777777777778,"zigzagging":0.125,"honeypot":0,"survey":"pcf","trial_type":"survey-template","trial_index":3,"time_elapsed":111842,"internal_node_id":"0.0-3.0","experiment":"validation","task_version":"2.0","jspsych_version":"6.3.1","infrequency":0},{"responses":{"Q08":"2","Q04":"2","Q01":"2","Q03":"4","Q11":"0","Q07":"2","Q10":"2","Q02":"2","Q09":"0","Q05":"4","Q06":"2"},"rt":119883.40000000596,"item_order":[7,3,0,2,10,6,9,1,8,4,5],"radio_events":[4292.4000000059605,7279.600000008941,11601.40000000596,14440.300000011921,19836.30000001192,30844.20000000298,92479.10000000894,94664.40000000596,99100.20000000298,101237.80000001192,112941.40000000596,115268.90000000596,117224.40000000596,119181.30000001192],"key_events":[],"mouse_events":[4292.4000000059605,7279.600000008941,10258.90000000596,11601.40000000596,14440.300000011921,19836.30000001192,30844.20000000298,92479.10000000894,94664.40000000596,99100.20000000298,101237.80000001192,112941.40000000596,114735.40000000596,115268.90000000596,117224.40000000596,119181.30000001192,119882.40000000596],"straightlining":0.6363636363636364,"zigzagging":0,"honeypot":0,"survey":"nfc10","trial_type":"survey-template","trial_index":4,"time_elapsed":231727,"internal_node_id":"0.0-4.0","experiment":"validation","task_version":"2.0","jspsych_version":"6.3.1","infrequency":0},{"value":0,"trial_type":"call-function","trial_index":5,"time_elapsed":231728,"internal_node_id":"0.0-5.0","experiment":"validation","task_version":"2.0","jspsych_version":"6.3.1","interactions":"[]"}]