[{"view_history":[{"page_index":0,"viewing_time":1121.4000000059605}],"rt":1121.7000000178814,"trial_type":"instructions","trial_index":0,"time_elapsed":1150,"internal_node_id":"0.0-0.0","experiment":"validation","task_version":"2.0","jspsych_version":"6.3.1"},{"rt":11380.300000011921,"responses":{"age":"23","gender-categorical":"Rather not say","gender-free-response":"","ethnicity":"Rather not say","race":["Rather not say"],"education":"Rather not say"},"survey":"demographics","trial_type":"survey-demo","trial_index":1,"time_elapsed":12533,"internal_node_id":"0.0-1.0","experiment":"validation","task_version":"2.0","jspsych_version":"6.3.1"},{"responses":{"Q04":"1","Q07":"3","Q02":"2","Q06":"0","Q09":"4","Q08":"2","Q05":"0","Q01":"2","Q03":"1"},"rt":26838.80000001192,"item_order":[3,6,1,5,8,7,4,0,2],"radio_events":[6221.300000011921,8223.200000017881,10173.300000011921,11147.200000017881,12909.300000011921,15253.40000000596,18539.09999999404,22211.30000001192,23943.20000001788,26303.59999999404],"key_events":[],"mouse_events":[5363.5,6221.300000011921,8223.200000017881,10173.300000011921,10891.300000011921,11147.200000017881,12909.300000011921,15253.40000000596,18539.09999999404,20411.30000001192,22211.30000001192,23943.20000001788,25235.09999999404,26303.59999999404,26837.20000001788],"straightlining":0.3333333333333333,"zigzagging":0.25,"honeypot":0,"survey":"pcf","trial_type":"survey-template","trial_index":2,"time_elapsed":39375,"internal_node_id":"0.0-2.0","experiment":"validation","task_version":"2.0","jspsych_version":"6.3.1","infrequency":0},{"responses":{"Q08":"4","Q07":"3","Q02":"4","Q11":"0","Q03":"4","Q04":"4","Q09":"3","Q05":"4","Q01":"3","Q06":"4","Q10":"4"},"rt":53106.90000000596,"item_order":[7,6,1,10,2,3,8,4,0,5,9],"radio_events":[7419.300000011921,15911.300000011921,19135.30000001192,26521.20000001788,30859.20000001788,36937.20000001788,40231.20000001788,43433.20000001788,45343.20000001788,48195.20000001788,52069.20000001788],"key_events":[],"mouse_events":[7419.300000011921,15911.300000011921,19135.30000001192,25917.09999999404,26521.20000001788,30054.90000000596,30859.20000001788,36937.20000001788,40231.20000001788,43433.20000001788,45343.20000001788,47539.20000001788,47963.20000001788,48195.20000001788,50949.20000001788,52069.20000001788,53105.20000001788],"straightlining":0.36363636363636365,"zigzagging":0.4,"honeypot":0,"survey":"nfc10","trial_type":"survey-template","trial_index":3,"time_elapsed":92486,"internal_node_id":"0.0-3.0","experiment":"validation","task_version":"2.0","jspsych_version":"6.3.1","infrequency":0},{"rt":40543.80000001192,"response":{"Q5":5,"Q1":5,"Q6":0,"Q0":3,"Q3":5,"Q2":5,"Q4":5,"Q7":5,"Q8":0},"question_order":[5,1,6,0,3,2,4,7,8],"survey":"sns","trial_type":"survey-likert","trial_index":4,"time_elapsed":133034,"internal_node_id":"0.0-4.0","experiment":"validation","task_version":"2.0","jspsych_version":"6.3.1","infrequency":0},{"value":0,"trial_type":"call-function","trial_index":5,"time_elapsed":133036,"internal_node_id":"0.0-5.0","experiment":"validation","task_version":"2.0","jspsych_version":"6.3.1","interactions":"[]"}]