[{"view_history":[{"page_index":0,"viewing_time":5407.099999904633}],"rt":5407.599999904633,"trial_type":"instructions","trial_index":0,"time_elapsed":5433,"internal_node_id":"0.0-0.0","experiment":"validation","task_version":"2.0","jspsych_version":"6.3.1"},{"rt":21327.5,"responses":{"age":"19","gender-categorical":"Male","gender-free-response":"","ethnicity":"Not Hispanic or Latino","race":["White"],"education":"Some college"},"survey":"demographics","trial_type":"survey-demo","trial_index":1,"time_elapsed":26761,"internal_node_id":"0.0-1.0","experiment":"validation","task_version":"2.0","jspsych_version":"6.3.1"},{"responses":{"Q09":"3","Q03":"3","Q10":"4","Q07":"4","Q02":"3","Q06":"3","Q11":"0","Q05":"3","Q08":"3","Q01":"2","Q04":"3"},"rt":61659.199999928474,"item_order":[8,2,9,6,1,5,10,4,7,0,3],"radio_events":[6752.199999928474,8960,14245.699999928474,18546.099999904633,22138.899999976158,24109.799999952316,41948.89999997616,47125.5,50592.799999952316,52677,54068.5,57517.5],"key_events":[],"mouse_events":[6752.199999928474,8960,13789.599999904633,14245.699999928474,18243.199999928474,18546.099999904633,22138.899999976158,24109.799999952316,41948.89999997616,46652.5,47125.5,49795.799999952316,50592.799999952316,52677,54068.5,57517.5,61658.199999928474],"straightlining":0.36363636363636365,"zigzagging":0.4,"honeypot":0,"survey":"nfc10","trial_type":"survey-template","trial_index":2,"time_elapsed":88424,"internal_node_id":"0.0-2.0","experiment":"validation","task_version":"2.0","jspsych_version":"6.3.1","infrequency":0},{"rt":80115.29999995232,"response":{"Q7":4,"Q5":5,"Q2":4,"Q4":3,"Q1":3,"Q6":0,"Q8":0,"Q0":3,"Q3":3},"question_order":[7,5,2,4,1,6,8,0,3],"survey":"sns","trial_type":"survey-likert","trial_index":3,"time_elapsed":168542,"internal_node_id":"0.0-3.0","experiment":"validation","task_version":"2.0","jspsych_version":"6.3.1","infrequency":0},{"responses":{"Q08":"4","Q06":"3","Q02":"4","Q05":"4","Q04":"4","Q07":"4","Q09":"4","Q03":"4","Q01":"4"},"rt":161895.5,"item_order":[7,5,1,4,3,6,8,2,0],"radio_events":[14172.699999928474,129736.19999992847,133814.39999997616,135255.89999997616,138463.79999995232,144099.5,146847.89999997616,152683.39999997616,158144,160065.69999992847],"key_events":[],"mouse_events":[14172.699999928474,129418.79999995232,129736.19999992847,133014.29999995232,133492.19999992847,133814.39999997616,135255.89999997616,138463.79999995232,144099.5,146847.89999997616,152683.39999997616,158144,160065.69999992847,161894.5],"straightlining":0.7777777777777778,"zigzagging":0.5,"honeypot":0,"survey":"pcf","trial_type":"survey-template","trial_index":4,"time_elapsed":330440,"internal_node_id":"0.0-4.0","experiment":"validation","task_version":"2.0","jspsych_version":"6.3.1","infrequency":0},{"value":0,"trial_type":"call-function","trial_index":5,"time_elapsed":330441,"internal_node_id":"0.0-5.0","experiment":"validation","task_version":"2.0","jspsych_version":"6.3.1","interactions":"[{\"event\":\"focus\",\"trial\":0,\"time\":1281},{\"event\":\"blur\",\"trial\":1,\"time\":17014},{\"event\":\"focus\",\"trial\":1,\"time\":20329},{\"event\":\"blur\",\"trial\":2,\"time\":51937},{\"event\":\"focus\",\"trial\":2,\"time\":54354},{\"event\":\"blur\",\"trial\":2,\"time\":56934},{\"event\":\"focus\",\"trial\":2,\"time\":58996},{\"event\":\"blur\",\"trial\":2,\"time\":59701},{\"event\":\"focus\",\"trial\":2,\"time\":61374},{\"event\":\"blur\",\"trial\":3,\"time\":89689},{\"event\":\"focus\",\"trial\":3,\"time\":113366},{\"event\":\"blur\",\"trial\":4,\"time\":169648},{\"event\":\"focus\",\"trial\":4,\"time\":175117},{\"event\":\"blur\",\"trial\":4,\"time\":190238},{\"event\":\"focus\",\"trial\":4,\"time\":281008}]"}]