[{"view_history":[{"page_index":0,"viewing_time":3233.900000035763}],"rt":3234.100000023842,"trial_type":"instructions","trial_index":0,"time_elapsed":3275,"internal_node_id":"0.0-0.0","experiment":"validation","task_version":"2.0","jspsych_version":"6.3.1"},{"rt":10137.600000023842,"responses":{"age":"30","gender-categorical":"Female","gender-free-response":"","ethnicity":"Not Hispanic or Latino","race":["Asian"],"education":"Bachelor degree"},"survey":"demographics","trial_type":"survey-demo","trial_index":1,"time_elapsed":13415,"internal_node_id":"0.0-1.0","experiment":"validation","task_version":"2.0","jspsych_version":"6.3.1"},{"rt":33300.39999997616,"response":{"Q1":1,"Q2":2,"Q4":2,"Q0":3,"Q6":1,"Q7":2,"Q5":4,"Q3":2,"Q8":0},"question_order":[1,2,4,0,6,7,5,3,8],"survey":"sns","trial_type":"survey-likert","trial_index":2,"time_elapsed":46721,"internal_node_id":"0.0-2.0","experiment":"validation","task_version":"2.0","jspsych_version":"6.3.1","infrequency":0},{"responses":{"Q08":"2","Q06":"1","Q05":"2","Q09":"2","Q02":"2","Q01":"1","Q11":"0","Q07":"3","Q03":"2","Q10":"2","Q04":"1"},"rt":70551.5,"item_order":[7,5,4,8,1,0,10,6,2,9,3],"radio_events":[19977.200000047684,31513.30000001192,36696.200000047684,37938.90000003576,41533.30000001192,43472.80000001192,49323.30000001192,59291.200000047684,63225.30000001192,68534,69554.90000003576],"key_events":[],"mouse_events":[19197.200000047684,19977.200000047684,26743.5,31040.100000023842,31513.30000001192,33961.40000003576,36340.90000003576,36696.200000047684,37938.90000003576,41533.30000001192,43472.80000001192,49323.30000001192,58465.60000002384,59291.200000047684,63225.30000001192,68534,69554.90000003576,70549.30000001192],"straightlining":0.5454545454545454,"zigzagging":0.6,"honeypot":0,"survey":"nfc10","trial_type":"survey-template","trial_index":3,"time_elapsed":117278,"internal_node_id":"0.0-3.0","experiment":"validation","task_version":"2.0","jspsych_version":"6.3.1","infrequency":0},{"responses":{"Q05":"1","Q04":"1","Q02":"1","Q09":"4","Q01":"1","Q06":"1","Q07":"1","Q08":"1","Q03":"1"},"rt":60777.5,"item_order":[4,3,1,8,0,5,6,7,2],"radio_events":[34821,35252.39999997616,42299.89999997616,43837.89999997616,47238,48195.80000001192,50437.89999997616,54709.89999997616,55753.80000001192,59416.19999998808,59911.30000001192],"key_events":[],"mouse_events":[32748.099999964237,34821,35252.39999997616,42299.89999997616,43837.89999997616,46018.09999996424,47238,47802.59999996424,48195.80000001192,50437.89999997616,53976.09999996424,54709.89999997616,55753.80000001192,59416.19999998808,59911.30000001192,60775.80000001192],"straightlining":0.8888888888888888,"zigzagging":0.25,"honeypot":0,"survey":"pcf","trial_type":"survey-template","trial_index":4,"time_elapsed":178058,"internal_node_id":"0.0-4.0","experiment":"validation","task_version":"2.0","jspsych_version":"6.3.1","infrequency":0},{"value":0,"trial_type":"call-function","trial_index":5,"time_elapsed":178061,"internal_node_id":"0.0-5.0","experiment":"validation","task_version":"2.0","jspsych_version":"6.3.1","interactions":"[{\"event\":\"focus\",\"trial\":0,\"time\":1365},{\"event\":\"blur\",\"trial\":2,\"time\":15123},{\"event\":\"focus\",\"trial\":2,\"time\":18844},{\"event\":\"blur\",\"trial\":3,\"time\":47963},{\"event\":\"focus\",\"trial\":3,\"time\":62824},{\"event\":\"blur\",\"trial\":3,\"time\":67371},{\"event\":\"focus\",\"trial\":3,\"time\":68819},{\"event\":\"blur\",\"trial\":4,\"time\":118683},{\"event\":\"focus\",\"trial\":4,\"time\":139740},{\"event\":\"blur\",\"trial\":4,\"time\":140630},{\"event\":\"focus\",\"trial\":4,\"time\":145397}]"}]