[{"view_history":[{"page_index":0,"viewing_time":2087.7000000029802}],"rt":2088.2000000029802,"trial_type":"instructions","trial_index":0,"time_elapsed":2137,"internal_node_id":"0.0-0.0","experiment":"validation","task_version":"2.0","jspsych_version":"6.3.1"},{"rt":8297.59999999404,"responses":{"age":"47","gender-categorical":"Male","gender-free-response":"","ethnicity":"Not Hispanic or Latino","race":["White"],"education":"Bachelor degree"},"survey":"demographics","trial_type":"survey-demo","trial_index":1,"time_elapsed":10439,"internal_node_id":"0.0-1.0","experiment":"validation","task_version":"2.0","jspsych_version":"6.3.1"},{"rt":40425.29999999702,"response":{"Q7":5,"Q3":4,"Q5":1,"Q4":4,"Q1":4,"Q6":1,"Q8":0,"Q0":4,"Q2":4},"question_order":[7,3,5,4,1,6,8,0,2],"survey":"sns","trial_type":"survey-likert","trial_index":2,"time_elapsed":50869,"internal_node_id":"0.0-2.0","experiment":"validation","task_version":"2.0","jspsych_version":"6.3.1","infrequency":0},{"responses":{"Q04":"0","Q11":"0","Q10":"1","Q08":"1","Q09":"0","Q03":"2","Q05":"1","Q02":"1","Q01":"1","Q07":"3","Q06":"0"},"rt":99601.5,"item_order":[3,10,9,7,8,2,4,1,0,6,5],"radio_events":[58074.70000000298,63724,69794.29999999702,74267.79999999702,75597,76922.90000000596,79364.40000000596,84555.5,88946.70000000298,90235.5,94523.79999999702,97083.20000000298,98923.40000000596],"key_events":[],"mouse_events":[58074.70000000298,63724,69059.70000000298,69794.29999999702,73570.29999999702,74267.79999999702,75597,76922.90000000596,79364.40000000596,84555.5,88443.20000000298,88946.70000000298,90235.5,94075,94523.79999999702,97083.20000000298,98923.40000000596,99596.10000000894],"straightlining":0.36363636363636365,"zigzagging":0.4,"honeypot":0,"survey":"nfc10","trial_type":"survey-template","trial_index":3,"time_elapsed":150480,"internal_node_id":"0.0-3.0","experiment":"validation","task_version":"2.0","jspsych_version":"6.3.1","infrequency":0},{"responses":{"Q01":"4","Q04":"4","Q09":"4","Q03":"4","Q05":"3","Q02":"4","Q06":"4","Q08":"4","Q07":"3"},"rt":90542.40000000596,"item_order":[0,3,8,2,4,1,5,7,6],"radio_events":[68922.5,71458.29999999702,73338.10000000894,78145.10000000894,81184.5,82474.10000000894,84642.20000000298,89027.5,89785.5],"key_events":[],"mouse_events":[68922.5,71458.29999999702,73338.10000000894,76977.90000000596,78145.10000000894,78754.10000000894,79370.60000000894,81184.5,82474.10000000894,84642.20000000298,85785.20000000298,86409.70000000298,87625.29999999702,88137.20000000298,89027.5,89785.5,90539.40000000596],"straightlining":0.6666666666666666,"zigzagging":0.625,"honeypot":0,"survey":"pcf","trial_type":"survey-template","trial_index":4,"time_elapsed":241030,"internal_node_id":"0.0-4.0","experiment":"validation","task_version":"2.0","jspsych_version":"6.3.1","infrequency":0},{"value":0,"trial_type":"call-function","trial_index":5,"time_elapsed":241035,"internal_node_id":"0.0-5.0","experiment":"validation","task_version":"2.0","jspsych_version":"6.3.1","interactions":"[{\"event\":\"blur\",\"trial\":3,\"time\":53508},{\"event\":\"focus\",\"trial\":3,\"time\":100557},{\"event\":\"blur\",\"trial\":4,\"time\":152490},{\"event\":\"focus\",\"trial\":4,\"time\":214415}]"}]