[{"view_history":[{"page_index":0,"viewing_time":2686.2000000029802}],"rt":2686.5,"trial_type":"instructions","trial_index":0,"time_elapsed":2707,"internal_node_id":"0.0-0.0","experiment":"validation","task_version":"2.0","jspsych_version":"6.3.1"},{"rt":14500.10000000149,"responses":{"age":"65","gender-categorical":"Male","gender-free-response":"","ethnicity":"Not Hispanic or Latino","race":["White"],"education":"Master degree or higher"},"survey":"demographics","trial_type":"survey-demo","trial_index":1,"time_elapsed":17209,"internal_node_id":"0.0-1.0","experiment":"validation","task_version":"2.0","jspsych_version":"6.3.1"},{"responses":{"Q08":"3","Q05":"2","Q04":"1","Q03":"1","Q11":"0","Q07":"3","Q01":"1","Q06":"2","Q10":"2","Q02":"1","Q09":"1"},"rt":96881.19999999553,"item_order":[7,4,3,2,10,6,0,5,9,1,8],"radio_events":[8176.89999999851,14296.89999999851,40233.89999999851,42421.29999999702,47839.39999999851,53623.69999999553,63586.19999999553,68646.79999999702,74903.59999999404,84210.5,89246.89999999851,94657.79999999702],"key_events":[],"mouse_events":[8176.89999999851,14296.89999999851,39689.59999999404,40233.89999999851,42421.29999999702,47839.39999999851,53623.69999999553,62904.79999999702,63586.19999999553,67959.19999999553,68646.79999999702,72928.39999999851,74903.59999999404,84210.5,89246.89999999851,94657.79999999702,96879.79999999702],"straightlining":0.36363636363636365,"zigzagging":0.4,"honeypot":0,"survey":"nfc10","trial_type":"survey-template","trial_index":2,"time_elapsed":114100,"internal_node_id":"0.0-2.0","experiment":"validation","task_version":"2.0","jspsych_version":"6.3.1","infrequency":0},{"rt":46106.70000000298,"response":{"Q4":3,"Q8":0,"Q0":4,"Q5":3,"Q6":0,"Q7":5,"Q3":5,"Q1":5,"Q2":5},"question_order":[4,8,0,5,6,7,3,1,2],"survey":"sns","trial_type":"survey-likert","trial_index":3,"time_elapsed":160215,"internal_node_id":"0.0-3.0","experiment":"validation","task_version":"2.0","jspsych_version":"6.3.1","infrequency":0},{"responses":{"Q04":"1","Q07":"3","Q01":"2","Q03":"3","Q05":"2","Q08":"4","Q09":"4","Q02":"3","Q06":"2"},"rt":36550.89999999851,"item_order":[3,6,0,2,4,7,8,1,5],"radio_events":[8158.89999999851,11466.19999999553,12092.69999999553,17299.10000000149,20211.5,23279.39999999851,25754.19999999553,30779.79999999702,35693.89999999851],"key_events":[],"mouse_events":[8158.89999999851,9962.10000000149,11466.19999999553,12092.69999999553,17299.10000000149,20211.5,23279.39999999851,25754.19999999553,30779.79999999702,34584.79999999702,35693.89999999851,36550.10000000149],"straightlining":0.3333333333333333,"zigzagging":0.625,"honeypot":0,"survey":"pcf","trial_type":"survey-template","trial_index":4,"time_elapsed":196772,"internal_node_id":"0.0-4.0","experiment":"validation","task_version":"2.0","jspsych_version":"6.3.1","infrequency":0},{"value":0,"trial_type":"call-function","trial_index":5,"time_elapsed":196778,"internal_node_id":"0.0-5.0","experiment":"validation","task_version":"2.0","jspsych_version":"6.3.1","interactions":"[]"}]