[{"view_history":[{"page_index":0,"viewing_time":5680.4000000003725}],"rt":5681.9000000003725,"trial_type":"instructions","trial_index":0,"time_elapsed":5734,"internal_node_id":"0.0-0.0","experiment":"validation","task_version":"2.0","jspsych_version":"6.3.1"},{"rt":11763.5,"responses":{"age":"35","gender-categorical":"Male","gender-free-response":"","ethnicity":"Hispanic or Latino","race":["Black or African American"],"education":"Bachelor degree"},"survey":"demographics","trial_type":"survey-demo","trial_index":1,"time_elapsed":17503,"internal_node_id":"0.0-1.0","experiment":"validation","task_version":"2.0","jspsych_version":"6.3.1"},{"rt":53912.59999999963,"response":{"Q0":4,"Q8":0,"Q4":3,"Q6":2,"Q1":4,"Q3":4,"Q5":3,"Q2":4,"Q7":4},"question_order":[0,8,4,6,1,3,5,2,7],"survey":"sns","trial_type":"survey-likert","trial_index":2,"time_elapsed":71428,"internal_node_id":"0.0-2.0","experiment":"validation","task_version":"2.0","jspsych_version":"6.3.1","infrequency":0},{"responses":{"Q05":"3","Q07":"3","Q09":"3","Q03":"3","Q01":"3","Q11":"0","Q08":"3","Q02":"2","Q10":"3","Q06":"2","Q04":"3"},"rt":68829.09999999963,"item_order":[4,6,8,2,0,10,7,1,9,5,3],"radio_events":[11213.800000000745,15967.900000000373,18817.300000000745,21430.800000000745,28202.800000000745,32535.400000000373,38337.40000000037,47849.800000000745,49855.59999999963,52524.300000000745,59397,67082.30000000075],"key_events":[],"mouse_events":[11213.800000000745,15967.900000000373,18817.300000000745,21430.800000000745,23199.599999999627,28202.800000000745,32535.400000000373,38337.40000000037,47849.800000000745,49855.59999999963,52524.300000000745,59397,61628.40000000037,67082.30000000075,68821.70000000112],"straightlining":0.45454545454545453,"zigzagging":0.4,"honeypot":0,"survey":"nfc10","trial_type":"survey-template","trial_index":3,"time_elapsed":140268,"internal_node_id":"0.0-3.0","experiment":"validation","task_version":"2.0","jspsych_version":"6.3.1","infrequency":0},{"responses":{"Q01":"3","Q02":"3","Q04":"3","Q08":"3","Q07":"4","Q05":"2","Q09":"4","Q03":"3","Q06":"3"},"rt":53830.699999999255,"item_order":[0,1,3,7,6,4,8,2,5],"radio_events":[4320.699999999255,7933.39999999851,17265.89999999851,19047.599999999627,20735.699999999255,22706.699999999255,26735.39999999851,34066.09999999963,40999.79999999888,43099.09999999963,49737],"key_events":[],"mouse_events":[4320.699999999255,7933.39999999851,10279.39999999851,17265.89999999851,19047.599999999627,20735.699999999255,22706.699999999255,26735.39999999851,34066.09999999963,37594.39999999851,40999.79999999888,43099.09999999963,44192.5,49737,53824.79999999888],"straightlining":0.6666666666666666,"zigzagging":0.125,"honeypot":0,"survey":"pcf","trial_type":"survey-template","trial_index":4,"time_elapsed":194104,"internal_node_id":"0.0-4.0","experiment":"validation","task_version":"2.0","jspsych_version":"6.3.1","infrequency":0},{"value":0,"trial_type":"call-function","trial_index":5,"time_elapsed":194107,"internal_node_id":"0.0-5.0","experiment":"validation","task_version":"2.0","jspsych_version":"6.3.1","interactions":"[]"}]