[{"view_history":[{"page_index":0,"viewing_time":11537}],"rt":11538,"trial_type":"instructions","trial_index":0,"time_elapsed":11547,"internal_node_id":"0.0-0.0","experiment":"validation","task_version":"2.0","jspsych_version":"6.3.1"},{"rt":43077,"responses":{"age":"39","gender-categorical":"Male","gender-free-response":"","ethnicity":"Not Hispanic or Latino","race":["White"],"education":"Bachelor degree"},"survey":"demographics","trial_type":"survey-demo","trial_index":1,"time_elapsed":54631,"internal_node_id":"0.0-1.0","experiment":"validation","task_version":"2.0","jspsych_version":"6.3.1"},{"rt":342334,"response":{"Q4":4,"Q7":3,"Q2":4,"Q1":4,"Q0":4,"Q3":4,"Q6":2,"Q5":2,"Q8":0},"question_order":[4,7,2,1,0,3,6,5,8],"survey":"sns","trial_type":"survey-likert","trial_index":2,"time_elapsed":396971,"internal_node_id":"0.0-2.0","experiment":"validation","task_version":"2.0","jspsych_version":"6.3.1","infrequency":0},{"responses":{"Q04":"3","Q03":"3","Q02":"4","Q05":"4","Q01":"4","Q06":"4","Q08":"4","Q09":"0","Q07":"3"},"rt":263409,"item_order":[3,2,1,4,0,5,7,8,6],"radio_events":[54817,91793,125008,137352,144072,148184,162880,209303,243479,248735,254791],"key_events":[122951,133152,142009],"mouse_events":[24888,54817,57273,69032,89200,91152,91793,125008,136752,137352,144072,148184,160704,161959,162880,167096,191831,207199,208503,209303,242119,243479,248031,248735,253599,254791,263409],"straightlining":0.6666666666666666,"zigzagging":0.25,"honeypot":0,"survey":"pcf","trial_type":"survey-template","trial_index":3,"time_elapsed":660385,"internal_node_id":"0.0-3.0","experiment":"validation","task_version":"2.0","jspsych_version":"6.3.1","infrequency":1},{"responses":{"Q06":"3","Q05":"3","Q02":"3","Q11":"0","Q07":"3","Q10":"3","Q03":"3","Q04":"3","Q01":"3","Q08":"3","Q09":"3"},"rt":330705,"item_order":[5,4,1,10,6,9,2,3,0,7,8],"radio_events":[28760,49721,86553,103304,118696,155535,236935,278406,289791,308142,321751],"key_events":[],"mouse_events":[15097,28760,49721,53897,86553,100112,103304,117160,118696,128863,155535,169311,171016,212519,235551,236935,267847,277135,278406,289791,303062,308142,320479,321046,321751,330705],"straightlining":0.6363636363636364,"zigzagging":0,"honeypot":0,"survey":"nfc10","trial_type":"survey-template","trial_index":4,"time_elapsed":991095,"internal_node_id":"0.0-4.0","experiment":"validation","task_version":"2.0","jspsych_version":"6.3.1","infrequency":0},{"value":1,"trial_type":"call-function","trial_index":5,"time_elapsed":991097,"internal_node_id":"0.0-5.0","experiment":"validation","task_version":"2.0","jspsych_version":"6.3.1","interactions":"[{\"event\":\"focus\",\"trial\":0,\"time\":3},{\"event\":\"blur\",\"trial\":0,\"time\":6436},{\"event\":\"focus\",\"trial\":0,\"time\":8064},{\"event\":\"blur\",\"trial\":1,\"time\":45577},{\"event\":\"focus\",\"trial\":1,\"time\":47821},{\"event\":\"blur\",\"trial\":2,\"time\":68973},{\"event\":\"focus\",\"trial\":2,\"time\":91574},{\"event\":\"blur\",\"trial\":2,\"time\":98444},{\"event\":\"focus\",\"trial\":2,\"time\":110236},{\"event\":\"blur\",\"trial\":2,\"time\":132299},{\"event\":\"focus\",\"trial\":2,\"time\":138296},{\"event\":\"blur\",\"trial\":2,\"time\":149407},{\"event\":\"focus\",\"trial\":2,\"time\":169172},{\"event\":\"blur\",\"trial\":2,\"time\":169966},{\"event\":\"focus\",\"trial\":2,\"time\":172312},{\"event\":\"blur\",\"trial\":2,\"time\":182866},{\"event\":\"focus\",\"trial\":2,\"time\":233586},{\"event\":\"blur\",\"trial\":2,\"time\":245402},{\"event\":\"focus\",\"trial\":2,\"time\":263356},{\"event\":\"blur\",\"trial\":2,\"time\":283746},{\"event\":\"focus\",\"trial\":2,\"time\":305558},{\"event\":\"blur\",\"trial\":2,\"time\":314402},{\"event\":\"focus\",\"trial\":2,\"time\":339889},{\"event\":\"blur\",\"trial\":2,\"time\":393476},{\"event\":\"focus\",\"trial\":2,\"time\":395210},{\"event\":\"blur\",\"trial\":3,\"time\":425060},{\"event\":\"focus\",\"trial\":3,\"time\":451689},{\"event\":\"blur\",\"trial\":3,\"time\":456059},{\"event\":\"focus\",\"trial\":3,\"time\":465920},{\"event\":\"blur\",\"trial\":3,\"time\":468617},{\"event\":\"focus\",\"trial\":3,\"time\":486086},{\"event\":\"blur\",\"trial\":3,\"time\":492162},{\"event\":\"focus\",\"trial\":3,\"time\":494801},{\"event\":\"blur\",\"trial\":3,\"time\":498762},{\"event\":\"focus\",\"trial\":3,\"time\":519813},{\"event\":\"blur\",\"trial\":3,\"time\":524007},{\"event\":\"focus\",\"trial\":3,\"time\":530046},{\"event\":\"blur\",\"trial\":3,\"time\":536026},{\"event\":\"focus\",\"trial\":3,\"time\":538839},{\"event\":\"blur\",\"trial\":3,\"time\":550353},{\"event\":\"focus\",\"trial\":3,\"time\":557576},{\"event\":\"blur\",\"trial\":3,\"time\":566249},{\"event\":\"focus\",\"trial\":3,\"time\":569338},{\"event\":\"blur\",\"trial\":3,\"time\":569989},{\"event\":\"focus\",\"trial\":3,\"time\":588673},{\"event\":\"blur\",\"trial\":3,\"time\":594350},{\"event\":\"focus\",\"trial\":3,\"time\":604008},{\"event\":\"blur\",\"trial\":3,\"time\":609040},{\"event\":\"focus\",\"trial\":3,\"time\":638907},{\"event\":\"blur\",\"trial\":3,\"time\":648424},{\"event\":\"focus\",\"trial\":3,\"time\":650433},{\"event\":\"blur\",\"trial\":3,\"time\":657038},{\"event\":\"focus\",\"trial\":3,\"time\":658695},{\"event\":\"blur\",\"trial\":4,\"time\":677393},{\"event\":\"focus\",\"trial\":4,\"time\":678361},{\"event\":\"blur\",\"trial\":4,\"time\":678864},{\"event\":\"focus\",\"trial\":4,\"time\":689038},{\"event\":\"blur\",\"trial\":4,\"time\":690941},{\"event\":\"focus\",\"trial\":4,\"time\":710022},{\"event\":\"blur\",\"trial\":4,\"time\":716047},{\"event\":\"focus\",\"trial\":4,\"time\":733790},{\"event\":\"blur\",\"trial\":4,\"time\":738655},{\"event\":\"focus\",\"trial\":4,\"time\":746848},{\"event\":\"blur\",\"trial\":4,\"time\":750195},{\"event\":\"focus\",\"trial\":4,\"time\":760405},{\"event\":\"blur\",\"trial\":4,\"time\":768127},{\"event\":\"focus\",\"trial\":4,\"time\":777460},{\"event\":\"blur\",\"trial\":4,\"time\":781015},{\"event\":\"focus\",\"trial\":4,\"time\":789166},{\"event\":\"blur\",\"trial\":4,\"time\":792527},{\"event\":\"focus\",\"trial\":4,\"time\":815783},{\"event\":\"blur\",\"trial\":4,\"time\":836032},{\"event\":\"focus\",\"trial\":4,\"time\":837775},{\"event\":\"blur\",\"trial\":4,\"time\":838343},{\"event\":\"focus\",\"trial\":4,\"time\":872690},{\"event\":\"blur\",\"trial\":4,\"time\":884862},{\"event\":\"focus\",\"trial\":4,\"time\":886759},{\"event\":\"blur\",\"trial\":4,\"time\":892167},{\"event\":\"focus\",\"trial\":4,\"time\":895808},{\"event\":\"blur\",\"trial\":4,\"time\":900692},{\"event\":\"focus\",\"trial\":4,\"time\":928092},{\"event\":\"blur\",\"trial\":4,\"time\":945445},{\"event\":\"focus\",\"trial\":4,\"time\":950069},{\"event\":\"blur\",\"trial\":4,\"time\":954549},{\"event\":\"focus\",\"trial\":4,\"time\":963310},{\"event\":\"blur\",\"trial\":4,\"time\":973078},{\"event\":\"focus\",\"trial\":4,\"time\":980783},{\"event\":\"blur\",\"trial\":4,\"time\":988236},{\"event\":\"focus\",\"trial\":4,\"time\":989633}]"}]