[{"view_history":[{"page_index":0,"viewing_time":6807.099999964237}],"rt":6807.699999988079,"trial_type":"instructions","trial_index":0,"time_elapsed":6821,"internal_node_id":"0.0-0.0","experiment":"validation","task_version":"2.0","jspsych_version":"6.3.1"},{"rt":11609.599999964237,"responses":{"age":"53","gender-categorical":"Female","gender-free-response":"","ethnicity":"Not Hispanic or Latino","race":["White"],"education":"Master degree or higher"},"survey":"demographics","trial_type":"survey-demo","trial_index":1,"time_elapsed":18433,"internal_node_id":"0.0-1.0","experiment":"validation","task_version":"2.0","jspsych_version":"6.3.1"},{"responses":{"Q03":"3","Q02":"3","Q07":"3","Q08":"3","Q01":"3","Q09":"4","Q05":"3","Q06":"3","Q04":"3"},"rt":25455,"item_order":[2,1,6,7,0,8,4,5,3],"radio_events":[6505.300000011921,11472,12588.199999988079,13685.699999988079,14909.399999976158,18811.80000001192,20736.600000023842,22000.100000023842,24033.899999976158],"key_events":[],"mouse_events":[5175.699999988079,6505.300000011921,10405.899999976158,11472,12588.199999988079,13685.699999988079,14909.399999976158,17423.5,18811.80000001192,20736.600000023842,22000.100000023842,24033.899999976158,25452.899999976158],"straightlining":0.8888888888888888,"zigzagging":0,"honeypot":0,"survey":"pcf","trial_type":"survey-template","trial_index":2,"time_elapsed":43892,"internal_node_id":"0.0-2.0","experiment":"validation","task_version":"2.0","jspsych_version":"6.3.1","infrequency":0},{"responses":{"Q07":"4","Q09":"3","Q01":"3","Q11":"0","Q03":"4","Q10":"3","Q08":"3","Q06":"3","Q05":"4","Q04":"4","Q02":"4"},"rt":41571.30000001192,"item_order":[6,8,0,10,2,9,7,5,4,3,1],"radio_events":[2733.400000035763,5307.300000011921,6442,8095.900000035763,11036.200000047684,13631,15087.100000023842,16110.900000035763,20274.30000001192,25256,27316],"key_events":[],"mouse_events":[2733.400000035763,4185.200000047684,5307.300000011921,6442,8095.900000035763,11036.200000047684,13631,15087.100000023842,16110.900000035763,17053.900000035763,20274.30000001192,21717.5,23611.80000001192,24430.400000035763,25256,27316,41569.700000047684],"straightlining":0.45454545454545453,"zigzagging":0.2,"honeypot":0,"survey":"nfc10","trial_type":"survey-template","trial_index":3,"time_elapsed":85466,"internal_node_id":"0.0-3.0","experiment":"validation","task_version":"2.0","jspsych_version":"6.3.1","infrequency":0},{"rt":31595.5,"response":{"Q6":1,"Q2":4,"Q1":4,"Q7":4,"Q5":4,"Q4":4,"Q3":5,"Q0":4,"Q8":0},"question_order":[6,2,1,7,5,4,3,0,8],"survey":"sns","trial_type":"survey-likert","trial_index":4,"time_elapsed":117065,"internal_node_id":"0.0-4.0","experiment":"validation","task_version":"2.0","jspsych_version":"6.3.1","infrequency":0},{"value":0,"trial_type":"call-function","trial_index":5,"time_elapsed":117068,"internal_node_id":"0.0-5.0","experiment":"validation","task_version":"2.0","jspsych_version":"6.3.1","interactions":"[{\"event\":\"blur\",\"trial\":3,\"time\":72934},{\"event\":\"focus\",\"trial\":3,\"time\":83731}]"}]