[{"view_history":[{"page_index":0,"viewing_time":9174.30000000447}],"rt":9175.10000000149,"trial_type":"instructions","trial_index":0,"time_elapsed":9204,"internal_node_id":"0.0-0.0","experiment":"validation","task_version":"2.0","jspsych_version":"6.3.1"},{"rt":16404.89999999851,"responses":{"age":"39","gender-categorical":"Male","gender-free-response":"","ethnicity":"Not Hispanic or Latino","race":["White"],"education":"Bachelor degree"},"survey":"demographics","trial_type":"survey-demo","trial_index":1,"time_elapsed":25613,"internal_node_id":"0.0-1.0","experiment":"validation","task_version":"2.0","jspsych_version":"6.3.1"},{"rt":146938.5,"response":{"Q8":0,"Q7":3,"Q6":0,"Q1":5,"Q0":4,"Q3":5,"Q2":4,"Q4":4,"Q5":5},"question_order":[8,7,6,1,0,3,2,4,5],"survey":"sns","trial_type":"survey-likert","trial_index":2,"time_elapsed":172557,"internal_node_id":"0.0-2.0","experiment":"validation","task_version":"2.0","jspsych_version":"6.3.1","infrequency":0},{"responses":{"Q05":"4","Q10":"2","Q08":"4","Q01":"2","Q03":"2","Q02":"2","Q06":"3","Q07":"4","Q09":"3","Q11":"0","Q04":"1"},"rt":175938.1000000015,"item_order":[4,9,7,0,2,1,5,6,8,10,3],"radio_events":[36281.29999999702,62001.39999999851,62969.39999999851,65697.39999999851,97849.29999999702,98313,98849,122856.79999999702,123544.60000000149,145184.5,146312.5,174784.20000000298],"key_events":[],"mouse_events":[8089.79999999702,30009.70000000298,36281.29999999702,40137.29999999702,59817.39999999851,62001.39999999851,62969.39999999851,65697.39999999851,74289.10000000149,94921.20000000298,96081,96449.89999999851,96769.79999999702,97849.29999999702,98313,98849,103848.70000000298,121768.89999999851,122856.79999999702,123544.60000000149,130064.5,145184.5,146312.5,147464.5,150520.3999999985,172816.20000000298,174784.20000000298,175936.3999999985],"straightlining":0.36363636363636365,"zigzagging":0.3,"honeypot":0,"survey":"nfc10","trial_type":"survey-template","trial_index":3,"time_elapsed":348500,"internal_node_id":"0.0-3.0","experiment":"validation","task_version":"2.0","jspsych_version":"6.3.1","infrequency":0},{"responses":{"Q01":"4","Q05":"4","Q02":"4","Q04":"4","Q07":"4","Q03":"2","Q09":"4","Q06":"2","Q08":"4"},"rt":103370,"item_order":[0,4,1,3,6,2,8,5,7],"radio_events":[4945.79999999702,11337.5,15985.60000000149,26250.19999999553,31265.69999999553,48537.39999999851,52841.19999999553,84896.79999999702,100768.89999999851],"key_events":[],"mouse_events":[4945.79999999702,11337.5,15985.60000000149,26250.19999999553,31265.69999999553,35649.29999999702,46553.60000000149,47601.10000000149,48537.39999999851,52841.19999999553,65696.89999999851,81329.19999999553,84896.79999999702,85792.89999999851,90416.69999999553,100768.89999999851,101216.79999999702,103368.69999999553],"straightlining":0.6666666666666666,"zigzagging":0,"honeypot":0,"survey":"pcf","trial_type":"survey-template","trial_index":4,"time_elapsed":451874,"internal_node_id":"0.0-4.0","experiment":"validation","task_version":"2.0","jspsych_version":"6.3.1","infrequency":0},{"value":0,"trial_type":"call-function","trial_index":5,"time_elapsed":451876,"internal_node_id":"0.0-5.0","experiment":"validation","task_version":"2.0","jspsych_version":"6.3.1","interactions":"[{\"event\":\"blur\",\"trial\":2,\"time\":41521},{\"event\":\"focus\",\"trial\":2,\"time\":51245},{\"event\":\"blur\",\"trial\":2,\"time\":62488},{\"event\":\"focus\",\"trial\":2,\"time\":73503},{\"event\":\"blur\",\"trial\":2,\"time\":101224},{\"event\":\"focus\",\"trial\":2,\"time\":104678},{\"event\":\"blur\",\"trial\":2,\"time\":112980},{\"event\":\"focus\",\"trial\":2,\"time\":122646},{\"event\":\"blur\",\"trial\":2,\"time\":131287},{\"event\":\"focus\",\"trial\":2,\"time\":139204},{\"event\":\"blur\",\"trial\":2,\"time\":157799},{\"event\":\"focus\",\"trial\":2,\"time\":169246},{\"event\":\"blur\",\"trial\":3,\"time\":183079},{\"event\":\"focus\",\"trial\":3,\"time\":201988},{\"event\":\"blur\",\"trial\":3,\"time\":214951},{\"event\":\"focus\",\"trial\":3,\"time\":231025},{\"event\":\"blur\",\"trial\":3,\"time\":249318},{\"event\":\"focus\",\"trial\":3,\"time\":266933},{\"event\":\"blur\",\"trial\":3,\"time\":278285},{\"event\":\"focus\",\"trial\":3,\"time\":293765},{\"event\":\"blur\",\"trial\":3,\"time\":304398},{\"event\":\"focus\",\"trial\":3,\"time\":315037},{\"event\":\"blur\",\"trial\":3,\"time\":325883},{\"event\":\"focus\",\"trial\":3,\"time\":343987},{\"event\":\"blur\",\"trial\":4,\"time\":386045},{\"event\":\"focus\",\"trial\":4,\"time\":394505},{\"event\":\"blur\",\"trial\":4,\"time\":416004},{\"event\":\"focus\",\"trial\":4,\"time\":429213},{\"event\":\"blur\",\"trial\":4,\"time\":440865},{\"event\":\"focus\",\"trial\":4,\"time\":448242}]"}]