[{"view_history":[{"page_index":0,"viewing_time":4352.76999999769}],"rt":4353.86999999173,"trial_type":"instructions","trial_index":0,"time_elapsed":4381,"internal_node_id":"0.0-0.0","experiment":"validation","task_version":"2.0","jspsych_version":"6.3.1"},{"rt":23042.849999997998,"responses":{"age":"38","gender-categorical":"Male","gender-free-response":"","ethnicity":"Not Hispanic or Latino","race":["White"],"education":"Bachelor degree"},"survey":"demographics","trial_type":"survey-demo","trial_index":1,"time_elapsed":27427,"internal_node_id":"0.0-1.0","experiment":"validation","task_version":"2.0","jspsych_version":"6.3.1"},{"rt":48820.90999999491,"response":{"Q1":4,"Q7":4,"Q4":4,"Q5":4,"Q2":5,"Q3":5,"Q6":1,"Q8":0,"Q0":4},"question_order":[1,7,4,5,2,3,6,8,0],"survey":"sns","trial_type":"survey-likert","trial_index":2,"time_elapsed":76255,"internal_node_id":"0.0-2.0","experiment":"validation","task_version":"2.0","jspsych_version":"6.3.1","infrequency":0},{"responses":{"Q10":"3","Q03":"3","Q08":"3","Q06":"3","Q04":"2","Q07":"3","Q05":"3","Q02":"3","Q01":"2","Q11":"0","Q09":"1"},"rt":51801.049999994575,"item_order":[9,2,7,5,3,6,4,1,0,10,8],"radio_events":[7964.059999998426,9475.93999998935,12392.654999988736,16248.175000000629,20078.324999994948,21523.91999999236,29334.05999999377,36055.99500000244,36966.81499999249,41073.474999997416,46380.26499999978,49552.20499999996,50854.27999999956],"key_events":[],"mouse_events":[7964.059999998426,9475.93999998935,11888.265000001411,12392.654999988736,13128.129999997327,16248.175000000629,17470.2249999973,20078.324999994948,21106.074999988778,21523.91999999236,28836.49499999592,29334.05999999377,32858.86999999639,33326.820000002044,35040.574999991804,35701.224999997066,36055.99500000244,36966.81499999249,41073.474999997416,46380.26499999978,49552.20499999996,50366.84499999683,50854.27999999956,51798.21500000253],"straightlining":0.45454545454545453,"zigzagging":0.4,"honeypot":0,"survey":"nfc10","trial_type":"survey-template","trial_index":3,"time_elapsed":128062,"internal_node_id":"0.0-3.0","experiment":"validation","task_version":"2.0","jspsych_version":"6.3.1","infrequency":0},{"responses":{"Q06":"3","Q05":"3","Q08":"3","Q09":"4","Q07":"3","Q03":"3","Q01":"3","Q04":"3","Q02":"3"},"rt":31374.465000000782,"item_order":[5,4,7,8,6,2,0,3,1],"radio_events":[6276.955000008456,9362.785000004806,10198.700000008103,12164.595000009285,16573.304999998072,19108.390000008512,25009.050000007846,26124.830000000657,27904.645000002347,29784.92499999993],"key_events":[],"mouse_events":[6276.955000008456,7562.590000001364,8784.155000001192,9362.785000004806,10198.700000008103,11383.874999999534,12164.595000009285,16573.304999998072,18601.16000000562,19108.390000008512,25009.050000007846,26124.830000000657,27904.645000002347,29784.92499999993,31372.92000000889],"straightlining":0.8888888888888888,"zigzagging":0,"honeypot":0,"survey":"pcf","trial_type":"survey-template","trial_index":4,"time_elapsed":159440,"internal_node_id":"0.0-4.0","experiment":"validation","task_version":"2.0","jspsych_version":"6.3.1","infrequency":0},{"value":0,"trial_type":"call-function","trial_index":5,"time_elapsed":159442,"internal_node_id":"0.0-5.0","experiment":"validation","task_version":"2.0","jspsych_version":"6.3.1","interactions":"[{\"event\":\"blur\",\"trial\":1,\"time\":10746},{\"event\":\"focus\",\"trial\":1,\"time\":16208}]"}]