[{"view_history":[{"page_index":0,"viewing_time":2741}],"rt":2741.5,"trial_type":"instructions","trial_index":0,"time_elapsed":2761,"internal_node_id":"0.0-0.0","experiment":"validation","task_version":"2.0","jspsych_version":"6.3.1"},{"rt":23824.20000000298,"responses":{"age":"31","gender-categorical":"Male","gender-free-response":"","ethnicity":"Not Hispanic or Latino","race":["Asian","Black or African American"],"education":"Bachelor degree"},"survey":"demographics","trial_type":"survey-demo","trial_index":1,"time_elapsed":26588,"internal_node_id":"0.0-1.0","experiment":"validation","task_version":"2.0","jspsych_version":"6.3.1"},{"responses":{"Q09":"4","Q03":"4","Q07":"3","Q04":"4","Q08":"4","Q01":"4","Q02":"4","Q05":"3","Q06":"4"},"rt":30684.60000000894,"item_order":[8,2,6,3,7,0,1,4,5],"radio_events":[4013.1000000089407,5631,11170.79999999702,12657.10000000894,13473.79999999702,16699.10000000894,18332.90000000596,22150.79999999702,22758.90000000596,25278.90000000596,26224.79999999702,27506.79999999702],"key_events":[],"mouse_events":[4013.1000000089407,5631,11170.79999999702,12657.10000000894,13473.79999999702,16699.10000000894,18332.90000000596,19470.10000000894,20043,21269,22150.79999999702,22758.90000000596,23592.90000000596,25278.90000000596,26224.79999999702,27506.79999999702,30682.5],"straightlining":0.6666666666666666,"zigzagging":0.625,"honeypot":0,"survey":"pcf","trial_type":"survey-template","trial_index":2,"time_elapsed":57278,"internal_node_id":"0.0-2.0","experiment":"validation","task_version":"2.0","jspsych_version":"6.3.1","infrequency":0},{"rt":34981.69999998808,"response":{"Q4":4,"Q3":3,"Q1":2,"Q0":2,"Q6":1,"Q7":4,"Q8":0,"Q5":2,"Q2":2},"question_order":[4,3,1,0,6,7,8,5,2],"survey":"sns","trial_type":"survey-likert","trial_index":3,"time_elapsed":92265,"internal_node_id":"0.0-3.0","experiment":"validation","task_version":"2.0","jspsych_version":"6.3.1","infrequency":0},{"responses":{"Q05":"4","Q02":"4","Q07":"4","Q09":"4","Q03":"4","Q10":"2","Q11":"0","Q06":"1","Q04":"3","Q08":"3","Q01":"3"},"rt":41363.09999999404,"item_order":[4,1,6,8,2,9,10,5,3,7,0],"radio_events":[5159.0999999940395,6825.899999991059,9233.79999999702,11340.59999999404,14328.09999999404,17199.89999999106,19168.69999998808,21161.79999999702,28306.29999999702,34364.79999999702,36853.5,39753.79999999702,40701],"key_events":[],"mouse_events":[5159.0999999940395,6825.899999991059,8108.199999988079,9233.79999999702,11340.59999999404,14328.09999999404,17199.89999999106,19168.69999998808,21161.79999999702,28306.29999999702,33379.79999999702,34364.79999999702,36853.5,39753.79999999702,40701,41360.59999999404],"straightlining":0.2727272727272727,"zigzagging":0.3,"honeypot":0,"survey":"nfc10","trial_type":"survey-template","trial_index":4,"time_elapsed":133633,"internal_node_id":"0.0-4.0","experiment":"validation","task_version":"2.0","jspsych_version":"6.3.1","infrequency":0},{"value":0,"trial_type":"call-function","trial_index":5,"time_elapsed":133635,"internal_node_id":"0.0-5.0","experiment":"validation","task_version":"2.0","jspsych_version":"6.3.1","interactions":"[]"}]