[{"view_history":[{"page_index":0,"viewing_time":7064.5}],"rt":7065.200000047684,"trial_type":"instructions","trial_index":0,"time_elapsed":7116,"internal_node_id":"0.0-0.0","experiment":"validation","task_version":"2.0","jspsych_version":"6.3.1"},{"rt":6761.5,"responses":{"age":"29","gender-categorical":"Male","gender-free-response":"","ethnicity":"Not Hispanic or Latino","race":["White"],"education":"Bachelor degree"},"survey":"demographics","trial_type":"survey-demo","trial_index":1,"time_elapsed":13881,"internal_node_id":"0.0-1.0","experiment":"validation","task_version":"2.0","jspsych_version":"6.3.1"},{"rt":20988.299999952316,"response":{"Q7":5,"Q3":5,"Q4":4,"Q5":3,"Q8":0,"Q6":2,"Q1":5,"Q2":5,"Q0":5},"question_order":[7,3,4,5,8,6,1,2,0],"survey":"sns","trial_type":"survey-likert","trial_index":2,"time_elapsed":34877,"internal_node_id":"0.0-2.0","experiment":"validation","task_version":"2.0","jspsych_version":"6.3.1","infrequency":0},{"responses":{"Q01":"4","Q06":"4","Q03":"4","Q07":"4","Q08":"4","Q02":"4","Q04":"4","Q09":"4","Q05":"4"},"rt":21624.900000095367,"item_order":[0,5,2,6,7,1,3,8,4],"radio_events":[3568,4588.700000047684,5660.300000190735,6154.800000190735,6735.300000190735,8948,11534.700000047684,13288.200000047684,21008.700000047684],"key_events":[],"mouse_events":[1631.7000000476837,2615.5,3568,3894.2000000476837,4588.700000047684,5660.300000190735,6154.800000190735,6735.300000190735,8254.900000095367,8948,9765.200000047684,11135.200000047684,11534.700000047684,12795.5,13288.200000047684,17796.900000095367,20130.60000014305,20515.60000014305,21008.700000047684,21623.700000047684],"straightlining":0.8888888888888888,"zigzagging":0.25,"honeypot":0,"survey":"pcf","trial_type":"survey-template","trial_index":3,"time_elapsed":56510,"internal_node_id":"0.0-3.0","experiment":"validation","task_version":"2.0","jspsych_version":"6.3.1","infrequency":0},{"responses":{"Q09":"1","Q04":"2","Q06":"4","Q07":"4","Q11":"0","Q01":"2","Q03":"4","Q08":"3","Q10":"2","Q05":"4","Q02":"3"},"rt":109956.5,"item_order":[8,3,5,6,10,0,2,7,9,4,1],"radio_events":[87989.29999995232,88189.19999980927,90568.79999995232,92859.29999995232,94162.89999985695,94347.59999990463,94527.09999990463,97442.79999995232,97629.09999990463,101204.79999995232,103303.09999990463,103943,105525.59999990463,105711,106729.29999995232,107325.59999990463,109639.59999990463],"key_events":[],"mouse_events":[86260.39999985695,86639.5,87457.5,87795.39999985695,87989.29999995232,88189.19999980927,90173.29999995232,90568.79999995232,92003.29999995232,92473,92859.29999995232,93894.59999990463,94162.89999985695,94347.59999990463,94527.09999990463,96064.29999995232,96262.89999985695,96456.59999990463,96617.69999980927,97027.29999995232,97241.89999985695,97442.79999995232,97629.09999990463,101204.79999995232,102394.5,102594.89999985695,102785.69999980927,103303.09999990463,103943,105309,105525.59999990463,105711,106729.29999995232,107030.19999980927,107325.59999990463,109362.5,109639.59999990463,109955.39999985695],"straightlining":0.2727272727272727,"zigzagging":0.3,"honeypot":0,"survey":"nfc10","trial_type":"survey-template","trial_index":4,"time_elapsed":166469,"internal_node_id":"0.0-4.0","experiment":"validation","task_version":"2.0","jspsych_version":"6.3.1","infrequency":0},{"value":0,"trial_type":"call-function","trial_index":5,"time_elapsed":166470,"internal_node_id":"0.0-5.0","experiment":"validation","task_version":"2.0","jspsych_version":"6.3.1","interactions":"[{\"event\":\"blur\",\"trial\":0,\"time\":1349},{\"event\":\"focus\",\"trial\":0,\"time\":3454},{\"event\":\"blur\",\"trial\":4,\"time\":73831},{\"event\":\"focus\",\"trial\":4,\"time\":116863},{\"event\":\"blur\",\"trial\":4,\"time\":117296},{\"event\":\"focus\",\"trial\":4,\"time\":134452}]"}]