[{"view_history":[{"page_index":0,"viewing_time":5121.300000011921}],"rt":5122.300000011921,"trial_type":"instructions","trial_index":0,"time_elapsed":5173,"internal_node_id":"0.0-0.0","experiment":"validation","task_version":"2.0","jspsych_version":"6.3.1"},{"rt":12743.300000011921,"responses":{"age":"28","gender-categorical":"Female","gender-free-response":"","ethnicity":"Not Hispanic or Latino","race":["White"],"education":"Some college"},"survey":"demographics","trial_type":"survey-demo","trial_index":1,"time_elapsed":17919,"internal_node_id":"0.0-1.0","experiment":"validation","task_version":"2.0","jspsych_version":"6.3.1"},{"responses":{"Q08":"3","Q02":"3","Q04":"2","Q07":"3","Q01":"3","Q06":"3","Q03":"3","Q09":"4","Q05":"2"},"rt":71367.29999999702,"item_order":[7,1,3,6,0,5,2,8,4],"radio_events":[6599.29999999702,9693.199999988079,14117,15193.09999999404,16809.19999998808,21767.59999999404,64792.79999999702,66913,70518.69999998808],"key_events":[],"mouse_events":[6599.29999999702,8495.199999988079,9693.199999988079,11990.79999999702,12820.59999999404,13151.199999988079,14117,15193.09999999404,16809.19999998808,21767.59999999404,64792.79999999702,66913,67965.19999998808,69187.09999999404,69837,70518.69999998808,71364.89999999106],"straightlining":0.6666666666666666,"zigzagging":0.25,"honeypot":0,"survey":"pcf","trial_type":"survey-template","trial_index":2,"time_elapsed":89292,"internal_node_id":"0.0-2.0","experiment":"validation","task_version":"2.0","jspsych_version":"6.3.1","infrequency":0},{"responses":{"Q03":"3","Q07":"2","Q10":"3","Q04":"3","Q11":"0","Q02":"2","Q06":"1","Q05":"3","Q09":"3","Q01":"2","Q08":"3"},"rt":66266.70000000298,"item_order":[2,6,9,3,10,1,5,4,8,0,7],"radio_events":[2965,7652.79999999702,14947.29999999702,38833.10000000894,42157.20000000298,49003.29999999702,54886.90000000596,59637,63311.40000000596,64246.60000000894,65763.10000000894],"key_events":[],"mouse_events":[2965,7652.79999999702,14173.20000000298,14947.29999999702,36921.29999999702,38105,38833.10000000894,42157.20000000298,49003.29999999702,53055.20000000298,54886.90000000596,57843.10000000894,58329,59637,60751.5,62583,63311.40000000596,64246.60000000894,65763.10000000894,66265.29999999702],"straightlining":0.36363636363636365,"zigzagging":0.6,"honeypot":0,"survey":"nfc10","trial_type":"survey-template","trial_index":3,"time_elapsed":155562,"internal_node_id":"0.0-3.0","experiment":"validation","task_version":"2.0","jspsych_version":"6.3.1","infrequency":0},{"rt":44759.70000000298,"response":{"Q6":1,"Q4":4,"Q0":3,"Q8":0,"Q7":4,"Q1":3,"Q3":3,"Q5":2,"Q2":4},"question_order":[6,4,0,8,7,1,3,5,2],"survey":"sns","trial_type":"survey-likert","trial_index":4,"time_elapsed":200327,"internal_node_id":"0.0-4.0","experiment":"validation","task_version":"2.0","jspsych_version":"6.3.1","infrequency":0},{"value":0,"trial_type":"call-function","trial_index":5,"time_elapsed":200328,"internal_node_id":"0.0-5.0","experiment":"validation","task_version":"2.0","jspsych_version":"6.3.1","interactions":"[]"}]