[{"view_history":[{"page_index":0,"viewing_time":5651.099999964237}],"rt":5652.399999976158,"trial_type":"instructions","trial_index":0,"time_elapsed":5853,"internal_node_id":"0.0-0.0","experiment":"validation","task_version":"2.0","jspsych_version":"6.3.1"},{"rt":11545.099999964237,"responses":{"age":"20","gender-categorical":"Male","gender-free-response":"","ethnicity":"Hispanic or Latino","race":["Rather not say"],"education":"Some college"},"survey":"demographics","trial_type":"survey-demo","trial_index":1,"time_elapsed":17457,"internal_node_id":"0.0-1.0","experiment":"validation","task_version":"2.0","jspsych_version":"6.3.1"},{"rt":35563.30000001192,"response":{"Q7":3,"Q8":0,"Q1":4,"Q5":1,"Q3":5,"Q6":1,"Q2":3,"Q0":2,"Q4":4},"question_order":[7,8,1,5,3,6,2,0,4],"survey":"sns","trial_type":"survey-likert","trial_index":2,"time_elapsed":53031,"internal_node_id":"0.0-2.0","experiment":"validation","task_version":"2.0","jspsych_version":"6.3.1","infrequency":0},{"responses":{"Q07":"3","Q11":"0","Q06":"1","Q02":"2","Q04":"2","Q10":"2","Q01":"3","Q05":"1","Q09":"3","Q08":"4","Q03":"3"},"rt":331491.90000003576,"item_order":[6,10,5,1,3,9,0,4,8,7,2],"radio_events":[6287.900000035763,9612.900000035763,17590.600000023842,22746.600000023842,27641.700000047684,30473.30000001192,32353.80000001192,34951.80000001192,38336.5,40054.5,43432],"key_events":[],"mouse_events":[6287.900000035763,8783.200000047684,9612.900000035763,15102.5,15976.300000011921,16858,17590.600000023842,22746.600000023842,27641.700000047684,29590.400000035763,30473.30000001192,32353.80000001192,34951.80000001192,37583.5,38336.5,40054.5,43432,331489.3000000119],"straightlining":0.36363636363636365,"zigzagging":0.4,"honeypot":0,"survey":"nfc10","trial_type":"survey-template","trial_index":3,"time_elapsed":384532,"internal_node_id":"0.0-3.0","experiment":"validation","task_version":"2.0","jspsych_version":"6.3.1","infrequency":0},{"responses":{"Q09":"4","Q07":"3","Q04":"1","Q06":"3","Q05":"2","Q01":"3","Q03":"4","Q02":"4","Q08":"4"},"rt":31934.899999976158,"item_order":[8,6,3,5,4,0,2,1,7],"radio_events":[4701.899999976158,6414.799999952316,9793.699999988079,12133.099999964237,14578.699999988079,16601.69999998808,20145,24091.899999976158,27107.69999998808,30716.599999964237],"key_events":[],"mouse_events":[3715.099999964237,4701.899999976158,6414.799999952316,9094.799999952316,9793.699999988079,12133.099999964237,14578.699999988079,16601.69999998808,19240.399999976158,20145,24091.899999976158,27107.69999998808,29472.299999952316,30085.299999952316,30716.599999964237,31931.799999952316],"straightlining":0.3333333333333333,"zigzagging":0.375,"honeypot":0,"survey":"pcf","trial_type":"survey-template","trial_index":4,"time_elapsed":416475,"internal_node_id":"0.0-4.0","experiment":"validation","task_version":"2.0","jspsych_version":"6.3.1","infrequency":0},{"value":0,"trial_type":"call-function","trial_index":5,"time_elapsed":416479,"internal_node_id":"0.0-5.0","experiment":"validation","task_version":"2.0","jspsych_version":"6.3.1","interactions":"[{\"event\":\"blur\",\"trial\":0,\"time\":831},{\"event\":\"focus\",\"trial\":0,\"time\":3846},{\"event\":\"blur\",\"trial\":3,\"time\":98360},{\"event\":\"focus\",\"trial\":3,\"time\":257902},{\"event\":\"blur\",\"trial\":3,\"time\":257903},{\"event\":\"focus\",\"trial\":3,\"time\":381994}]"}]