[{"view_history":[{"page_index":0,"viewing_time":1552.5}],"rt":1552.7000000001863,"trial_type":"instructions","trial_index":0,"time_elapsed":1561,"internal_node_id":"0.0-0.0","experiment":"validation","task_version":"2.0","jspsych_version":"6.3.1"},{"rt":8631.69999999972,"responses":{"age":"23","gender-categorical":"Male","gender-free-response":"","ethnicity":"Not Hispanic or Latino","race":["White"],"education":"Bachelor degree"},"survey":"demographics","trial_type":"survey-demo","trial_index":1,"time_elapsed":10194,"internal_node_id":"0.0-1.0","experiment":"validation","task_version":"2.0","jspsych_version":"6.3.1"},{"responses":{"Q09":"3","Q06":"2","Q10":"3","Q01":"1","Q08":"2","Q02":"3","Q07":"3","Q04":"2","Q11":"0","Q03":"4","Q05":"1"},"rt":44448.5,"item_order":[8,5,9,0,7,1,6,3,10,2,4],"radio_events":[3267.5,6267.899999999907,11396.5,12580.5,14437.100000000093,16956.899999999907,18900.899999999907,22589.69999999972,24685.600000000093,27541.69999999972,32630.299999999814,38246.89999999991,39903.10000000009,43167.39999999991],"key_events":[],"mouse_events":[3267.5,6267.899999999907,7868.100000000093,8339.799999999814,10500.19999999972,11396.5,12580.5,14437.100000000093,16956.899999999907,18900.899999999907,22589.69999999972,23165.19999999972,23573.5,24685.600000000093,27541.69999999972,32630.299999999814,37646.89999999991,38246.89999999991,39903.10000000009,43167.39999999991,44447.39999999991],"straightlining":0.45454545454545453,"zigzagging":0.5,"honeypot":0,"survey":"nfc10","trial_type":"survey-template","trial_index":2,"time_elapsed":54647,"internal_node_id":"0.0-2.0","experiment":"validation","task_version":"2.0","jspsych_version":"6.3.1","infrequency":0},{"responses":{"Q01":"3","Q06":"4","Q09":"4","Q05":"2","Q04":"2","Q07":"3","Q02":"4","Q08":"4","Q03":"4"},"rt":28870.799999999814,"item_order":[0,5,8,4,3,6,1,7,2],"radio_events":[2947.600000000093,6307.899999999907,10156.5,13516.600000000093,15812.899999999907,17748.799999999814,20245.100000000093,23637.399999999907,25005.69999999972,25997.5],"key_events":[],"mouse_events":[2947.600000000093,6307.899999999907,10156.5,12860.299999999814,13516.600000000093,15452.799999999814,15812.899999999907,17748.799999999814,20245.100000000093,22589.299999999814,23637.399999999907,25005.69999999972,25997.5,28870],"straightlining":0.4444444444444444,"zigzagging":0.5,"honeypot":0,"survey":"pcf","trial_type":"survey-template","trial_index":3,"time_elapsed":83521,"internal_node_id":"0.0-3.0","experiment":"validation","task_version":"2.0","jspsych_version":"6.3.1","infrequency":0},{"rt":43919.90000000037,"response":{"Q7":4,"Q3":5,"Q8":0,"Q1":4,"Q6":3,"Q2":5,"Q0":5,"Q4":4,"Q5":5},"question_order":[7,3,8,1,6,2,0,4,5],"survey":"sns","trial_type":"survey-likert","trial_index":4,"time_elapsed":127445,"internal_node_id":"0.0-4.0","experiment":"validation","task_version":"2.0","jspsych_version":"6.3.1","infrequency":0},{"value":0,"trial_type":"call-function","trial_index":5,"time_elapsed":127448,"internal_node_id":"0.0-5.0","experiment":"validation","task_version":"2.0","jspsych_version":"6.3.1","interactions":"[{\"event\":\"blur\",\"trial\":4,\"time\":91313},{\"event\":\"focus\",\"trial\":4,\"time\":92100}]"}]