[{"view_history":[{"page_index":0,"viewing_time":1419.8999999761581}],"rt":1420.0999999940395,"trial_type":"instructions","trial_index":0,"time_elapsed":1439,"internal_node_id":"0.0-0.0","experiment":"validation","task_version":"2.0","jspsych_version":"6.3.1"},{"rt":9788.90000000596,"responses":{"age":"26","gender-categorical":"Female","gender-free-response":"","ethnicity":"Not Hispanic or Latino","race":["White"],"education":"Bachelor degree"},"survey":"demographics","trial_type":"survey-demo","trial_index":1,"time_elapsed":11231,"internal_node_id":"0.0-1.0","experiment":"validation","task_version":"2.0","jspsych_version":"6.3.1"},{"responses":{"Q08":"4","Q05":"2","Q01":"3","Q03":"3","Q02":"3","Q07":"4","Q06":"4","Q09":"4","Q04":"2"},"rt":53161.40000000596,"item_order":[7,4,0,2,1,6,5,8,3],"radio_events":[4819.300000011921,7358.4000000059605,10872.40000000596,15470.699999988079,21255.59999999404,23208.5,25176.69999998808,27503.5,32041.59999999404,33086.59999999404,41902.59999999404,47962.59999999404,51802.30000001192],"key_events":[],"mouse_events":[4103.800000011921,4819.300000011921,7358.4000000059605,10872.40000000596,15470.699999988079,21255.59999999404,22716.80000001192,23208.5,23923.80000001192,24446.40000000596,24831.5,25176.69999998808,27503.5,30476.59999999404,31731.19999998808,32041.59999999404,33086.59999999404,41902.59999999404,47962.59999999404,51802.30000001192,53159.40000000596],"straightlining":0.3333333333333333,"zigzagging":0.375,"honeypot":0,"survey":"pcf","trial_type":"survey-template","trial_index":2,"time_elapsed":64403,"internal_node_id":"0.0-2.0","experiment":"validation","task_version":"2.0","jspsych_version":"6.3.1","infrequency":0},{"rt":38069.70000001788,"response":{"Q3":5,"Q4":3,"Q2":3,"Q6":1,"Q7":4,"Q1":4,"Q0":4,"Q5":4,"Q8":0},"question_order":[3,4,2,6,7,1,0,5,8],"survey":"sns","trial_type":"survey-likert","trial_index":3,"time_elapsed":102479,"internal_node_id":"0.0-3.0","experiment":"validation","task_version":"2.0","jspsych_version":"6.3.1","infrequency":0},{"responses":{"Q09":"1","Q01":"1","Q08":"1","Q11":"0","Q03":"2","Q04":"2","Q05":"1","Q02":"1","Q07":"2","Q10":"1","Q06":"1"},"rt":65218.30000001192,"item_order":[8,0,7,10,2,3,4,1,6,9,5],"radio_events":[6809,11853.40000000596,14508,21044,26308.30000001192,37499.40000000596,40389.60000002384,44492.30000001192,49782.40000000596,53138.20000001788,59771.30000001192,64189.20000001788],"key_events":[],"mouse_events":[6809,8370.90000000596,10851.40000000596,11853.40000000596,14508,20080.40000000596,21044,25983,26308.30000001192,37499.40000000596,40389.60000002384,44492.30000001192,49131.90000000596,49782.40000000596,53138.20000001788,57121.70000001788,59771.30000001192,63517.60000002384,63964,64189.20000001788,65216],"straightlining":0.5454545454545454,"zigzagging":0.4,"honeypot":0,"survey":"nfc10","trial_type":"survey-template","trial_index":4,"time_elapsed":167706,"internal_node_id":"0.0-4.0","experiment":"validation","task_version":"2.0","jspsych_version":"6.3.1","infrequency":0},{"value":0,"trial_type":"call-function","trial_index":5,"time_elapsed":167713,"internal_node_id":"0.0-5.0","experiment":"validation","task_version":"2.0","jspsych_version":"6.3.1","interactions":"[]"}]