[{"view_history":[{"page_index":0,"viewing_time":9897.70000000298}],"rt":9900.20000000298,"trial_type":"instructions","trial_index":0,"time_elapsed":9963,"internal_node_id":"0.0-0.0","experiment":"validation","task_version":"2.0","jspsych_version":"6.3.1"},{"rt":18856,"responses":{"age":"35","gender-categorical":"Male","gender-free-response":"","ethnicity":"Not Hispanic or Latino","race":["White"],"education":"Bachelor degree"},"survey":"demographics","trial_type":"survey-demo","trial_index":1,"time_elapsed":28841,"internal_node_id":"0.0-1.0","experiment":"validation","task_version":"2.0","jspsych_version":"6.3.1"},{"rt":58215.5,"response":{"Q6":1,"Q1":3,"Q3":3,"Q8":0,"Q4":4,"Q0":2,"Q5":3,"Q7":4,"Q2":3},"question_order":[6,1,3,8,4,0,5,7,2],"survey":"sns","trial_type":"survey-likert","trial_index":2,"time_elapsed":87119,"internal_node_id":"0.0-2.0","experiment":"validation","task_version":"2.0","jspsych_version":"6.3.1","infrequency":0},{"responses":{"Q09":"1","Q02":"1","Q11":"0","Q05":"1","Q04":"1","Q10":"1","Q01":"1","Q06":"1","Q07":"1","Q08":"2","Q03":"1"},"rt":156400.40000000596,"item_order":[8,1,10,4,3,9,0,5,6,7,2],"radio_events":[4173.4000000059605,14196.90000000596,18573.80000000447,23624.60000000149,26534.80000000447,29576.90000000596,106633.10000000149,107344.80000000447,149704.20000000298,152808.6000000015,155209.20000000298],"key_events":[],"mouse_events":[4173.4000000059605,14196.90000000596,17933.10000000149,18573.80000000447,23624.60000000149,26534.80000000447,29049.70000000298,29576.90000000596,104689.5,106017.20000000298,106633.10000000149,107344.80000000447,148072.30000000447,149704.20000000298,152808.6000000015,154260.90000000596,155209.20000000298,156393.5],"straightlining":0.5454545454545454,"zigzagging":0.3,"honeypot":0,"survey":"nfc10","trial_type":"survey-template","trial_index":3,"time_elapsed":243574,"internal_node_id":"0.0-3.0","experiment":"validation","task_version":"2.0","jspsych_version":"6.3.1","infrequency":0},{"responses":{"Q06":"1","Q05":"2","Q02":"2","Q03":"2","Q08":"3","Q09":"4","Q01":"3","Q07":"4","Q04":"3"},"rt":46500.40000000596,"item_order":[5,4,1,2,7,8,0,6,3],"radio_events":[7694.70000000298,8966.80000000447,10444.70000000298,13382,16238.5,18782.90000000596,20630.60000000149,23015.80000000447,28557.70000000298,37206.20000000298,38370.10000000149,41630,45600.60000000149],"key_events":[],"mouse_events":[7694.70000000298,8966.80000000447,10444.70000000298,11527,13382,15766.90000000596,16238.5,18782.90000000596,20630.60000000149,23015.80000000447,26299.30000000447,28557.70000000298,37206.20000000298,38370.10000000149,40158.20000000298,41630,45600.60000000149,46494.70000000298],"straightlining":0.3333333333333333,"zigzagging":0.5,"honeypot":0,"survey":"pcf","trial_type":"survey-template","trial_index":4,"time_elapsed":290119,"internal_node_id":"0.0-4.0","experiment":"validation","task_version":"2.0","jspsych_version":"6.3.1","infrequency":0},{"value":0,"trial_type":"call-function","trial_index":5,"time_elapsed":290130,"internal_node_id":"0.0-5.0","experiment":"validation","task_version":"2.0","jspsych_version":"6.3.1","interactions":"[]"}]