[{"view_history":[{"page_index":0,"viewing_time":2913.5999999996275}],"rt":2913.699999999255,"trial_type":"instructions","trial_index":0,"time_elapsed":2939,"internal_node_id":"0.0-0.0","experiment":"validation","task_version":"2.0","jspsych_version":"6.3.1"},{"rt":8710.5,"responses":{"age":"32","gender-categorical":"Male","gender-free-response":"","ethnicity":"Not Hispanic or Latino","race":["White"],"education":"Bachelor degree"},"survey":"demographics","trial_type":"survey-demo","trial_index":1,"time_elapsed":11651,"internal_node_id":"0.0-1.0","experiment":"validation","task_version":"2.0","jspsych_version":"6.3.1"},{"responses":{"Q03":"4","Q09":"4","Q07":"4","Q08":"4","Q05":"4","Q02":"4","Q04":"4","Q01":"4","Q06":"4"},"rt":25973.599999999627,"item_order":[2,8,6,7,4,1,3,0,5],"radio_events":[4732.4000000003725,6820.4000000003725,8180.200000001118,9660.300000000745,11740.400000000373,14444.099999999627,18716.300000000745,22268.200000001118,22780.300000000745],"key_events":[],"mouse_events":[4732.4000000003725,6260.5,6820.4000000003725,8180.200000001118,9660.300000000745,11316.400000000373,11740.400000000373,14444.099999999627,15764.300000000745,17100.200000001118,18124.200000001118,18716.300000000745,22268.200000001118,22780.300000000745,25972.300000000745],"straightlining":0.8888888888888888,"zigzagging":0.25,"honeypot":0,"survey":"pcf","trial_type":"survey-template","trial_index":2,"time_elapsed":37629,"internal_node_id":"0.0-2.0","experiment":"validation","task_version":"2.0","jspsych_version":"6.3.1","infrequency":0},{"rt":37580.59999999963,"response":{"Q3":4,"Q1":4,"Q7":5,"Q4":4,"Q2":4,"Q0":3,"Q5":4,"Q6":1,"Q8":0},"question_order":[3,1,7,4,2,0,5,6,8],"survey":"sns","trial_type":"survey-likert","trial_index":3,"time_elapsed":75212,"internal_node_id":"0.0-3.0","experiment":"validation","task_version":"2.0","jspsych_version":"6.3.1","infrequency":0},{"responses":{"Q06":"3","Q11":"0","Q05":"4","Q09":"3","Q01":"3","Q10":"2","Q07":"2","Q04":"3","Q03":"3","Q08":"3","Q02":"3"},"rt":43853.59999999963,"item_order":[5,10,4,8,0,9,6,3,2,7,1],"radio_events":[5916.5,8988.599999999627,13380.400000000373,15156.299999998882,18076.299999998882,22524.299999998882,30204.400000000373,31236.400000000373,33788.199999999255,38892.5,42884.199999999255],"key_events":[],"mouse_events":[5421.9000000003725,5916.5,7940.4000000003725,8988.599999999627,12628.299999998882,12980.299999998882,13380.400000000373,15156.299999998882,17316.599999999627,18076.299999998882,22524.299999998882,27924.5,28460.199999999255,30204.400000000373,30948.199999999255,31236.400000000373,33508.40000000037,33788.199999999255,38892.5,42884.199999999255,43852.29999999888],"straightlining":0.45454545454545453,"zigzagging":0.2,"honeypot":0,"survey":"nfc10","trial_type":"survey-template","trial_index":4,"time_elapsed":119068,"internal_node_id":"0.0-4.0","experiment":"validation","task_version":"2.0","jspsych_version":"6.3.1","infrequency":0},{"value":0,"trial_type":"call-function","trial_index":5,"time_elapsed":119070,"internal_node_id":"0.0-5.0","experiment":"validation","task_version":"2.0","jspsych_version":"6.3.1","interactions":"[]"}]