[{"view_history":[{"page_index":0,"viewing_time":4260.100000023842}],"rt":4260.900000035763,"trial_type":"instructions","trial_index":0,"time_elapsed":4285,"internal_node_id":"0.0-0.0","experiment":"validation","task_version":"2.0","jspsych_version":"6.3.1"},{"rt":20197.69999998808,"responses":{"age":"57","gender-categorical":"Female","gender-free-response":"","ethnicity":"Not Hispanic or Latino","race":["White"],"education":"Bachelor degree"},"survey":"demographics","trial_type":"survey-demo","trial_index":1,"time_elapsed":24485,"internal_node_id":"0.0-1.0","experiment":"validation","task_version":"2.0","jspsych_version":"6.3.1"},{"responses":{"Q08":"3","Q09":"1","Q02":"1","Q11":"0","Q03":"2","Q01":"1","Q04":"1","Q05":"3","Q07":"1","Q06":"1","Q10":"1"},"rt":118475.30000001192,"item_order":[7,8,1,10,2,0,3,4,6,5,9],"radio_events":[10323.800000011921,13379.699999988079,26203.69999998808,34859.30000001192,38227.30000001192,42867.10000002384,48947,52818.90000003576,68394.69999998808,106570.40000003576,117409.90000003576],"key_events":[],"mouse_events":[4923.900000035763,10323.800000011921,12371.800000011921,13379.699999988079,19155.600000023842,26203.69999998808,34859.30000001192,38227.30000001192,42867.10000002384,47530.80000001192,48947,52818.90000003576,58890.90000003576,65346.90000003576,68394.69999998808,92730.5,95202.5,105602.19999998808,106570.40000003576,110970.19999998808,117409.90000003576,118474],"straightlining":0.6363636363636364,"zigzagging":0.2,"honeypot":0,"survey":"nfc10","trial_type":"survey-template","trial_index":2,"time_elapsed":142971,"internal_node_id":"0.0-2.0","experiment":"validation","task_version":"2.0","jspsych_version":"6.3.1","infrequency":0},{"responses":{"Q05":"1","Q06":"1","Q07":"4","Q09":"4","Q01":"2","Q02":"2","Q03":"2","Q08":"2","Q04":"2"},"rt":53340.30000001192,"item_order":[4,5,6,8,0,1,2,7,3],"radio_events":[4964.400000035763,7723.900000035763,14571.800000011921,21483.5,22243.600000023842,34987.30000001192,41299,47715.5,51835.10000002384],"key_events":[],"mouse_events":[3819.699999988079,4964.400000035763,7723.900000035763,10507.699999988079,14571.800000011921,16979.400000035763,17707.600000023842,21483.5,22243.600000023842,34987.30000001192,41299,45587.19999998808,47715.5,51235.19999998808,51835.10000002384,53339.30000001192],"straightlining":0.5555555555555556,"zigzagging":0.125,"honeypot":0,"survey":"pcf","trial_type":"survey-template","trial_index":3,"time_elapsed":196316,"internal_node_id":"0.0-3.0","experiment":"validation","task_version":"2.0","jspsych_version":"6.3.1","infrequency":0},{"rt":49356.40000003576,"response":{"Q6":0,"Q1":3,"Q7":3,"Q2":4,"Q8":0,"Q5":4,"Q3":4,"Q0":3,"Q4":4},"question_order":[6,1,7,2,8,5,3,0,4],"survey":"sns","trial_type":"survey-likert","trial_index":4,"time_elapsed":245680,"internal_node_id":"0.0-4.0","experiment":"validation","task_version":"2.0","jspsych_version":"6.3.1","infrequency":0},{"value":0,"trial_type":"call-function","trial_index":5,"time_elapsed":245681,"internal_node_id":"0.0-5.0","experiment":"validation","task_version":"2.0","jspsych_version":"6.3.1","interactions":"[]"}]