[{"view_history":[{"page_index":0,"viewing_time":2445.600000023842}],"rt":2446.100000023842,"trial_type":"instructions","trial_index":0,"time_elapsed":2459,"internal_node_id":"0.0-0.0","experiment":"validation","task_version":"2.0","jspsych_version":"6.3.1"},{"rt":15562,"responses":{"age":"41","gender-categorical":"Female","gender-free-response":"","ethnicity":"Not Hispanic or Latino","race":["Black or African American"],"education":"Associate degree"},"survey":"demographics","trial_type":"survey-demo","trial_index":1,"time_elapsed":18023,"internal_node_id":"0.0-1.0","experiment":"validation","task_version":"2.0","jspsych_version":"6.3.1"},{"responses":{"Q06":"3","Q09":"4","Q08":"4","Q07":"4","Q05":"4","Q03":"3","Q04":"3","Q02":"3","Q01":"3"},"rt":45794.200000047684,"item_order":[5,8,7,6,4,2,3,1,0],"radio_events":[10834.100000023842,19641.299999952316,25294.399999976158,25990.100000023842,27044.399999976158,33725.60000002384,39062.89999997616,42610.200000047684,44763.10000002384],"key_events":[],"mouse_events":[10834.100000023842,19641.299999952316,21943.299999952316,25294.399999976158,25990.100000023842,27044.399999976158,33725.60000002384,39062.89999997616,42610.200000047684,44763.10000002384,45791.89999997616],"straightlining":0.5555555555555556,"zigzagging":0.25,"honeypot":0,"survey":"pcf","trial_type":"survey-template","trial_index":2,"time_elapsed":63821,"internal_node_id":"0.0-2.0","experiment":"validation","task_version":"2.0","jspsych_version":"6.3.1","infrequency":0},{"responses":{"Q08":"3","Q03":"4","Q01":"3","Q09":"2","Q10":"3","Q11":"0","Q06":"3","Q07":"4","Q04":"3","Q05":"3","Q02":"3"},"rt":63726.39999997616,"item_order":[7,2,0,8,9,10,5,6,3,4,1],"radio_events":[6209.799999952316,9632.699999928474,10890.299999952316,14458.799999952316,18741.799999952316,23699,29261.799999952316,33169.10000002384,37848.5,44557.199999928474,54764.60000002384,62968],"key_events":[],"mouse_events":[6209.799999952316,9632.699999928474,10890.299999952316,14458.799999952316,18741.799999952316,23169,23699,29261.799999952316,33169.10000002384,37848.5,44557.199999928474,54764.60000002384,62968,63723.39999997616],"straightlining":0.45454545454545453,"zigzagging":0.3,"honeypot":0,"survey":"nfc10","trial_type":"survey-template","trial_index":3,"time_elapsed":127551,"internal_node_id":"0.0-3.0","experiment":"validation","task_version":"2.0","jspsych_version":"6.3.1","infrequency":0},{"rt":35625.39999997616,"response":{"Q5":4,"Q1":3,"Q7":4,"Q4":3,"Q0":3,"Q8":0,"Q6":3,"Q3":5,"Q2":4},"question_order":[5,1,7,4,0,8,6,3,2],"survey":"sns","trial_type":"survey-likert","trial_index":4,"time_elapsed":163184,"internal_node_id":"0.0-4.0","experiment":"validation","task_version":"2.0","jspsych_version":"6.3.1","infrequency":0},{"value":0,"trial_type":"call-function","trial_index":5,"time_elapsed":163185,"internal_node_id":"0.0-5.0","experiment":"validation","task_version":"2.0","jspsych_version":"6.3.1","interactions":"[{\"event\":\"blur\",\"trial\":1,\"time\":15499},{\"event\":\"focus\",\"trial\":1,\"time\":17921},{\"event\":\"blur\",\"trial\":3,\"time\":112092},{\"event\":\"focus\",\"trial\":3,\"time\":118520},{\"event\":\"blur\",\"trial\":3,\"time\":122118},{\"event\":\"focus\",\"trial\":3,\"time\":126737}]"}]