subject,trial,item_set,long_form,item_id,item,distractor,shape_set,choice,accuracy,rt,all_loaded,minimum_resolution,browser_interactions
00opkwd7awzgqa9h1chkatb7,1,3,2,190,45,pd,1,0.0,1.0,9.896,1,1,0.0
00opkwd7awzgqa9h1chkatb7,2,3,2,130,30,pd,1,0.0,1.0,14.305,1,1,0.0
00opkwd7awzgqa9h1chkatb7,3,3,2,246,55,pd,3,0.0,1.0,11.264,1,1,0.0
00opkwd7awzgqa9h1chkatb7,4,3,2,254,58,md,2,0.0,1.0,17.715,1,1,0.0
00opkwd7awzgqa9h1chkatb7,5,3,2,178,42,pd,1,3.0,0.0,11.935,1,1,0.0
00opkwd7awzgqa9h1chkatb7,6,3,2,227,52,pd,2,0.0,1.0,19.446,1,1,0.0
00opkwd7awzgqa9h1chkatb7,7,3,2,126,29,pd,3,0.0,1.0,22.914,1,1,0.0
00opkwd7awzgqa9h1chkatb7,8,3,2,94,24,pd,1,0.0,1.0,19.359,1,1,0.0
00opkwd7awzgqa9h1chkatb7,9,3,2,53,17,pd,2,1.0,0.0,25.903,1,1,0.0
00opkwd7awzgqa9h1chkatb7,10,3,2,359,76,pd,2,0.0,1.0,10.89,1,1,0.0
00opkwd7awzgqa9h1chkatb7,11,3,2,354,75,pd,3,2.0,0.0,27.499,1,1,0.0
00opkwd7awzgqa9h1chkatb7,12,3,2,335,72,pd,2,2.0,0.0,18.846,1,1,0.0
00opkwd7awzgqa9h1chkatb7,13,3,2,149,35,pd,2,0.0,1.0,14.994,1,1,0.0
00opkwd7awzgqa9h1chkatb7,14,3,2,154,36,pd,1,1.0,0.0,27.134,1,1,0.0
00opkwd7awzgqa9h1chkatb7,15,3,2,294,64,pd,3,0.0,1.0,20.98,1,1,0.0
00opkwd7awzgqa9h1chkatb7,16,3,2,382,80,pd,1,1.0,0.0,29.804,1,1,0.0
00opkwd7awzgqa9h1chkatb7,17,3,2,346,74,pd,1,0.0,1.0,15.872,1,1,0.0
00opkwd7awzgqa9h1chkatb7,18,3,2,197,46,pd,2,0.0,1.0,15.932,1,1,0.0
00opkwd7awzgqa9h1chkatb7,19,3,2,263,59,pd,2,0.0,1.0,12.707,1,1,0.0
00opkwd7awzgqa9h1chkatb7,20,3,2,306,66,pd,3,0.0,1.0,14.147,1,1,0.0
00opkwd7awzgqa9h1chkatb7,21,3,2,286,63,pd,1,1.0,0.0,10.578,1,1,0.0
00opkwd7awzgqa9h1chkatb7,22,3,2,78,21,pd,3,0.0,1.0,21.098,1,1,0.0
00opkwd7awzgqa9h1chkatb7,23,3,2,372,78,pd,3,0.0,1.0,12.725,1,1,0.0
00opkwd7awzgqa9h1chkatb7,24,3,2,185,44,pd,2,0.0,1.0,17.636,1,1,0.0
0af8m8vd05kpl9g96dleaawk,1,3,1,244,55,pd,1,1.0,0.0,7.456,1,1,0.0
0af8m8vd05kpl9g96dleaawk,2,3,1,132,30,pd,3,0.0,1.0,11.174,1,1,0.0
0af8m8vd05kpl9g96dleaawk,3,3,1,292,64,pd,1,3.0,0.0,7.669,1,1,0.0
0af8m8vd05kpl9g96dleaawk,4,3,1,192,45,pd,3,0.0,1.0,13.601,1,1,0.0
0af8m8vd05kpl9g96dleaawk,5,3,1,148,35,pd,1,1.0,0.0,10.209,1,1,0.0
0af8m8vd05kpl9g96dleaawk,6,3,1,334,72,pd,1,1.0,0.0,15.097,1,1,0.0
0af8m8vd05kpl9g96dleaawk,7,3,1,112,27,pd,1,2.0,0.0,20.252,1,1,0.0
0af8m8vd05kpl9g96dleaawk,8,3,1,378,79,pd,3,1.0,0.0,14.859,1,1,0.0
0af8m8vd05kpl9g96dleaawk,9,3,1,125,29,pd,2,1.0,0.0,16.81,1,1,0.0
0af8m8vd05kpl9g96dleaawk,10,3,1,96,24,pd,3,0.0,1.0,16.197,1,1,0.0
0af8m8vd05kpl9g96dleaawk,11,3,1,180,42,pd,3,0.0,1.0,23.862,1,1,0.0
0af8m8vd05kpl9g96dleaawk,12,3,1,238,54,pd,1,2.0,0.0,8.848,1,1,0.0
0af8m8vd05kpl9g96dleaawk,13,3,1,54,17,pd,3,2.0,0.0,27.66,1,1,0.0
0af8m8vd05kpl9g96dleaawk,14,3,1,255,58,md,3,3.0,0.0,11.623,1,1,0.0
0af8m8vd05kpl9g96dleaawk,15,3,1,341,73,pd,2,1.0,0.0,18.616,1,1,0.0
0af8m8vd05kpl9g96dleaawk,16,3,1,156,36,pd,3,1.0,0.0,24.88,1,1,0.0
0af8m8vd05kpl9g96dleaawk,17,3,1,288,63,pd,3,3.0,0.0,26.388,1,1,0.0
0af8m8vd05kpl9g96dleaawk,18,3,1,353,75,pd,2,1.0,0.0,18.734,1,1,0.0
0af8m8vd05kpl9g96dleaawk,19,3,1,348,74,pd,3,3.0,0.0,10.613,1,1,0.0
0af8m8vd05kpl9g96dleaawk,20,3,1,358,76,pd,1,3.0,0.0,5.289,1,1,0.0
0af8m8vd05kpl9g96dleaawk,21,3,1,383,80,pd,2,2.0,0.0,7.084,1,1,0.0
0af8m8vd05kpl9g96dleaawk,22,3,1,305,66,pd,2,3.0,0.0,14.741,1,1,0.0
0af8m8vd05kpl9g96dleaawk,23,3,1,76,21,pd,1,1.0,0.0,18.872,1,1,0.0
0af8m8vd05kpl9g96dleaawk,24,3,1,370,78,pd,1,1.0,0.0,18.159,1,1,0.0
0e9qwccw7eimsfl2pbs4b6cm,1,3,2,190,45,pd,1,0.0,1.0,13.911,1,1,0.0
0e9qwccw7eimsfl2pbs4b6cm,2,3,2,130,30,pd,1,3.0,0.0,25.889,1,1,0.0
0e9qwccw7eimsfl2pbs4b6cm,3,3,2,246,55,pd,3,0.0,1.0,15.891,1,1,0.0
0e9qwccw7eimsfl2pbs4b6cm,4,3,2,254,58,md,2,1.0,0.0,21.177,1,1,0.0
0e9qwccw7eimsfl2pbs4b6cm,5,3,2,178,42,pd,1,3.0,0.0,27.689,1,1,0.0
0e9qwccw7eimsfl2pbs4b6cm,6,3,2,227,52,pd,2,0.0,1.0,18.074,1,1,0.0
0e9qwccw7eimsfl2pbs4b6cm,7,3,2,126,29,pd,3,0.0,1.0,16.537,1,1,0.0
0e9qwccw7eimsfl2pbs4b6cm,8,3,2,94,24,pd,1,0.0,1.0,7.835,1,1,0.0
0e9qwccw7eimsfl2pbs4b6cm,9,3,2,53,17,pd,2,0.0,1.0,8.844,1,1,0.0
0e9qwccw7eimsfl2pbs4b6cm,10,3,2,359,76,pd,2,0.0,1.0,13.801,1,1,0.0
0e9qwccw7eimsfl2pbs4b6cm,11,3,2,354,75,pd,3,0.0,1.0,20.709,1,1,0.0
0e9qwccw7eimsfl2pbs4b6cm,12,3,2,335,72,pd,2,0.0,1.0,11.512,1,1,0.0
0e9qwccw7eimsfl2pbs4b6cm,13,3,2,149,35,pd,2,1.0,0.0,6.895,1,1,0.0
0e9qwccw7eimsfl2pbs4b6cm,14,3,2,154,36,pd,1,1.0,0.0,10.443,1,1,0.0
0e9qwccw7eimsfl2pbs4b6cm,15,3,2,294,64,pd,3,2.0,0.0,11.486,1,1,0.0
0e9qwccw7eimsfl2pbs4b6cm,16,3,2,382,80,pd,1,3.0,0.0,15.329,1,1,0.0
0e9qwccw7eimsfl2pbs4b6cm,17,3,2,346,74,pd,1,0.0,1.0,9.853,1,1,0.0
0e9qwccw7eimsfl2pbs4b6cm,18,3,2,197,46,pd,2,0.0,1.0,18.495,1,1,0.0
0e9qwccw7eimsfl2pbs4b6cm,19,3,2,263,59,pd,2,0.0,1.0,14.6,1,1,0.0
0e9qwccw7eimsfl2pbs4b6cm,20,3,2,306,66,pd,3,0.0,1.0,16.055,1,1,0.0
0e9qwccw7eimsfl2pbs4b6cm,21,3,2,286,63,pd,1,1.0,0.0,12.939,1,1,0.0
0e9qwccw7eimsfl2pbs4b6cm,22,3,2,78,21,pd,3,0.0,1.0,17.139,1,1,0.0
0e9qwccw7eimsfl2pbs4b6cm,23,3,2,372,78,pd,3,1.0,0.0,12.706,1,1,0.0
0e9qwccw7eimsfl2pbs4b6cm,24,3,2,185,44,pd,2,0.0,1.0,10.938,1,1,0.0
0hf8jjojdoaxbxzmrm55mh8g,1,3,1,244,55,pd,1,0.0,1.0,15.403,1,1,0.0
0hf8jjojdoaxbxzmrm55mh8g,2,3,1,132,30,pd,3,0.0,1.0,7.02,1,1,0.0
0hf8jjojdoaxbxzmrm55mh8g,3,3,1,292,64,pd,1,0.0,1.0,9.536,1,1,0.0
0hf8jjojdoaxbxzmrm55mh8g,4,3,1,192,45,pd,3,0.0,1.0,20.879,1,1,0.0
0hf8jjojdoaxbxzmrm55mh8g,5,3,1,148,35,pd,1,0.0,1.0,9.664,1,1,0.0
0hf8jjojdoaxbxzmrm55mh8g,6,3,1,334,72,pd,1,0.0,1.0,11.988,1,1,0.0
0hf8jjojdoaxbxzmrm55mh8g,7,3,1,112,27,pd,1,0.0,1.0,15.897,1,1,0.0
0hf8jjojdoaxbxzmrm55mh8g,8,3,1,378,79,pd,3,0.0,1.0,11.675,1,1,0.0
0hf8jjojdoaxbxzmrm55mh8g,9,3,1,125,29,pd,2,0.0,1.0,20.779,1,1,0.0
0hf8jjojdoaxbxzmrm55mh8g,10,3,1,96,24,pd,3,0.0,1.0,27.755,1,1,0.0
0hf8jjojdoaxbxzmrm55mh8g,11,3,1,180,42,pd,3,0.0,1.0,9.022,1,1,0.0
0hf8jjojdoaxbxzmrm55mh8g,12,3,1,238,54,pd,1,0.0,1.0,14.257,1,1,0.0
0hf8jjojdoaxbxzmrm55mh8g,13,3,1,54,17,pd,3,0.0,1.0,29.955,1,1,0.0
0hf8jjojdoaxbxzmrm55mh8g,14,3,1,255,58,md,3,0.0,1.0,12.504,1,1,0.0
0hf8jjojdoaxbxzmrm55mh8g,15,3,1,341,73,pd,2,0.0,1.0,18.379,1,1,0.0
0hf8jjojdoaxbxzmrm55mh8g,16,3,1,156,36,pd,3,,,,1,1,0.0
0hf8jjojdoaxbxzmrm55mh8g,17,3,1,288,63,pd,3,0.0,1.0,18.132,1,1,0.0
0hf8jjojdoaxbxzmrm55mh8g,18,3,1,353,75,pd,2,0.0,1.0,23.142,1,1,0.0
0hf8jjojdoaxbxzmrm55mh8g,19,3,1,348,74,pd,3,0.0,1.0,18.435,1,1,0.0
0hf8jjojdoaxbxzmrm55mh8g,20,3,1,358,76,pd,1,0.0,1.0,23.812,1,1,0.0
0hf8jjojdoaxbxzmrm55mh8g,21,3,1,383,80,pd,2,0.0,1.0,16.518,1,1,0.0
0hf8jjojdoaxbxzmrm55mh8g,22,3,1,305,66,pd,2,0.0,1.0,15.635,1,1,0.0
0hf8jjojdoaxbxzmrm55mh8g,23,3,1,76,21,pd,1,0.0,1.0,23.967,1,1,0.0
0hf8jjojdoaxbxzmrm55mh8g,24,3,1,370,78,pd,1,,,,1,1,0.0
0qta4h7wo9w67l6wv9t7xuh5,1,3,1,244,55,pd,1,0.0,1.0,12.039,1,1,0.0
0qta4h7wo9w67l6wv9t7xuh5,2,3,1,132,30,pd,3,0.0,1.0,18.813,1,1,0.0
0qta4h7wo9w67l6wv9t7xuh5,3,3,1,292,64,pd,1,0.0,1.0,17.759,1,1,0.0
0qta4h7wo9w67l6wv9t7xuh5,4,3,1,192,45,pd,3,0.0,1.0,14.142,1,1,0.0
0qta4h7wo9w67l6wv9t7xuh5,5,3,1,148,35,pd,1,0.0,1.0,20.181,1,1,0.0
0qta4h7wo9w67l6wv9t7xuh5,6,3,1,334,72,pd,1,0.0,1.0,25.742,1,1,0.0
0qta4h7wo9w67l6wv9t7xuh5,7,3,1,112,27,pd,1,0.0,1.0,14.294,1,1,0.0
0qta4h7wo9w67l6wv9t7xuh5,8,3,1,378,79,pd,3,0.0,1.0,14.839,1,1,0.0
0qta4h7wo9w67l6wv9t7xuh5,9,3,1,125,29,pd,2,0.0,1.0,17.358,1,1,0.0
0qta4h7wo9w67l6wv9t7xuh5,10,3,1,96,24,pd,3,0.0,1.0,17.942,1,1,0.0
0qta4h7wo9w67l6wv9t7xuh5,11,3,1,180,42,pd,3,0.0,1.0,26.246,1,1,0.0
0qta4h7wo9w67l6wv9t7xuh5,12,3,1,238,54,pd,1,0.0,1.0,10.734,1,1,0.0
0qta4h7wo9w67l6wv9t7xuh5,13,3,1,54,17,pd,3,0.0,1.0,10.581,1,1,0.0
0qta4h7wo9w67l6wv9t7xuh5,14,3,1,255,58,md,3,0.0,1.0,14.95,1,1,0.0
0qta4h7wo9w67l6wv9t7xuh5,15,3,1,341,73,pd,2,0.0,1.0,18.734,1,1,0.0
0qta4h7wo9w67l6wv9t7xuh5,16,3,1,156,36,pd,3,0.0,1.0,27.534,1,1,0.0
0qta4h7wo9w67l6wv9t7xuh5,17,3,1,288,63,pd,3,0.0,1.0,17.078,1,1,0.0
0qta4h7wo9w67l6wv9t7xuh5,18,3,1,353,75,pd,2,0.0,1.0,16.133,1,1,0.0
0qta4h7wo9w67l6wv9t7xuh5,19,3,1,348,74,pd,3,0.0,1.0,14.27,1,1,0.0
0qta4h7wo9w67l6wv9t7xuh5,20,3,1,358,76,pd,1,0.0,1.0,20.654,1,1,0.0
0qta4h7wo9w67l6wv9t7xuh5,21,3,1,383,80,pd,2,0.0,1.0,17.094,1,1,0.0
0qta4h7wo9w67l6wv9t7xuh5,22,3,1,305,66,pd,2,3.0,0.0,27.766,1,1,0.0
0qta4h7wo9w67l6wv9t7xuh5,23,3,1,76,21,pd,1,0.0,1.0,18.214,1,1,0.0
0qta4h7wo9w67l6wv9t7xuh5,24,3,1,370,78,pd,1,0.0,1.0,16.414,1,1,0.0
0rg80htu2vmqet6c8ogj75pm,1,3,1,244,55,pd,1,0.0,1.0,6.638,1,1,0.0
0rg80htu2vmqet6c8ogj75pm,2,3,1,132,30,pd,3,2.0,0.0,11.448,1,1,0.0
0rg80htu2vmqet6c8ogj75pm,3,3,1,292,64,pd,1,1.0,0.0,15.056,1,1,0.0
0rg80htu2vmqet6c8ogj75pm,4,3,1,192,45,pd,3,0.0,1.0,10.072,1,1,0.0
0rg80htu2vmqet6c8ogj75pm,5,3,1,148,35,pd,1,0.0,1.0,13.81,1,1,0.0
0rg80htu2vmqet6c8ogj75pm,6,3,1,334,72,pd,1,3.0,0.0,22.009,1,1,0.0
0rg80htu2vmqet6c8ogj75pm,7,3,1,112,27,pd,1,0.0,1.0,11.082,1,1,0.0
0rg80htu2vmqet6c8ogj75pm,8,3,1,378,79,pd,3,0.0,1.0,10.344,1,1,0.0
0rg80htu2vmqet6c8ogj75pm,9,3,1,125,29,pd,2,3.0,0.0,6.943,1,1,0.0
0rg80htu2vmqet6c8ogj75pm,10,3,1,96,24,pd,3,3.0,0.0,23.874,1,1,0.0
0rg80htu2vmqet6c8ogj75pm,11,3,1,180,42,pd,3,0.0,1.0,20.418,1,1,0.0
0rg80htu2vmqet6c8ogj75pm,12,3,1,238,54,pd,1,0.0,1.0,12.369,1,1,0.0
0rg80htu2vmqet6c8ogj75pm,13,3,1,54,17,pd,3,0.0,1.0,11.982,1,1,0.0
0rg80htu2vmqet6c8ogj75pm,14,3,1,255,58,md,3,1.0,0.0,9.01,1,1,0.0
0rg80htu2vmqet6c8ogj75pm,15,3,1,341,73,pd,2,0.0,1.0,14.155,1,1,0.0
0rg80htu2vmqet6c8ogj75pm,16,3,1,156,36,pd,3,1.0,0.0,22.914,1,1,0.0
0rg80htu2vmqet6c8ogj75pm,17,3,1,288,63,pd,3,1.0,0.0,17.064,1,1,0.0
0rg80htu2vmqet6c8ogj75pm,18,3,1,353,75,pd,2,0.0,1.0,25.506,1,1,0.0
0rg80htu2vmqet6c8ogj75pm,19,3,1,348,74,pd,3,3.0,0.0,8.121,1,1,0.0
0rg80htu2vmqet6c8ogj75pm,20,3,1,358,76,pd,1,3.0,0.0,20.219,1,1,0.0
0rg80htu2vmqet6c8ogj75pm,21,3,1,383,80,pd,2,3.0,0.0,6.737,1,1,0.0
0rg80htu2vmqet6c8ogj75pm,22,3,1,305,66,pd,2,3.0,0.0,12.514,1,1,0.0
0rg80htu2vmqet6c8ogj75pm,23,3,1,76,21,pd,1,0.0,1.0,13.088,1,1,0.0
0rg80htu2vmqet6c8ogj75pm,24,3,1,370,78,pd,1,0.0,1.0,18.706,1,1,0.0
0wrkswo77f21a3hjsymcp1hn,1,3,2,190,45,pd,1,0.0,1.0,12.419,1,1,0.0
0wrkswo77f21a3hjsymcp1hn,2,3,2,130,30,pd,1,0.0,1.0,8.43,1,1,0.0
0wrkswo77f21a3hjsymcp1hn,3,3,2,246,55,pd,3,0.0,1.0,13.392,1,1,0.0
0wrkswo77f21a3hjsymcp1hn,4,3,2,254,58,md,2,0.0,1.0,20.002,1,1,0.0
0wrkswo77f21a3hjsymcp1hn,5,3,2,178,42,pd,1,1.0,0.0,28.739,1,1,0.0
0wrkswo77f21a3hjsymcp1hn,6,3,2,227,52,pd,2,0.0,1.0,17.409,1,1,0.0
0wrkswo77f21a3hjsymcp1hn,7,3,2,126,29,pd,3,0.0,1.0,14.39,1,1,0.0
0wrkswo77f21a3hjsymcp1hn,8,3,2,94,24,pd,1,0.0,1.0,9.905,1,1,0.0
0wrkswo77f21a3hjsymcp1hn,9,3,2,53,17,pd,2,0.0,1.0,29.035,1,1,0.0
0wrkswo77f21a3hjsymcp1hn,10,3,2,359,76,pd,2,0.0,1.0,15.608,1,1,0.0
0wrkswo77f21a3hjsymcp1hn,11,3,2,354,75,pd,3,0.0,1.0,15.296,1,1,0.0
0wrkswo77f21a3hjsymcp1hn,12,3,2,335,72,pd,2,0.0,1.0,18.554,1,1,0.0
0wrkswo77f21a3hjsymcp1hn,13,3,2,149,35,pd,2,0.0,1.0,13.582,1,1,0.0
0wrkswo77f21a3hjsymcp1hn,14,3,2,154,36,pd,1,1.0,0.0,25.66,1,1,0.0
0wrkswo77f21a3hjsymcp1hn,15,3,2,294,64,pd,3,3.0,0.0,25.713,1,1,0.0
0wrkswo77f21a3hjsymcp1hn,16,3,2,382,80,pd,1,0.0,1.0,27.764,1,1,0.0
0wrkswo77f21a3hjsymcp1hn,17,3,2,346,74,pd,1,0.0,1.0,21.916,1,1,0.0
0wrkswo77f21a3hjsymcp1hn,18,3,2,197,46,pd,2,0.0,1.0,27.633,1,1,0.0
0wrkswo77f21a3hjsymcp1hn,19,3,2,263,59,pd,2,0.0,1.0,23.564,1,1,0.0
0wrkswo77f21a3hjsymcp1hn,20,3,2,306,66,pd,3,1.0,0.0,27.876,1,1,0.0
0wrkswo77f21a3hjsymcp1hn,21,3,2,286,63,pd,1,0.0,1.0,17.464,1,1,0.0
0wrkswo77f21a3hjsymcp1hn,22,3,2,78,21,pd,3,0.0,1.0,29.488,1,1,0.0
0wrkswo77f21a3hjsymcp1hn,23,3,2,372,78,pd,3,,,,1,1,0.0
0wrkswo77f21a3hjsymcp1hn,24,3,2,185,44,pd,2,0.0,1.0,10.422,1,1,0.0
0xr853tx41e84exdudc3h5a7,1,3,2,190,45,pd,1,0.0,1.0,17.007,1,1,0.0
0xr853tx41e84exdudc3h5a7,2,3,2,130,30,pd,1,0.0,1.0,10.827,1,1,0.0
0xr853tx41e84exdudc3h5a7,3,3,2,246,55,pd,3,0.0,1.0,17.04,1,1,0.0
0xr853tx41e84exdudc3h5a7,4,3,2,254,58,md,2,0.0,1.0,14.94,1,1,0.0
0xr853tx41e84exdudc3h5a7,5,3,2,178,42,pd,1,0.0,1.0,24.125,1,1,0.0
0xr853tx41e84exdudc3h5a7,6,3,2,227,52,pd,2,0.0,1.0,28.408,1,1,0.0
0xr853tx41e84exdudc3h5a7,7,3,2,126,29,pd,3,0.0,1.0,12.043,1,1,0.0
0xr853tx41e84exdudc3h5a7,8,3,2,94,24,pd,1,0.0,1.0,12.994,1,1,0.0
0xr853tx41e84exdudc3h5a7,9,3,2,53,17,pd,2,1.0,0.0,24.978,1,1,0.0
0xr853tx41e84exdudc3h5a7,10,3,2,359,76,pd,2,0.0,1.0,18.795,1,1,0.0
0xr853tx41e84exdudc3h5a7,11,3,2,354,75,pd,3,0.0,1.0,21.129,1,1,0.0
0xr853tx41e84exdudc3h5a7,12,3,2,335,72,pd,2,0.0,1.0,25.093,1,1,0.0
0xr853tx41e84exdudc3h5a7,13,3,2,149,35,pd,2,0.0,1.0,17.422,1,1,0.0
0xr853tx41e84exdudc3h5a7,14,3,2,154,36,pd,1,0.0,1.0,25.708,1,1,0.0
0xr853tx41e84exdudc3h5a7,15,3,2,294,64,pd,3,0.0,1.0,20.974,1,1,0.0
0xr853tx41e84exdudc3h5a7,16,3,2,382,80,pd,1,0.0,1.0,25.445,1,1,0.0
0xr853tx41e84exdudc3h5a7,17,3,2,346,74,pd,1,0.0,1.0,22.044,1,1,0.0
0xr853tx41e84exdudc3h5a7,18,3,2,197,46,pd,2,0.0,1.0,27.096,1,1,0.0
0xr853tx41e84exdudc3h5a7,19,3,2,263,59,pd,2,0.0,1.0,15.077,1,1,0.0
0xr853tx41e84exdudc3h5a7,20,3,2,306,66,pd,3,1.0,0.0,25.78,1,1,0.0
0xr853tx41e84exdudc3h5a7,21,3,2,286,63,pd,1,0.0,1.0,20.925,1,1,0.0
0xr853tx41e84exdudc3h5a7,22,3,2,78,21,pd,3,0.0,1.0,19.678,1,1,0.0
0xr853tx41e84exdudc3h5a7,23,3,2,372,78,pd,3,2.0,0.0,23.429,1,1,0.0
0xr853tx41e84exdudc3h5a7,24,3,2,185,44,pd,2,2.0,0.0,28.078,1,1,0.0
0yjypuwaxeljdp7zpt8fnobu,1,3,1,244,55,pd,1,1.0,0.0,10.572,1,1,0.0
0yjypuwaxeljdp7zpt8fnobu,2,3,1,132,30,pd,3,3.0,0.0,17.723,1,1,0.0
0yjypuwaxeljdp7zpt8fnobu,3,3,1,292,64,pd,1,2.0,0.0,17.524,1,1,0.0
0yjypuwaxeljdp7zpt8fnobu,4,3,1,192,45,pd,3,0.0,1.0,19.008,1,1,0.0
0yjypuwaxeljdp7zpt8fnobu,5,3,1,148,35,pd,1,0.0,1.0,17.818,1,1,0.0
0yjypuwaxeljdp7zpt8fnobu,6,3,1,334,72,pd,1,2.0,0.0,16.104,1,1,0.0
0yjypuwaxeljdp7zpt8fnobu,7,3,1,112,27,pd,1,2.0,0.0,16.29,1,1,0.0
0yjypuwaxeljdp7zpt8fnobu,8,3,1,378,79,pd,3,0.0,1.0,20.932,1,1,0.0
0yjypuwaxeljdp7zpt8fnobu,9,3,1,125,29,pd,2,2.0,0.0,22.888,1,1,0.0
0yjypuwaxeljdp7zpt8fnobu,10,3,1,96,24,pd,3,0.0,1.0,20.152,1,1,0.0
0yjypuwaxeljdp7zpt8fnobu,11,3,1,180,42,pd,3,3.0,0.0,20.758,1,1,0.0
0yjypuwaxeljdp7zpt8fnobu,12,3,1,238,54,pd,1,0.0,1.0,15.983,1,1,0.0
0yjypuwaxeljdp7zpt8fnobu,13,3,1,54,17,pd,3,0.0,1.0,10.484,1,1,0.0
0yjypuwaxeljdp7zpt8fnobu,14,3,1,255,58,md,3,3.0,0.0,20.143,1,1,0.0
0yjypuwaxeljdp7zpt8fnobu,15,3,1,341,73,pd,2,0.0,1.0,18.133,1,1,0.0
0yjypuwaxeljdp7zpt8fnobu,16,3,1,156,36,pd,3,0.0,1.0,14.947,1,1,0.0
0yjypuwaxeljdp7zpt8fnobu,17,3,1,288,63,pd,3,1.0,0.0,15.263,1,1,0.0
0yjypuwaxeljdp7zpt8fnobu,18,3,1,353,75,pd,2,3.0,0.0,17.288,1,1,0.0
0yjypuwaxeljdp7zpt8fnobu,19,3,1,348,74,pd,3,1.0,0.0,23.988,1,1,0.0
0yjypuwaxeljdp7zpt8fnobu,20,3,1,358,76,pd,1,3.0,0.0,12.809,1,1,0.0
0yjypuwaxeljdp7zpt8fnobu,21,3,1,383,80,pd,2,1.0,0.0,16.811,1,1,0.0
0yjypuwaxeljdp7zpt8fnobu,22,3,1,305,66,pd,2,3.0,0.0,13.988,1,1,0.0
0yjypuwaxeljdp7zpt8fnobu,23,3,1,76,21,pd,1,2.0,0.0,12.988,1,1,0.0
0yjypuwaxeljdp7zpt8fnobu,24,3,1,370,78,pd,1,1.0,0.0,11.902,1,1,0.0
0yzas42aj8441yl80onu1oa7,1,3,2,190,45,pd,1,0.0,1.0,9.171,1,1,0.0
0yzas42aj8441yl80onu1oa7,2,3,2,130,30,pd,1,0.0,1.0,6.448,1,1,0.0
0yzas42aj8441yl80onu1oa7,3,3,2,246,55,pd,3,0.0,1.0,10.266,1,1,0.0
0yzas42aj8441yl80onu1oa7,4,3,2,254,58,md,2,0.0,1.0,16.482,1,1,0.0
0yzas42aj8441yl80onu1oa7,5,3,2,178,42,pd,1,0.0,1.0,27.598,1,1,0.0
0yzas42aj8441yl80onu1oa7,6,3,2,227,52,pd,2,0.0,1.0,21.246,1,1,0.0
0yzas42aj8441yl80onu1oa7,7,3,2,126,29,pd,3,0.0,1.0,15.293,1,1,0.0
0yzas42aj8441yl80onu1oa7,8,3,2,94,24,pd,1,0.0,1.0,8.314,1,1,0.0
0yzas42aj8441yl80onu1oa7,9,3,2,53,17,pd,2,0.0,1.0,14.901,1,1,0.0
0yzas42aj8441yl80onu1oa7,10,3,2,359,76,pd,2,0.0,1.0,18.858,1,1,0.0
0yzas42aj8441yl80onu1oa7,11,3,2,354,75,pd,3,0.0,1.0,8.289,1,1,0.0
0yzas42aj8441yl80onu1oa7,12,3,2,335,72,pd,2,0.0,1.0,11.078,1,1,0.0
0yzas42aj8441yl80onu1oa7,13,3,2,149,35,pd,2,0.0,1.0,13.239,1,1,0.0
0yzas42aj8441yl80onu1oa7,14,3,2,154,36,pd,1,0.0,1.0,13.836,1,1,0.0
0yzas42aj8441yl80onu1oa7,15,3,2,294,64,pd,3,2.0,0.0,12.015,1,1,0.0
0yzas42aj8441yl80onu1oa7,16,3,2,382,80,pd,1,0.0,1.0,11.058,1,1,0.0
0yzas42aj8441yl80onu1oa7,17,3,2,346,74,pd,1,0.0,1.0,8.413,1,1,0.0
0yzas42aj8441yl80onu1oa7,18,3,2,197,46,pd,2,0.0,1.0,12.149,1,1,0.0
0yzas42aj8441yl80onu1oa7,19,3,2,263,59,pd,2,0.0,1.0,6.264,1,1,0.0
0yzas42aj8441yl80onu1oa7,20,3,2,306,66,pd,3,0.0,1.0,23.999,1,1,0.0
0yzas42aj8441yl80onu1oa7,21,3,2,286,63,pd,1,0.0,1.0,10.276,1,1,0.0
0yzas42aj8441yl80onu1oa7,22,3,2,78,21,pd,3,0.0,1.0,13.173,1,1,0.0
0yzas42aj8441yl80onu1oa7,23,3,2,372,78,pd,3,0.0,1.0,14.096,1,1,0.0
0yzas42aj8441yl80onu1oa7,24,3,2,185,44,pd,2,0.0,1.0,9.125,1,1,0.0
12oqbznod63fueceo4cfcfds,1,3,2,190,45,pd,1,0.0,1.0,17.803,1,1,0.0
12oqbznod63fueceo4cfcfds,2,3,2,130,30,pd,1,2.0,0.0,28.004,1,1,0.0
12oqbznod63fueceo4cfcfds,3,3,2,246,55,pd,3,0.0,1.0,16.868,1,1,0.0
12oqbznod63fueceo4cfcfds,4,3,2,254,58,md,2,0.0,1.0,20.917,1,1,0.0
12oqbznod63fueceo4cfcfds,5,3,2,178,42,pd,1,0.0,1.0,29.5,1,1,0.0
12oqbznod63fueceo4cfcfds,6,3,2,227,52,pd,2,0.0,1.0,21.173,1,1,0.0
12oqbznod63fueceo4cfcfds,7,3,2,126,29,pd,3,0.0,1.0,18.284,1,1,0.0
12oqbznod63fueceo4cfcfds,8,3,2,94,24,pd,1,0.0,1.0,16.029,1,1,0.0
12oqbznod63fueceo4cfcfds,9,3,2,53,17,pd,2,0.0,1.0,15.541,1,1,0.0
12oqbznod63fueceo4cfcfds,10,3,2,359,76,pd,2,0.0,1.0,9.558,1,1,0.0
12oqbznod63fueceo4cfcfds,11,3,2,354,75,pd,3,0.0,1.0,14.597,1,1,0.0
12oqbznod63fueceo4cfcfds,12,3,2,335,72,pd,2,0.0,1.0,17.917,1,1,0.0
12oqbznod63fueceo4cfcfds,13,3,2,149,35,pd,2,0.0,1.0,17.307,1,1,0.0
12oqbznod63fueceo4cfcfds,14,3,2,154,36,pd,1,0.0,1.0,26.381,1,1,0.0
12oqbznod63fueceo4cfcfds,15,3,2,294,64,pd,3,0.0,1.0,27.916,1,1,0.0
12oqbznod63fueceo4cfcfds,16,3,2,382,80,pd,1,0.0,1.0,25.765,1,1,0.0
12oqbznod63fueceo4cfcfds,17,3,2,346,74,pd,1,0.0,1.0,13.092,1,1,0.0
12oqbznod63fueceo4cfcfds,18,3,2,197,46,pd,2,0.0,1.0,21.918,1,1,0.0
12oqbznod63fueceo4cfcfds,19,3,2,263,59,pd,2,0.0,1.0,7.908,1,1,0.0
12oqbznod63fueceo4cfcfds,20,3,2,306,66,pd,3,0.0,1.0,20.07,1,1,0.0
12oqbznod63fueceo4cfcfds,21,3,2,286,63,pd,1,0.0,1.0,11.42,1,1,0.0
12oqbznod63fueceo4cfcfds,22,3,2,78,21,pd,3,0.0,1.0,15.109,1,1,0.0
12oqbznod63fueceo4cfcfds,23,3,2,372,78,pd,3,0.0,1.0,12.123,1,1,0.0
12oqbznod63fueceo4cfcfds,24,3,2,185,44,pd,2,0.0,1.0,9.277,1,1,0.0
13iz5bo1l5yos37ee8tim83t,1,3,1,244,55,pd,1,0.0,1.0,4.603,1,1,0.0
13iz5bo1l5yos37ee8tim83t,2,3,1,132,30,pd,3,0.0,1.0,11.809,1,1,0.0
13iz5bo1l5yos37ee8tim83t,3,3,1,292,64,pd,1,1.0,0.0,9.49,1,1,0.0
13iz5bo1l5yos37ee8tim83t,4,3,1,192,45,pd,3,2.0,0.0,7.143,1,1,0.0
13iz5bo1l5yos37ee8tim83t,5,3,1,148,35,pd,1,3.0,0.0,10.946,1,1,0.0
13iz5bo1l5yos37ee8tim83t,6,3,1,334,72,pd,1,2.0,0.0,11.047,1,1,0.0
13iz5bo1l5yos37ee8tim83t,7,3,1,112,27,pd,1,0.0,1.0,11.86,1,1,0.0
13iz5bo1l5yos37ee8tim83t,8,3,1,378,79,pd,3,1.0,0.0,19.419,1,1,0.0
13iz5bo1l5yos37ee8tim83t,9,3,1,125,29,pd,2,0.0,1.0,19.754,1,1,0.0
13iz5bo1l5yos37ee8tim83t,10,3,1,96,24,pd,3,0.0,1.0,14.883,1,1,0.0
13iz5bo1l5yos37ee8tim83t,11,3,1,180,42,pd,3,1.0,0.0,9.242,1,1,0.0
13iz5bo1l5yos37ee8tim83t,12,3,1,238,54,pd,1,0.0,1.0,14.374,1,1,0.0
13iz5bo1l5yos37ee8tim83t,13,3,1,54,17,pd,3,0.0,1.0,28.028,1,1,0.0
13iz5bo1l5yos37ee8tim83t,14,3,1,255,58,md,3,1.0,0.0,11.414,1,1,0.0
13iz5bo1l5yos37ee8tim83t,15,3,1,341,73,pd,2,1.0,0.0,8.327,1,1,0.0
13iz5bo1l5yos37ee8tim83t,16,3,1,156,36,pd,3,3.0,0.0,25.235,1,1,0.0
13iz5bo1l5yos37ee8tim83t,17,3,1,288,63,pd,3,2.0,0.0,13.724,1,1,0.0
13iz5bo1l5yos37ee8tim83t,18,3,1,353,75,pd,2,0.0,1.0,13.364,1,1,0.0
13iz5bo1l5yos37ee8tim83t,19,3,1,348,74,pd,3,1.0,0.0,23.083,1,1,0.0
13iz5bo1l5yos37ee8tim83t,20,3,1,358,76,pd,1,0.0,1.0,28.769,1,1,0.0
13iz5bo1l5yos37ee8tim83t,21,3,1,383,80,pd,2,1.0,0.0,9.488,1,1,0.0
13iz5bo1l5yos37ee8tim83t,22,3,1,305,66,pd,2,0.0,1.0,14.072,1,1,0.0
13iz5bo1l5yos37ee8tim83t,23,3,1,76,21,pd,1,,,,1,1,0.0
13iz5bo1l5yos37ee8tim83t,24,3,1,370,78,pd,1,0.0,1.0,11.02,1,1,0.0
13ticam2vjw4xyavfc8lohfl,1,3,2,190,45,pd,1,0.0,1.0,16.006,1,1,0.0
13ticam2vjw4xyavfc8lohfl,2,3,2,130,30,pd,1,0.0,1.0,12.807,1,1,0.0
13ticam2vjw4xyavfc8lohfl,3,3,2,246,55,pd,3,0.0,1.0,11.647,1,1,0.0
13ticam2vjw4xyavfc8lohfl,4,3,2,254,58,md,2,0.0,1.0,14.696,1,1,0.0
13ticam2vjw4xyavfc8lohfl,5,3,2,178,42,pd,1,0.0,1.0,25.576,1,1,0.0
13ticam2vjw4xyavfc8lohfl,6,3,2,227,52,pd,2,2.0,0.0,29.015,1,1,0.0
13ticam2vjw4xyavfc8lohfl,7,3,2,126,29,pd,3,0.0,1.0,20.024,1,1,0.0
13ticam2vjw4xyavfc8lohfl,8,3,2,94,24,pd,1,0.0,1.0,13.495,1,1,0.0
13ticam2vjw4xyavfc8lohfl,9,3,2,53,17,pd,2,0.0,1.0,13.215,1,1,0.0
13ticam2vjw4xyavfc8lohfl,10,3,2,359,76,pd,2,0.0,1.0,13.64,1,1,0.0
13ticam2vjw4xyavfc8lohfl,11,3,2,354,75,pd,3,1.0,0.0,20.392,1,1,0.0
13ticam2vjw4xyavfc8lohfl,12,3,2,335,72,pd,2,0.0,1.0,16.967,1,1,0.0
13ticam2vjw4xyavfc8lohfl,13,3,2,149,35,pd,2,0.0,1.0,20.494,1,1,0.0
13ticam2vjw4xyavfc8lohfl,14,3,2,154,36,pd,1,0.0,1.0,20.28,1,1,0.0
13ticam2vjw4xyavfc8lohfl,15,3,2,294,64,pd,3,2.0,0.0,14.848,1,1,0.0
13ticam2vjw4xyavfc8lohfl,16,3,2,382,80,pd,1,0.0,1.0,16.631,1,1,0.0
13ticam2vjw4xyavfc8lohfl,17,3,2,346,74,pd,1,0.0,1.0,18.672,1,1,0.0
13ticam2vjw4xyavfc8lohfl,18,3,2,197,46,pd,2,0.0,1.0,12.196,1,1,0.0
13ticam2vjw4xyavfc8lohfl,19,3,2,263,59,pd,2,0.0,1.0,12.84,1,1,0.0
13ticam2vjw4xyavfc8lohfl,20,3,2,306,66,pd,3,0.0,1.0,17.816,1,1,0.0
13ticam2vjw4xyavfc8lohfl,21,3,2,286,63,pd,1,0.0,1.0,13.542,1,1,0.0
13ticam2vjw4xyavfc8lohfl,22,3,2,78,21,pd,3,0.0,1.0,12.112,1,1,0.0
13ticam2vjw4xyavfc8lohfl,23,3,2,372,78,pd,3,1.0,0.0,22.064,1,1,0.0
13ticam2vjw4xyavfc8lohfl,24,3,2,185,44,pd,2,0.0,1.0,10.671,1,1,0.0
14rfd9nt8ewvau636vnsgqjs,1,3,2,190,45,pd,1,0.0,1.0,6.295,1,1,0.0
14rfd9nt8ewvau636vnsgqjs,2,3,2,130,30,pd,1,0.0,1.0,4.812,1,1,0.0
14rfd9nt8ewvau636vnsgqjs,3,3,2,246,55,pd,3,0.0,1.0,4.211,1,1,0.0
14rfd9nt8ewvau636vnsgqjs,4,3,2,254,58,md,2,0.0,1.0,4.129,1,1,0.0
14rfd9nt8ewvau636vnsgqjs,5,3,2,178,42,pd,1,1.0,0.0,7.946,1,1,0.0
14rfd9nt8ewvau636vnsgqjs,6,3,2,227,52,pd,2,0.0,1.0,5.43,1,1,0.0
14rfd9nt8ewvau636vnsgqjs,7,3,2,126,29,pd,3,3.0,0.0,8.362,1,1,0.0
14rfd9nt8ewvau636vnsgqjs,8,3,2,94,24,pd,1,3.0,0.0,7.196,1,1,0.0
14rfd9nt8ewvau636vnsgqjs,9,3,2,53,17,pd,2,0.0,1.0,8.347,1,1,0.0
14rfd9nt8ewvau636vnsgqjs,10,3,2,359,76,pd,2,0.0,1.0,4.563,1,1,0.0
14rfd9nt8ewvau636vnsgqjs,11,3,2,354,75,pd,3,3.0,0.0,5.98,1,1,0.0
14rfd9nt8ewvau636vnsgqjs,12,3,2,335,72,pd,2,2.0,0.0,3.728,1,1,0.0
14rfd9nt8ewvau636vnsgqjs,13,3,2,149,35,pd,2,0.0,1.0,2.878,1,1,0.0
14rfd9nt8ewvau636vnsgqjs,14,3,2,154,36,pd,1,0.0,1.0,2.228,1,1,0.0
14rfd9nt8ewvau636vnsgqjs,15,3,2,294,64,pd,3,0.0,1.0,4.246,1,1,0.0
14rfd9nt8ewvau636vnsgqjs,16,3,2,382,80,pd,1,3.0,0.0,4.412,1,1,0.0
14rfd9nt8ewvau636vnsgqjs,17,3,2,346,74,pd,1,1.0,0.0,2.096,1,1,0.0
14rfd9nt8ewvau636vnsgqjs,18,3,2,197,46,pd,2,2.0,0.0,3.813,1,1,0.0
14rfd9nt8ewvau636vnsgqjs,19,3,2,263,59,pd,2,1.0,0.0,1.512,1,1,0.0
14rfd9nt8ewvau636vnsgqjs,20,3,2,306,66,pd,3,0.0,1.0,4.114,1,1,0.0
14rfd9nt8ewvau636vnsgqjs,21,3,2,286,63,pd,1,3.0,0.0,8.547,1,1,0.0
14rfd9nt8ewvau636vnsgqjs,22,3,2,78,21,pd,3,0.0,1.0,3.897,1,1,0.0
14rfd9nt8ewvau636vnsgqjs,23,3,2,372,78,pd,3,0.0,1.0,3.546,1,1,0.0
14rfd9nt8ewvau636vnsgqjs,24,3,2,185,44,pd,2,3.0,0.0,2.429,1,1,0.0
199d5tnphoolwi26avp2fvmr,1,3,1,244,55,pd,1,0.0,1.0,3.602,1,1,0.0
199d5tnphoolwi26avp2fvmr,2,3,1,132,30,pd,3,0.0,1.0,5.853,1,1,0.0
199d5tnphoolwi26avp2fvmr,3,3,1,292,64,pd,1,1.0,0.0,6.645,1,1,0.0
199d5tnphoolwi26avp2fvmr,4,3,1,192,45,pd,3,1.0,0.0,7.917,1,1,0.0
199d5tnphoolwi26avp2fvmr,5,3,1,148,35,pd,1,0.0,1.0,5.567,1,1,0.0
199d5tnphoolwi26avp2fvmr,6,3,1,334,72,pd,1,2.0,0.0,20.063,1,1,0.0
199d5tnphoolwi26avp2fvmr,7,3,1,112,27,pd,1,2.0,0.0,8.781,1,1,0.0
199d5tnphoolwi26avp2fvmr,8,3,1,378,79,pd,3,0.0,1.0,13.991,1,1,0.0
199d5tnphoolwi26avp2fvmr,9,3,1,125,29,pd,2,3.0,0.0,7.86,1,1,0.0
199d5tnphoolwi26avp2fvmr,10,3,1,96,24,pd,3,3.0,0.0,10.88,1,1,0.0
199d5tnphoolwi26avp2fvmr,11,3,1,180,42,pd,3,0.0,1.0,11.316,1,1,0.0
199d5tnphoolwi26avp2fvmr,12,3,1,238,54,pd,1,0.0,1.0,6.41,1,1,0.0
199d5tnphoolwi26avp2fvmr,13,3,1,54,17,pd,3,0.0,1.0,9.24,1,1,0.0
199d5tnphoolwi26avp2fvmr,14,3,1,255,58,md,3,0.0,1.0,12.132,1,1,0.0
199d5tnphoolwi26avp2fvmr,15,3,1,341,73,pd,2,0.0,1.0,10.767,1,1,0.0
199d5tnphoolwi26avp2fvmr,16,3,1,156,36,pd,3,0.0,1.0,12.656,1,1,0.0
199d5tnphoolwi26avp2fvmr,17,3,1,288,63,pd,3,0.0,1.0,14.979,1,1,0.0
199d5tnphoolwi26avp2fvmr,18,3,1,353,75,pd,2,0.0,1.0,24.124,1,1,0.0
199d5tnphoolwi26avp2fvmr,19,3,1,348,74,pd,3,0.0,1.0,14.373,1,1,0.0
199d5tnphoolwi26avp2fvmr,20,3,1,358,76,pd,1,0.0,1.0,13.737,1,1,0.0
199d5tnphoolwi26avp2fvmr,21,3,1,383,80,pd,2,3.0,0.0,24.652,1,1,0.0
199d5tnphoolwi26avp2fvmr,22,3,1,305,66,pd,2,0.0,1.0,20.078,1,1,0.0
199d5tnphoolwi26avp2fvmr,23,3,1,76,21,pd,1,0.0,1.0,10.627,1,1,0.0
199d5tnphoolwi26avp2fvmr,24,3,1,370,78,pd,1,0.0,1.0,10.802,1,1,0.0
1dqrw1g51c3uq1q07pwif8mv,1,3,2,190,45,pd,1,0.0,1.0,15.992,1,1,0.0
1dqrw1g51c3uq1q07pwif8mv,2,3,2,130,30,pd,1,0.0,1.0,13.562,1,1,0.0
1dqrw1g51c3uq1q07pwif8mv,3,3,2,246,55,pd,3,2.0,0.0,27.583,1,1,0.0
1dqrw1g51c3uq1q07pwif8mv,4,3,2,254,58,md,2,0.0,1.0,28.004,1,1,0.0
1dqrw1g51c3uq1q07pwif8mv,5,3,2,178,42,pd,1,0.0,1.0,20.482,1,1,0.0
1dqrw1g51c3uq1q07pwif8mv,6,3,2,227,52,pd,2,0.0,1.0,12.066,1,1,0.0
1dqrw1g51c3uq1q07pwif8mv,7,3,2,126,29,pd,3,0.0,1.0,7.477,1,1,0.0
1dqrw1g51c3uq1q07pwif8mv,8,3,2,94,24,pd,1,0.0,1.0,10.13,1,1,0.0
1dqrw1g51c3uq1q07pwif8mv,9,3,2,53,17,pd,2,0.0,1.0,11.633,1,1,0.0
1dqrw1g51c3uq1q07pwif8mv,10,3,2,359,76,pd,2,0.0,1.0,7.147,1,1,0.0
1dqrw1g51c3uq1q07pwif8mv,11,3,2,354,75,pd,3,0.0,1.0,13.318,1,1,0.0
1dqrw1g51c3uq1q07pwif8mv,12,3,2,335,72,pd,2,0.0,1.0,14.768,1,1,0.0
1dqrw1g51c3uq1q07pwif8mv,13,3,2,149,35,pd,2,0.0,1.0,20.268,1,1,0.0
1dqrw1g51c3uq1q07pwif8mv,14,3,2,154,36,pd,1,0.0,1.0,11.416,1,1,0.0
1dqrw1g51c3uq1q07pwif8mv,15,3,2,294,64,pd,3,0.0,1.0,25.876,1,1,0.0
1dqrw1g51c3uq1q07pwif8mv,16,3,2,382,80,pd,1,0.0,1.0,12.208,1,1,0.0
1dqrw1g51c3uq1q07pwif8mv,17,3,2,346,74,pd,1,0.0,1.0,12.126,1,1,0.0
1dqrw1g51c3uq1q07pwif8mv,18,3,2,197,46,pd,2,0.0,1.0,23.637,1,1,0.0
1dqrw1g51c3uq1q07pwif8mv,19,3,2,263,59,pd,2,0.0,1.0,9.133,1,1,0.0
1dqrw1g51c3uq1q07pwif8mv,20,3,2,306,66,pd,3,0.0,1.0,12.418,1,1,0.0
1dqrw1g51c3uq1q07pwif8mv,21,3,2,286,63,pd,1,0.0,1.0,6.517,1,1,0.0
1dqrw1g51c3uq1q07pwif8mv,22,3,2,78,21,pd,3,0.0,1.0,19.419,1,1,0.0
1dqrw1g51c3uq1q07pwif8mv,23,3,2,372,78,pd,3,0.0,1.0,15.587,1,1,0.0
1dqrw1g51c3uq1q07pwif8mv,24,3,2,185,44,pd,2,0.0,1.0,10.593,1,1,0.0
1h8au454xkxsar0e9nk0u7fc,1,3,2,190,45,pd,1,0.0,1.0,5.696,1,1,0.0
1h8au454xkxsar0e9nk0u7fc,2,3,2,130,30,pd,1,2.0,0.0,11.99,1,1,3.0
1h8au454xkxsar0e9nk0u7fc,3,3,2,246,55,pd,3,2.0,0.0,5.435,1,1,0.0
1h8au454xkxsar0e9nk0u7fc,4,3,2,254,58,md,2,2.0,0.0,7.832,1,1,0.0
1h8au454xkxsar0e9nk0u7fc,5,3,2,178,42,pd,1,3.0,0.0,7.061,1,1,0.0
1h8au454xkxsar0e9nk0u7fc,6,3,2,227,52,pd,2,0.0,1.0,5.574,1,1,0.0
1h8au454xkxsar0e9nk0u7fc,7,3,2,126,29,pd,3,2.0,0.0,5.144,1,1,0.0
1h8au454xkxsar0e9nk0u7fc,8,3,2,94,24,pd,1,2.0,0.0,6.299,1,1,0.0
1h8au454xkxsar0e9nk0u7fc,9,3,2,53,17,pd,2,0.0,1.0,9.17,1,1,0.0
1h8au454xkxsar0e9nk0u7fc,10,3,2,359,76,pd,2,2.0,0.0,2.407,1,1,0.0
1h8au454xkxsar0e9nk0u7fc,11,3,2,354,75,pd,3,1.0,0.0,2.188,1,1,0.0
1h8au454xkxsar0e9nk0u7fc,12,3,2,335,72,pd,2,0.0,1.0,7.673,1,1,0.0
1h8au454xkxsar0e9nk0u7fc,13,3,2,149,35,pd,2,0.0,1.0,5.764,1,1,0.0
1h8au454xkxsar0e9nk0u7fc,14,3,2,154,36,pd,1,0.0,1.0,11.834,1,1,0.0
1h8au454xkxsar0e9nk0u7fc,15,3,2,294,64,pd,3,1.0,0.0,7.108,1,1,0.0
1h8au454xkxsar0e9nk0u7fc,16,3,2,382,80,pd,1,3.0,0.0,3.195,1,1,0.0
1h8au454xkxsar0e9nk0u7fc,17,3,2,346,74,pd,1,1.0,0.0,3.625,1,1,0.0
1h8au454xkxsar0e9nk0u7fc,18,3,2,197,46,pd,2,0.0,1.0,5.236,1,1,0.0
1h8au454xkxsar0e9nk0u7fc,19,3,2,263,59,pd,2,0.0,1.0,9.662,1,1,2.0
1h8au454xkxsar0e9nk0u7fc,20,3,2,306,66,pd,3,3.0,0.0,4.394,1,1,0.0
1h8au454xkxsar0e9nk0u7fc,21,3,2,286,63,pd,1,1.0,0.0,5.179,1,1,0.0
1h8au454xkxsar0e9nk0u7fc,22,3,2,78,21,pd,3,3.0,0.0,5.136,1,1,0.0
1h8au454xkxsar0e9nk0u7fc,23,3,2,372,78,pd,3,3.0,0.0,4.39,1,1,0.0
1h8au454xkxsar0e9nk0u7fc,24,3,2,185,44,pd,2,2.0,0.0,5.121,1,1,0.0
1iqt4g0qv0ps3aghmc8416op,1,3,2,190,45,pd,1,0.0,1.0,14.915,1,1,0.0
1iqt4g0qv0ps3aghmc8416op,2,3,2,130,30,pd,1,0.0,1.0,11.411,1,1,0.0
1iqt4g0qv0ps3aghmc8416op,3,3,2,246,55,pd,3,0.0,1.0,12.106,1,1,0.0
1iqt4g0qv0ps3aghmc8416op,4,3,2,254,58,md,2,0.0,1.0,16.362,1,1,0.0
1iqt4g0qv0ps3aghmc8416op,5,3,2,178,42,pd,1,0.0,1.0,21.951,1,1,0.0
1iqt4g0qv0ps3aghmc8416op,6,3,2,227,52,pd,2,0.0,1.0,16.645,1,1,0.0
1iqt4g0qv0ps3aghmc8416op,7,3,2,126,29,pd,3,3.0,0.0,18.468,1,1,0.0
1iqt4g0qv0ps3aghmc8416op,8,3,2,94,24,pd,1,0.0,1.0,27.539,1,1,0.0
1iqt4g0qv0ps3aghmc8416op,9,3,2,53,17,pd,2,0.0,1.0,15.317,1,1,0.0
1iqt4g0qv0ps3aghmc8416op,10,3,2,359,76,pd,2,0.0,1.0,13.955,1,1,0.0
1iqt4g0qv0ps3aghmc8416op,11,3,2,354,75,pd,3,0.0,1.0,21.384,1,1,0.0
1iqt4g0qv0ps3aghmc8416op,12,3,2,335,72,pd,2,0.0,1.0,14.791,1,1,0.0
1iqt4g0qv0ps3aghmc8416op,13,3,2,149,35,pd,2,0.0,1.0,18.638,1,1,0.0
1iqt4g0qv0ps3aghmc8416op,14,3,2,154,36,pd,1,0.0,1.0,26.403,1,1,0.0
1iqt4g0qv0ps3aghmc8416op,15,3,2,294,64,pd,3,3.0,0.0,16.938,1,1,0.0
1iqt4g0qv0ps3aghmc8416op,16,3,2,382,80,pd,1,3.0,0.0,12.045,1,1,0.0
1iqt4g0qv0ps3aghmc8416op,17,3,2,346,74,pd,1,0.0,1.0,25.536,1,1,0.0
1iqt4g0qv0ps3aghmc8416op,18,3,2,197,46,pd,2,0.0,1.0,24.568,1,1,0.0
1iqt4g0qv0ps3aghmc8416op,19,3,2,263,59,pd,2,1.0,0.0,22.065,1,1,0.0
1iqt4g0qv0ps3aghmc8416op,20,3,2,306,66,pd,3,1.0,0.0,11.658,1,1,0.0
1iqt4g0qv0ps3aghmc8416op,21,3,2,286,63,pd,1,0.0,1.0,17.635,1,1,0.0
1iqt4g0qv0ps3aghmc8416op,22,3,2,78,21,pd,3,0.0,1.0,18.793,1,1,0.0
1iqt4g0qv0ps3aghmc8416op,23,3,2,372,78,pd,3,0.0,1.0,11.098,1,1,0.0
1iqt4g0qv0ps3aghmc8416op,24,3,2,185,44,pd,2,1.0,0.0,14.084,1,1,0.0
1iuhw9pv3l9bb77t40ee5cf0,1,3,1,244,55,pd,1,0.0,1.0,14.228,1,1,0.0
1iuhw9pv3l9bb77t40ee5cf0,2,3,1,132,30,pd,3,0.0,1.0,23.133,1,1,0.0
1iuhw9pv3l9bb77t40ee5cf0,3,3,1,292,64,pd,1,0.0,1.0,20.369,1,1,0.0
1iuhw9pv3l9bb77t40ee5cf0,4,3,1,192,45,pd,3,0.0,1.0,19.387,1,1,0.0
1iuhw9pv3l9bb77t40ee5cf0,5,3,1,148,35,pd,1,,,,1,1,0.0
1iuhw9pv3l9bb77t40ee5cf0,6,3,1,334,72,pd,1,0.0,1.0,22.45,1,1,0.0
1iuhw9pv3l9bb77t40ee5cf0,7,3,1,112,27,pd,1,0.0,1.0,20.157,1,1,0.0
1iuhw9pv3l9bb77t40ee5cf0,8,3,1,378,79,pd,3,0.0,1.0,24.963,1,1,0.0
1iuhw9pv3l9bb77t40ee5cf0,9,3,1,125,29,pd,2,3.0,0.0,18.338,1,1,0.0
1iuhw9pv3l9bb77t40ee5cf0,10,3,1,96,24,pd,3,0.0,1.0,17.454,1,1,0.0
1iuhw9pv3l9bb77t40ee5cf0,11,3,1,180,42,pd,3,0.0,1.0,15.238,1,1,0.0
1iuhw9pv3l9bb77t40ee5cf0,12,3,1,238,54,pd,1,0.0,1.0,17.957,1,1,0.0
1iuhw9pv3l9bb77t40ee5cf0,13,3,1,54,17,pd,3,0.0,1.0,28.664,1,1,0.0
1iuhw9pv3l9bb77t40ee5cf0,14,3,1,255,58,md,3,0.0,1.0,11.743,1,1,0.0
1iuhw9pv3l9bb77t40ee5cf0,15,3,1,341,73,pd,2,0.0,1.0,16.577,1,1,0.0
1iuhw9pv3l9bb77t40ee5cf0,16,3,1,156,36,pd,3,0.0,1.0,26.083,1,1,0.0
1iuhw9pv3l9bb77t40ee5cf0,17,3,1,288,63,pd,3,0.0,1.0,22.85,1,1,0.0
1iuhw9pv3l9bb77t40ee5cf0,18,3,1,353,75,pd,2,0.0,1.0,29.215,1,1,0.0
1iuhw9pv3l9bb77t40ee5cf0,19,3,1,348,74,pd,3,0.0,1.0,12.148,1,1,0.0
1iuhw9pv3l9bb77t40ee5cf0,20,3,1,358,76,pd,1,3.0,0.0,29.318,1,1,0.0
1iuhw9pv3l9bb77t40ee5cf0,21,3,1,383,80,pd,2,0.0,1.0,23.757,1,1,0.0
1iuhw9pv3l9bb77t40ee5cf0,22,3,1,305,66,pd,2,0.0,1.0,16.468,1,1,0.0
1iuhw9pv3l9bb77t40ee5cf0,23,3,1,76,21,pd,1,2.0,0.0,22.56,1,1,0.0
1iuhw9pv3l9bb77t40ee5cf0,24,3,1,370,78,pd,1,0.0,1.0,14.805,1,1,0.0
1nwodfs49j6k5iq1n4ufiimi,1,3,1,244,55,pd,1,0.0,1.0,25.66,1,1,0.0
1nwodfs49j6k5iq1n4ufiimi,2,3,1,132,30,pd,3,0.0,1.0,24.961,1,1,0.0
1nwodfs49j6k5iq1n4ufiimi,3,3,1,292,64,pd,1,1.0,0.0,13.812,1,1,0.0
1nwodfs49j6k5iq1n4ufiimi,4,3,1,192,45,pd,3,2.0,0.0,11.893,1,1,0.0
1nwodfs49j6k5iq1n4ufiimi,5,3,1,148,35,pd,1,0.0,1.0,14.3,1,1,0.0
1nwodfs49j6k5iq1n4ufiimi,6,3,1,334,72,pd,1,0.0,1.0,26.245,1,1,0.0
1nwodfs49j6k5iq1n4ufiimi,7,3,1,112,27,pd,1,0.0,1.0,26.829,1,1,0.0
1nwodfs49j6k5iq1n4ufiimi,8,3,1,378,79,pd,3,0.0,1.0,12.314,1,1,0.0
1nwodfs49j6k5iq1n4ufiimi,9,3,1,125,29,pd,2,,,,1,1,0.0
1nwodfs49j6k5iq1n4ufiimi,10,3,1,96,24,pd,3,0.0,1.0,24.85,1,1,0.0
1nwodfs49j6k5iq1n4ufiimi,11,3,1,180,42,pd,3,0.0,1.0,27.525,1,1,0.0
1nwodfs49j6k5iq1n4ufiimi,12,3,1,238,54,pd,1,0.0,1.0,13.113,1,1,0.0
1nwodfs49j6k5iq1n4ufiimi,13,3,1,54,17,pd,3,0.0,1.0,19.89,1,1,0.0
1nwodfs49j6k5iq1n4ufiimi,14,3,1,255,58,md,3,0.0,1.0,25.584,1,1,0.0
1nwodfs49j6k5iq1n4ufiimi,15,3,1,341,73,pd,2,0.0,1.0,24.399,1,1,0.0
1nwodfs49j6k5iq1n4ufiimi,16,3,1,156,36,pd,3,0.0,1.0,22.895,1,1,0.0
1nwodfs49j6k5iq1n4ufiimi,17,3,1,288,63,pd,3,1.0,0.0,12.393,1,1,0.0
1nwodfs49j6k5iq1n4ufiimi,18,3,1,353,75,pd,2,0.0,1.0,28.582,1,1,0.0
1nwodfs49j6k5iq1n4ufiimi,19,3,1,348,74,pd,3,1.0,0.0,27.266,1,1,0.0
1nwodfs49j6k5iq1n4ufiimi,20,3,1,358,76,pd,1,,,,1,1,0.0
1nwodfs49j6k5iq1n4ufiimi,21,3,1,383,80,pd,2,0.0,1.0,21.089,1,1,0.0
1nwodfs49j6k5iq1n4ufiimi,22,3,1,305,66,pd,2,1.0,0.0,25.827,1,1,0.0
1nwodfs49j6k5iq1n4ufiimi,23,3,1,76,21,pd,1,0.0,1.0,20.314,1,1,0.0
1nwodfs49j6k5iq1n4ufiimi,24,3,1,370,78,pd,1,0.0,1.0,16.813,1,1,0.0
1z5pi9hpimq09zk2xvfgqya1,1,3,2,190,45,pd,1,2.0,0.0,6.523,1,1,0.0
1z5pi9hpimq09zk2xvfgqya1,2,3,2,130,30,pd,1,0.0,1.0,7.894,1,1,0.0
1z5pi9hpimq09zk2xvfgqya1,3,3,2,246,55,pd,3,0.0,1.0,16.312,1,1,0.0
1z5pi9hpimq09zk2xvfgqya1,4,3,2,254,58,md,2,0.0,1.0,18.112,1,1,0.0
1z5pi9hpimq09zk2xvfgqya1,5,3,2,178,42,pd,1,0.0,1.0,13.668,1,1,0.0
1z5pi9hpimq09zk2xvfgqya1,6,3,2,227,52,pd,2,3.0,0.0,20.6,1,1,0.0
1z5pi9hpimq09zk2xvfgqya1,7,3,2,126,29,pd,3,3.0,0.0,12.973,1,1,0.0
1z5pi9hpimq09zk2xvfgqya1,8,3,2,94,24,pd,1,1.0,0.0,11.597,1,1,0.0
1z5pi9hpimq09zk2xvfgqya1,9,3,2,53,17,pd,2,0.0,1.0,13.981,1,1,0.0
1z5pi9hpimq09zk2xvfgqya1,10,3,2,359,76,pd,2,0.0,1.0,10.981,1,1,0.0
1z5pi9hpimq09zk2xvfgqya1,11,3,2,354,75,pd,3,2.0,0.0,9.01,1,1,0.0
1z5pi9hpimq09zk2xvfgqya1,12,3,2,335,72,pd,2,1.0,0.0,8.989,1,1,0.0
1z5pi9hpimq09zk2xvfgqya1,13,3,2,149,35,pd,2,0.0,1.0,22.07,1,1,0.0
1z5pi9hpimq09zk2xvfgqya1,14,3,2,154,36,pd,1,3.0,0.0,19.761,1,1,0.0
1z5pi9hpimq09zk2xvfgqya1,15,3,2,294,64,pd,3,2.0,0.0,10.199,1,1,0.0
1z5pi9hpimq09zk2xvfgqya1,16,3,2,382,80,pd,1,3.0,0.0,13.374,1,1,0.0
1z5pi9hpimq09zk2xvfgqya1,17,3,2,346,74,pd,1,1.0,0.0,17.718,1,1,0.0
1z5pi9hpimq09zk2xvfgqya1,18,3,2,197,46,pd,2,3.0,0.0,8.819,1,1,0.0
1z5pi9hpimq09zk2xvfgqya1,19,3,2,263,59,pd,2,0.0,1.0,8.977,1,1,0.0
1z5pi9hpimq09zk2xvfgqya1,20,3,2,306,66,pd,3,1.0,0.0,9.354,1,1,0.0
1z5pi9hpimq09zk2xvfgqya1,21,3,2,286,63,pd,1,1.0,0.0,7.35,1,1,0.0
1z5pi9hpimq09zk2xvfgqya1,22,3,2,78,21,pd,3,2.0,0.0,13.387,1,1,0.0
1z5pi9hpimq09zk2xvfgqya1,23,3,2,372,78,pd,3,2.0,0.0,9.428,1,1,0.0
1z5pi9hpimq09zk2xvfgqya1,24,3,2,185,44,pd,2,1.0,0.0,11.339,1,1,0.0
20rchv2facflc8ck9yd2blev,1,3,2,190,45,pd,1,0.0,1.0,8.845,1,1,0.0
20rchv2facflc8ck9yd2blev,2,3,2,130,30,pd,1,0.0,1.0,7.25,1,1,0.0
20rchv2facflc8ck9yd2blev,3,3,2,246,55,pd,3,1.0,0.0,10.886,1,1,0.0
20rchv2facflc8ck9yd2blev,4,3,2,254,58,md,2,0.0,1.0,13.908,1,1,0.0
20rchv2facflc8ck9yd2blev,5,3,2,178,42,pd,1,3.0,0.0,17.915,1,1,0.0
20rchv2facflc8ck9yd2blev,6,3,2,227,52,pd,2,0.0,1.0,6.06,1,1,0.0
20rchv2facflc8ck9yd2blev,7,3,2,126,29,pd,3,0.0,1.0,10.901,1,1,0.0
20rchv2facflc8ck9yd2blev,8,3,2,94,24,pd,1,0.0,1.0,10.63,1,1,0.0
20rchv2facflc8ck9yd2blev,9,3,2,53,17,pd,2,1.0,0.0,20.403,1,1,0.0
20rchv2facflc8ck9yd2blev,10,3,2,359,76,pd,2,2.0,0.0,26.856,1,1,0.0
20rchv2facflc8ck9yd2blev,11,3,2,354,75,pd,3,0.0,1.0,6.959,1,1,0.0
20rchv2facflc8ck9yd2blev,12,3,2,335,72,pd,2,0.0,1.0,13.229,1,1,0.0
20rchv2facflc8ck9yd2blev,13,3,2,149,35,pd,2,3.0,0.0,18.582,1,1,0.0
20rchv2facflc8ck9yd2blev,14,3,2,154,36,pd,1,0.0,1.0,19.236,1,1,0.0
20rchv2facflc8ck9yd2blev,15,3,2,294,64,pd,3,0.0,1.0,19.041,1,1,0.0
20rchv2facflc8ck9yd2blev,16,3,2,382,80,pd,1,3.0,0.0,13.254,1,1,0.0
20rchv2facflc8ck9yd2blev,17,3,2,346,74,pd,1,0.0,1.0,8.291,1,1,0.0
20rchv2facflc8ck9yd2blev,18,3,2,197,46,pd,2,2.0,0.0,20.932,1,1,0.0
20rchv2facflc8ck9yd2blev,19,3,2,263,59,pd,2,0.0,1.0,4.612,1,1,0.0
20rchv2facflc8ck9yd2blev,20,3,2,306,66,pd,3,0.0,1.0,7.461,1,1,0.0
20rchv2facflc8ck9yd2blev,21,3,2,286,63,pd,1,1.0,0.0,14.561,1,1,0.0
20rchv2facflc8ck9yd2blev,22,3,2,78,21,pd,3,1.0,0.0,22.377,1,1,0.0
20rchv2facflc8ck9yd2blev,23,3,2,372,78,pd,3,0.0,1.0,16.549,1,1,0.0
20rchv2facflc8ck9yd2blev,24,3,2,185,44,pd,2,2.0,0.0,18.744,1,1,0.0
23g0itozzqyym2hubexhn5hf,1,3,2,190,45,pd,1,0.0,1.0,6.362,1,1,0.0
23g0itozzqyym2hubexhn5hf,2,3,2,130,30,pd,1,0.0,1.0,16.643,1,1,0.0
23g0itozzqyym2hubexhn5hf,3,3,2,246,55,pd,3,0.0,1.0,12.773,1,1,0.0
23g0itozzqyym2hubexhn5hf,4,3,2,254,58,md,2,0.0,1.0,20.598,1,1,0.0
23g0itozzqyym2hubexhn5hf,5,3,2,178,42,pd,1,0.0,1.0,17.814,1,1,0.0
23g0itozzqyym2hubexhn5hf,6,3,2,227,52,pd,2,0.0,1.0,27.41,1,1,0.0
23g0itozzqyym2hubexhn5hf,7,3,2,126,29,pd,3,0.0,1.0,11.763,1,1,0.0
23g0itozzqyym2hubexhn5hf,8,3,2,94,24,pd,1,0.0,1.0,18.776,1,1,0.0
23g0itozzqyym2hubexhn5hf,9,3,2,53,17,pd,2,1.0,0.0,21.635,1,1,0.0
23g0itozzqyym2hubexhn5hf,10,3,2,359,76,pd,2,0.0,1.0,9.898,1,1,0.0
23g0itozzqyym2hubexhn5hf,11,3,2,354,75,pd,3,0.0,1.0,13.446,1,1,0.0
23g0itozzqyym2hubexhn5hf,12,3,2,335,72,pd,2,2.0,0.0,16.891,1,1,0.0
23g0itozzqyym2hubexhn5hf,13,3,2,149,35,pd,2,0.0,1.0,19.162,1,1,0.0
23g0itozzqyym2hubexhn5hf,14,3,2,154,36,pd,1,0.0,1.0,20.316,1,1,0.0
23g0itozzqyym2hubexhn5hf,15,3,2,294,64,pd,3,0.0,1.0,19.862,1,1,0.0
23g0itozzqyym2hubexhn5hf,16,3,2,382,80,pd,1,0.0,1.0,14.853,1,1,0.0
23g0itozzqyym2hubexhn5hf,17,3,2,346,74,pd,1,1.0,0.0,16.098,1,1,0.0
23g0itozzqyym2hubexhn5hf,18,3,2,197,46,pd,2,0.0,1.0,21.67,1,1,0.0
23g0itozzqyym2hubexhn5hf,19,3,2,263,59,pd,2,0.0,1.0,14.445,1,1,0.0
23g0itozzqyym2hubexhn5hf,20,3,2,306,66,pd,3,2.0,0.0,22.711,1,1,0.0
23g0itozzqyym2hubexhn5hf,21,3,2,286,63,pd,1,0.0,1.0,9.956,1,1,0.0
23g0itozzqyym2hubexhn5hf,22,3,2,78,21,pd,3,0.0,1.0,16.744,1,1,0.0
23g0itozzqyym2hubexhn5hf,23,3,2,372,78,pd,3,0.0,1.0,16.645,1,1,0.0
23g0itozzqyym2hubexhn5hf,24,3,2,185,44,pd,2,0.0,1.0,11.303,1,1,0.0
284y66xu1imnswmhr8o36m1y,1,3,1,244,55,pd,1,0.0,1.0,4.738,1,1,0.0
284y66xu1imnswmhr8o36m1y,2,3,1,132,30,pd,3,0.0,1.0,8.054,1,1,0.0
284y66xu1imnswmhr8o36m1y,3,3,1,292,64,pd,1,0.0,1.0,4.908,1,1,0.0
284y66xu1imnswmhr8o36m1y,4,3,1,192,45,pd,3,0.0,1.0,5.134,1,1,0.0
284y66xu1imnswmhr8o36m1y,5,3,1,148,35,pd,1,0.0,1.0,5.582,1,1,0.0
284y66xu1imnswmhr8o36m1y,6,3,1,334,72,pd,1,0.0,1.0,8.357,1,1,0.0
284y66xu1imnswmhr8o36m1y,7,3,1,112,27,pd,1,2.0,0.0,11.506,1,1,0.0
284y66xu1imnswmhr8o36m1y,8,3,1,378,79,pd,3,1.0,0.0,3.359,1,1,0.0
284y66xu1imnswmhr8o36m1y,9,3,1,125,29,pd,2,3.0,0.0,5.544,1,1,0.0
284y66xu1imnswmhr8o36m1y,10,3,1,96,24,pd,3,0.0,1.0,10.469,1,1,0.0
284y66xu1imnswmhr8o36m1y,11,3,1,180,42,pd,3,3.0,0.0,7.809,1,1,0.0
284y66xu1imnswmhr8o36m1y,12,3,1,238,54,pd,1,0.0,1.0,6.033,1,1,0.0
284y66xu1imnswmhr8o36m1y,13,3,1,54,17,pd,3,1.0,0.0,6.945,1,1,0.0
284y66xu1imnswmhr8o36m1y,14,3,1,255,58,md,3,0.0,1.0,4.561,1,1,0.0
284y66xu1imnswmhr8o36m1y,15,3,1,341,73,pd,2,1.0,0.0,8.738,1,1,0.0
284y66xu1imnswmhr8o36m1y,16,3,1,156,36,pd,3,0.0,1.0,3.528,1,1,0.0
284y66xu1imnswmhr8o36m1y,17,3,1,288,63,pd,3,1.0,0.0,5.288,1,1,0.0
284y66xu1imnswmhr8o36m1y,18,3,1,353,75,pd,2,3.0,0.0,8.272,1,1,0.0
284y66xu1imnswmhr8o36m1y,19,3,1,348,74,pd,3,0.0,1.0,2.59,1,1,0.0
284y66xu1imnswmhr8o36m1y,20,3,1,358,76,pd,1,1.0,0.0,7.856,1,1,0.0
284y66xu1imnswmhr8o36m1y,21,3,1,383,80,pd,2,1.0,0.0,4.885,1,1,0.0
284y66xu1imnswmhr8o36m1y,22,3,1,305,66,pd,2,0.0,1.0,9.73,1,1,0.0
284y66xu1imnswmhr8o36m1y,23,3,1,76,21,pd,1,2.0,0.0,12.206,1,1,0.0
284y66xu1imnswmhr8o36m1y,24,3,1,370,78,pd,1,1.0,0.0,3.273,1,1,0.0
28sbsqa2k1tqf89nffhi755x,1,3,1,244,55,pd,1,0.0,1.0,7.222,1,1,0.0
28sbsqa2k1tqf89nffhi755x,2,3,1,132,30,pd,3,0.0,1.0,8.722,1,1,0.0
28sbsqa2k1tqf89nffhi755x,3,3,1,292,64,pd,1,0.0,1.0,6.89,1,1,0.0
28sbsqa2k1tqf89nffhi755x,4,3,1,192,45,pd,3,0.0,1.0,7.164,1,1,0.0
28sbsqa2k1tqf89nffhi755x,5,3,1,148,35,pd,1,0.0,1.0,2.214,1,1,0.0
28sbsqa2k1tqf89nffhi755x,6,3,1,334,72,pd,1,0.0,1.0,10.171,1,1,0.0
28sbsqa2k1tqf89nffhi755x,7,3,1,112,27,pd,1,0.0,1.0,5.644,1,1,0.0
28sbsqa2k1tqf89nffhi755x,8,3,1,378,79,pd,3,0.0,1.0,4.18,1,1,0.0
28sbsqa2k1tqf89nffhi755x,9,3,1,125,29,pd,2,0.0,1.0,3.981,1,1,0.0
28sbsqa2k1tqf89nffhi755x,10,3,1,96,24,pd,3,0.0,1.0,3.816,1,1,0.0
28sbsqa2k1tqf89nffhi755x,11,3,1,180,42,pd,3,3.0,0.0,27.41,1,1,0.0
28sbsqa2k1tqf89nffhi755x,12,3,1,238,54,pd,1,0.0,1.0,7.705,1,1,0.0
28sbsqa2k1tqf89nffhi755x,13,3,1,54,17,pd,3,1.0,0.0,5.796,1,1,0.0
28sbsqa2k1tqf89nffhi755x,14,3,1,255,58,md,3,3.0,0.0,2.83,1,1,0.0
28sbsqa2k1tqf89nffhi755x,15,3,1,341,73,pd,2,2.0,0.0,2.767,1,1,0.0
28sbsqa2k1tqf89nffhi755x,16,3,1,156,36,pd,3,2.0,0.0,5.039,1,1,0.0
28sbsqa2k1tqf89nffhi755x,17,3,1,288,63,pd,3,0.0,1.0,3.216,1,1,0.0
28sbsqa2k1tqf89nffhi755x,18,3,1,353,75,pd,2,0.0,1.0,4.286,1,1,0.0
28sbsqa2k1tqf89nffhi755x,19,3,1,348,74,pd,3,1.0,0.0,2.812,1,1,0.0
28sbsqa2k1tqf89nffhi755x,20,3,1,358,76,pd,1,0.0,1.0,4.266,1,1,0.0
28sbsqa2k1tqf89nffhi755x,21,3,1,383,80,pd,2,2.0,0.0,3.944,1,1,0.0
28sbsqa2k1tqf89nffhi755x,22,3,1,305,66,pd,2,3.0,0.0,8.914,1,1,0.0
28sbsqa2k1tqf89nffhi755x,23,3,1,76,21,pd,1,2.0,0.0,3.01,1,1,0.0
28sbsqa2k1tqf89nffhi755x,24,3,1,370,78,pd,1,1.0,0.0,3.684,1,1,0.0
2exta1vd1u442myipk8jx0yt,1,3,1,244,55,pd,1,0.0,1.0,6.426,1,1,0.0
2exta1vd1u442myipk8jx0yt,2,3,1,132,30,pd,3,0.0,1.0,10.136,1,1,0.0
2exta1vd1u442myipk8jx0yt,3,3,1,292,64,pd,1,0.0,1.0,11.455,1,1,0.0
2exta1vd1u442myipk8jx0yt,4,3,1,192,45,pd,3,0.0,1.0,12.264,1,1,0.0
2exta1vd1u442myipk8jx0yt,5,3,1,148,35,pd,1,0.0,1.0,12.676,1,1,0.0
2exta1vd1u442myipk8jx0yt,6,3,1,334,72,pd,1,0.0,1.0,16.587,1,1,0.0
2exta1vd1u442myipk8jx0yt,7,3,1,112,27,pd,1,0.0,1.0,10.999,1,1,0.0
2exta1vd1u442myipk8jx0yt,8,3,1,378,79,pd,3,0.0,1.0,10.183,1,1,0.0
2exta1vd1u442myipk8jx0yt,9,3,1,125,29,pd,2,0.0,1.0,9.616,1,1,0.0
2exta1vd1u442myipk8jx0yt,10,3,1,96,24,pd,3,0.0,1.0,13.081,1,1,0.0
2exta1vd1u442myipk8jx0yt,11,3,1,180,42,pd,3,0.0,1.0,12.144,1,1,0.0
2exta1vd1u442myipk8jx0yt,12,3,1,238,54,pd,1,0.0,1.0,14.259,1,1,0.0
2exta1vd1u442myipk8jx0yt,13,3,1,54,17,pd,3,0.0,1.0,13.041,1,1,0.0
2exta1vd1u442myipk8jx0yt,14,3,1,255,58,md,3,0.0,1.0,14.348,1,1,0.0
2exta1vd1u442myipk8jx0yt,15,3,1,341,73,pd,2,0.0,1.0,14.595,1,1,0.0
2exta1vd1u442myipk8jx0yt,16,3,1,156,36,pd,3,0.0,1.0,11.284,1,1,0.0
2exta1vd1u442myipk8jx0yt,17,3,1,288,63,pd,3,0.0,1.0,8.249,1,1,0.0
2exta1vd1u442myipk8jx0yt,18,3,1,353,75,pd,2,0.0,1.0,25.068,1,1,0.0
2exta1vd1u442myipk8jx0yt,19,3,1,348,74,pd,3,0.0,1.0,28.222,1,1,0.0
2exta1vd1u442myipk8jx0yt,20,3,1,358,76,pd,1,0.0,1.0,15.194,1,1,0.0
2exta1vd1u442myipk8jx0yt,21,3,1,383,80,pd,2,0.0,1.0,9.104,1,1,0.0
2exta1vd1u442myipk8jx0yt,22,3,1,305,66,pd,2,0.0,1.0,15.954,1,1,0.0
2exta1vd1u442myipk8jx0yt,23,3,1,76,21,pd,1,0.0,1.0,13.447,1,1,0.0
2exta1vd1u442myipk8jx0yt,24,3,1,370,78,pd,1,0.0,1.0,18.346,1,1,0.0
2iklpomeq3uxkod30p10ttur,1,3,1,244,55,pd,1,1.0,0.0,8.648,1,1,0.0
2iklpomeq3uxkod30p10ttur,2,3,1,132,30,pd,3,0.0,1.0,9.833,1,1,0.0
2iklpomeq3uxkod30p10ttur,3,3,1,292,64,pd,1,0.0,1.0,11.201,1,1,0.0
2iklpomeq3uxkod30p10ttur,4,3,1,192,45,pd,3,3.0,0.0,14.655,1,1,0.0
2iklpomeq3uxkod30p10ttur,5,3,1,148,35,pd,1,0.0,1.0,17.59,1,1,0.0
2iklpomeq3uxkod30p10ttur,6,3,1,334,72,pd,1,0.0,1.0,20.774,1,1,0.0
2iklpomeq3uxkod30p10ttur,7,3,1,112,27,pd,1,0.0,1.0,13.718,1,1,0.0
2iklpomeq3uxkod30p10ttur,8,3,1,378,79,pd,3,0.0,1.0,15.949,1,1,0.0
2iklpomeq3uxkod30p10ttur,9,3,1,125,29,pd,2,0.0,1.0,16.85,1,1,0.0
2iklpomeq3uxkod30p10ttur,10,3,1,96,24,pd,3,0.0,1.0,12.824,1,1,0.0
2iklpomeq3uxkod30p10ttur,11,3,1,180,42,pd,3,2.0,0.0,21.717,1,1,0.0
2iklpomeq3uxkod30p10ttur,12,3,1,238,54,pd,1,0.0,1.0,11.707,1,1,0.0
2iklpomeq3uxkod30p10ttur,13,3,1,54,17,pd,3,0.0,1.0,9.537,1,1,0.0
2iklpomeq3uxkod30p10ttur,14,3,1,255,58,md,3,0.0,1.0,17.555,1,1,0.0
2iklpomeq3uxkod30p10ttur,15,3,1,341,73,pd,2,0.0,1.0,19.563,1,1,0.0
2iklpomeq3uxkod30p10ttur,16,3,1,156,36,pd,3,2.0,0.0,11.86,1,1,0.0
2iklpomeq3uxkod30p10ttur,17,3,1,288,63,pd,3,0.0,1.0,18.986,1,1,0.0
2iklpomeq3uxkod30p10ttur,18,3,1,353,75,pd,2,0.0,1.0,12.646,1,1,0.0
2iklpomeq3uxkod30p10ttur,19,3,1,348,74,pd,3,3.0,0.0,21.767,1,1,0.0
2iklpomeq3uxkod30p10ttur,20,3,1,358,76,pd,1,0.0,1.0,17.238,1,1,0.0
2iklpomeq3uxkod30p10ttur,21,3,1,383,80,pd,2,3.0,0.0,18.421,1,1,0.0
2iklpomeq3uxkod30p10ttur,22,3,1,305,66,pd,2,3.0,0.0,12.783,1,1,0.0
2iklpomeq3uxkod30p10ttur,23,3,1,76,21,pd,1,3.0,0.0,12.777,1,1,0.0
2iklpomeq3uxkod30p10ttur,24,3,1,370,78,pd,1,3.0,0.0,6.669,1,1,0.0
2sggo7qvwj7n5aeijcj6bg0g,1,3,2,190,45,pd,1,2.0,0.0,5.215,1,1,0.0
2sggo7qvwj7n5aeijcj6bg0g,2,3,2,130,30,pd,1,3.0,0.0,5.423,1,1,0.0
2sggo7qvwj7n5aeijcj6bg0g,3,3,2,246,55,pd,3,0.0,1.0,7.223,1,1,0.0
2sggo7qvwj7n5aeijcj6bg0g,4,3,2,254,58,md,2,3.0,0.0,15.61,1,1,0.0
2sggo7qvwj7n5aeijcj6bg0g,5,3,2,178,42,pd,1,2.0,0.0,24.284,1,1,0.0
2sggo7qvwj7n5aeijcj6bg0g,6,3,2,227,52,pd,2,0.0,1.0,27.837,1,1,0.0
2sggo7qvwj7n5aeijcj6bg0g,7,3,2,126,29,pd,3,0.0,1.0,10.906,1,1,0.0
2sggo7qvwj7n5aeijcj6bg0g,8,3,2,94,24,pd,1,0.0,1.0,6.118,1,1,0.0
2sggo7qvwj7n5aeijcj6bg0g,9,3,2,53,17,pd,2,1.0,0.0,26.24,1,1,0.0
2sggo7qvwj7n5aeijcj6bg0g,10,3,2,359,76,pd,2,0.0,1.0,16.86,1,1,0.0
2sggo7qvwj7n5aeijcj6bg0g,11,3,2,354,75,pd,3,0.0,1.0,18.723,1,1,0.0
2sggo7qvwj7n5aeijcj6bg0g,12,3,2,335,72,pd,2,3.0,0.0,21.638,1,1,0.0
2sggo7qvwj7n5aeijcj6bg0g,13,3,2,149,35,pd,2,0.0,1.0,13.962,1,1,0.0
2sggo7qvwj7n5aeijcj6bg0g,14,3,2,154,36,pd,1,1.0,0.0,28.813,1,1,0.0
2sggo7qvwj7n5aeijcj6bg0g,15,3,2,294,64,pd,3,0.0,1.0,11.41,1,1,0.0
2sggo7qvwj7n5aeijcj6bg0g,16,3,2,382,80,pd,1,3.0,0.0,9.981,1,1,0.0
2sggo7qvwj7n5aeijcj6bg0g,17,3,2,346,74,pd,1,0.0,1.0,19.138,1,1,0.0
2sggo7qvwj7n5aeijcj6bg0g,18,3,2,197,46,pd,2,0.0,1.0,20.045,1,1,0.0
2sggo7qvwj7n5aeijcj6bg0g,19,3,2,263,59,pd,2,0.0,1.0,18.227,1,1,0.0
2sggo7qvwj7n5aeijcj6bg0g,20,3,2,306,66,pd,3,0.0,1.0,25.159,1,1,0.0
2sggo7qvwj7n5aeijcj6bg0g,21,3,2,286,63,pd,1,0.0,1.0,18.096,1,1,0.0
2sggo7qvwj7n5aeijcj6bg0g,22,3,2,78,21,pd,3,0.0,1.0,28.805,1,1,0.0
2sggo7qvwj7n5aeijcj6bg0g,23,3,2,372,78,pd,3,1.0,0.0,25.974,1,1,0.0
2sggo7qvwj7n5aeijcj6bg0g,24,3,2,185,44,pd,2,0.0,1.0,11.102,1,1,0.0
2xotq2ud677a1g80wgz2qnab,1,3,1,244,55,pd,1,0.0,1.0,20.91,1,1,0.0
2xotq2ud677a1g80wgz2qnab,2,3,1,132,30,pd,3,0.0,1.0,10.518,1,1,0.0
2xotq2ud677a1g80wgz2qnab,3,3,1,292,64,pd,1,0.0,1.0,11.933,1,1,0.0
2xotq2ud677a1g80wgz2qnab,4,3,1,192,45,pd,3,0.0,1.0,6.236,1,1,0.0
2xotq2ud677a1g80wgz2qnab,5,3,1,148,35,pd,1,0.0,1.0,7.646,1,1,0.0
2xotq2ud677a1g80wgz2qnab,6,3,1,334,72,pd,1,2.0,0.0,26.558,1,1,0.0
2xotq2ud677a1g80wgz2qnab,7,3,1,112,27,pd,1,0.0,1.0,11.542,1,1,0.0
2xotq2ud677a1g80wgz2qnab,8,3,1,378,79,pd,3,0.0,1.0,17.185,1,1,0.0
2xotq2ud677a1g80wgz2qnab,9,3,1,125,29,pd,2,0.0,1.0,11.405,1,1,0.0
2xotq2ud677a1g80wgz2qnab,10,3,1,96,24,pd,3,0.0,1.0,8.246,1,1,0.0
2xotq2ud677a1g80wgz2qnab,11,3,1,180,42,pd,3,0.0,1.0,6.814,1,1,0.0
2xotq2ud677a1g80wgz2qnab,12,3,1,238,54,pd,1,0.0,1.0,7.286,1,1,0.0
2xotq2ud677a1g80wgz2qnab,13,3,1,54,17,pd,3,0.0,1.0,5.524,1,1,0.0
2xotq2ud677a1g80wgz2qnab,14,3,1,255,58,md,3,0.0,1.0,14.486,1,1,0.0
2xotq2ud677a1g80wgz2qnab,15,3,1,341,73,pd,2,0.0,1.0,16.814,1,1,0.0
2xotq2ud677a1g80wgz2qnab,16,3,1,156,36,pd,3,0.0,1.0,14.271,1,1,0.0
2xotq2ud677a1g80wgz2qnab,17,3,1,288,63,pd,3,0.0,1.0,21.341,1,1,0.0
2xotq2ud677a1g80wgz2qnab,18,3,1,353,75,pd,2,0.0,1.0,17.926,1,1,0.0
2xotq2ud677a1g80wgz2qnab,19,3,1,348,74,pd,3,0.0,1.0,13.43,1,1,0.0
2xotq2ud677a1g80wgz2qnab,20,3,1,358,76,pd,1,0.0,1.0,24.421,1,1,0.0
2xotq2ud677a1g80wgz2qnab,21,3,1,383,80,pd,2,0.0,1.0,11.191,1,1,0.0
2xotq2ud677a1g80wgz2qnab,22,3,1,305,66,pd,2,0.0,1.0,11.142,1,1,0.0
2xotq2ud677a1g80wgz2qnab,23,3,1,76,21,pd,1,0.0,1.0,10.454,1,1,0.0
2xotq2ud677a1g80wgz2qnab,24,3,1,370,78,pd,1,0.0,1.0,19.061,1,1,0.0
34bjfa7514ivm0se9wltis8s,1,3,2,190,45,pd,1,0.0,1.0,20.084,1,1,0.0
34bjfa7514ivm0se9wltis8s,2,3,2,130,30,pd,1,0.0,1.0,20.032,1,1,0.0
34bjfa7514ivm0se9wltis8s,3,3,2,246,55,pd,3,0.0,1.0,9.803,1,1,0.0
34bjfa7514ivm0se9wltis8s,4,3,2,254,58,md,2,0.0,1.0,17.967,1,1,0.0
34bjfa7514ivm0se9wltis8s,5,3,2,178,42,pd,1,0.0,1.0,28.924,1,1,0.0
34bjfa7514ivm0se9wltis8s,6,3,2,227,52,pd,2,0.0,1.0,17.165,1,1,0.0
34bjfa7514ivm0se9wltis8s,7,3,2,126,29,pd,3,0.0,1.0,24.148,1,1,0.0
34bjfa7514ivm0se9wltis8s,8,3,2,94,24,pd,1,0.0,1.0,8.125,1,1,0.0
34bjfa7514ivm0se9wltis8s,9,3,2,53,17,pd,2,0.0,1.0,10.107,1,1,0.0
34bjfa7514ivm0se9wltis8s,10,3,2,359,76,pd,2,0.0,1.0,12.747,1,1,0.0
34bjfa7514ivm0se9wltis8s,11,3,2,354,75,pd,3,0.0,1.0,21.645,1,1,0.0
34bjfa7514ivm0se9wltis8s,12,3,2,335,72,pd,2,0.0,1.0,13.324,1,1,0.0
34bjfa7514ivm0se9wltis8s,13,3,2,149,35,pd,2,0.0,1.0,17.893,1,1,0.0
34bjfa7514ivm0se9wltis8s,14,3,2,154,36,pd,1,0.0,1.0,27.555,1,1,0.0
34bjfa7514ivm0se9wltis8s,15,3,2,294,64,pd,3,0.0,1.0,27.888,1,1,0.0
34bjfa7514ivm0se9wltis8s,16,3,2,382,80,pd,1,0.0,1.0,22.912,1,1,0.0
34bjfa7514ivm0se9wltis8s,17,3,2,346,74,pd,1,0.0,1.0,29.182,1,1,0.0
34bjfa7514ivm0se9wltis8s,18,3,2,197,46,pd,2,0.0,1.0,27.556,1,1,0.0
34bjfa7514ivm0se9wltis8s,19,3,2,263,59,pd,2,0.0,1.0,22.419,1,1,0.0
34bjfa7514ivm0se9wltis8s,20,3,2,306,66,pd,3,0.0,1.0,29.13,1,1,0.0
34bjfa7514ivm0se9wltis8s,21,3,2,286,63,pd,1,0.0,1.0,17.923,1,1,0.0
34bjfa7514ivm0se9wltis8s,22,3,2,78,21,pd,3,0.0,1.0,28.353,1,1,0.0
34bjfa7514ivm0se9wltis8s,23,3,2,372,78,pd,3,0.0,1.0,19.977,1,1,0.0
34bjfa7514ivm0se9wltis8s,24,3,2,185,44,pd,2,0.0,1.0,9.426,1,1,0.0
38vtzd3xyt0r0qgvoso9ogn3,1,3,2,190,45,pd,1,0.0,1.0,11.747,1,1,0.0
38vtzd3xyt0r0qgvoso9ogn3,2,3,2,130,30,pd,1,0.0,1.0,7.152,1,1,0.0
38vtzd3xyt0r0qgvoso9ogn3,3,3,2,246,55,pd,3,0.0,1.0,12.39,1,1,0.0
38vtzd3xyt0r0qgvoso9ogn3,4,3,2,254,58,md,2,0.0,1.0,15.592,1,1,0.0
38vtzd3xyt0r0qgvoso9ogn3,5,3,2,178,42,pd,1,0.0,1.0,20.75,1,1,0.0
38vtzd3xyt0r0qgvoso9ogn3,6,3,2,227,52,pd,2,0.0,1.0,13.234,1,1,0.0
38vtzd3xyt0r0qgvoso9ogn3,7,3,2,126,29,pd,3,0.0,1.0,11.232,1,1,0.0
38vtzd3xyt0r0qgvoso9ogn3,8,3,2,94,24,pd,1,0.0,1.0,14.493,1,1,0.0
38vtzd3xyt0r0qgvoso9ogn3,9,3,2,53,17,pd,2,0.0,1.0,14.441,1,1,0.0
38vtzd3xyt0r0qgvoso9ogn3,10,3,2,359,76,pd,2,0.0,1.0,18.442,1,1,0.0
38vtzd3xyt0r0qgvoso9ogn3,11,3,2,354,75,pd,3,0.0,1.0,14.79,1,1,0.0
38vtzd3xyt0r0qgvoso9ogn3,12,3,2,335,72,pd,2,0.0,1.0,18.344,1,1,0.0
38vtzd3xyt0r0qgvoso9ogn3,13,3,2,149,35,pd,2,0.0,1.0,14.392,1,1,0.0
38vtzd3xyt0r0qgvoso9ogn3,14,3,2,154,36,pd,1,2.0,0.0,14.371,1,1,0.0
38vtzd3xyt0r0qgvoso9ogn3,15,3,2,294,64,pd,3,0.0,1.0,14.614,1,1,0.0
38vtzd3xyt0r0qgvoso9ogn3,16,3,2,382,80,pd,1,0.0,1.0,19.474,1,1,0.0
38vtzd3xyt0r0qgvoso9ogn3,17,3,2,346,74,pd,1,0.0,1.0,17.023,1,1,0.0
38vtzd3xyt0r0qgvoso9ogn3,18,3,2,197,46,pd,2,0.0,1.0,22.57,1,1,0.0
38vtzd3xyt0r0qgvoso9ogn3,19,3,2,263,59,pd,2,0.0,1.0,8.792,1,1,0.0
38vtzd3xyt0r0qgvoso9ogn3,20,3,2,306,66,pd,3,0.0,1.0,23.384,1,1,0.0
38vtzd3xyt0r0qgvoso9ogn3,21,3,2,286,63,pd,1,0.0,1.0,11.747,1,1,0.0
38vtzd3xyt0r0qgvoso9ogn3,22,3,2,78,21,pd,3,0.0,1.0,17.245,1,1,0.0
38vtzd3xyt0r0qgvoso9ogn3,23,3,2,372,78,pd,3,2.0,0.0,20.972,1,1,0.0
38vtzd3xyt0r0qgvoso9ogn3,24,3,2,185,44,pd,2,0.0,1.0,12.627,1,1,0.0
3c5d93j4xj7550wtb3tg83so,1,3,1,244,55,pd,1,0.0,1.0,6.306,1,1,0.0
3c5d93j4xj7550wtb3tg83so,2,3,1,132,30,pd,3,0.0,1.0,6.316,1,1,0.0
3c5d93j4xj7550wtb3tg83so,3,3,1,292,64,pd,1,0.0,1.0,11.185,1,1,0.0
3c5d93j4xj7550wtb3tg83so,4,3,1,192,45,pd,3,0.0,1.0,5.788,1,1,0.0
3c5d93j4xj7550wtb3tg83so,5,3,1,148,35,pd,1,0.0,1.0,5.356,1,1,0.0
3c5d93j4xj7550wtb3tg83so,6,3,1,334,72,pd,1,0.0,1.0,10.465,1,1,0.0
3c5d93j4xj7550wtb3tg83so,7,3,1,112,27,pd,1,0.0,1.0,6.878,1,1,0.0
3c5d93j4xj7550wtb3tg83so,8,3,1,378,79,pd,3,0.0,1.0,4.754,1,1,0.0
3c5d93j4xj7550wtb3tg83so,9,3,1,125,29,pd,2,0.0,1.0,12.67,1,1,0.0
3c5d93j4xj7550wtb3tg83so,10,3,1,96,24,pd,3,0.0,1.0,6.317,1,1,0.0
3c5d93j4xj7550wtb3tg83so,11,3,1,180,42,pd,3,0.0,1.0,10.87,1,1,0.0
3c5d93j4xj7550wtb3tg83so,12,3,1,238,54,pd,1,0.0,1.0,7.49,1,1,0.0
3c5d93j4xj7550wtb3tg83so,13,3,1,54,17,pd,3,0.0,1.0,3.848,1,1,0.0
3c5d93j4xj7550wtb3tg83so,14,3,1,255,58,md,3,0.0,1.0,6.88,1,1,0.0
3c5d93j4xj7550wtb3tg83so,15,3,1,341,73,pd,2,1.0,0.0,6.3,1,1,0.0
3c5d93j4xj7550wtb3tg83so,16,3,1,156,36,pd,3,2.0,0.0,7.864,1,1,0.0
3c5d93j4xj7550wtb3tg83so,17,3,1,288,63,pd,3,3.0,0.0,6.28,1,1,0.0
3c5d93j4xj7550wtb3tg83so,18,3,1,353,75,pd,2,0.0,1.0,10.801,1,1,0.0
3c5d93j4xj7550wtb3tg83so,19,3,1,348,74,pd,3,1.0,0.0,13.003,1,1,0.0
3c5d93j4xj7550wtb3tg83so,20,3,1,358,76,pd,1,0.0,1.0,10.47,1,1,0.0
3c5d93j4xj7550wtb3tg83so,21,3,1,383,80,pd,2,3.0,0.0,10.59,1,1,0.0
3c5d93j4xj7550wtb3tg83so,22,3,1,305,66,pd,2,0.0,1.0,8.367,1,1,0.0
3c5d93j4xj7550wtb3tg83so,23,3,1,76,21,pd,1,1.0,0.0,5.969,1,1,0.0
3c5d93j4xj7550wtb3tg83so,24,3,1,370,78,pd,1,0.0,1.0,8.864,1,1,0.0
3f15wt1zuafjj73zp08bmc24,1,3,2,190,45,pd,1,0.0,1.0,12.103,1,1,0.0
3f15wt1zuafjj73zp08bmc24,2,3,2,130,30,pd,1,0.0,1.0,13.142,1,1,0.0
3f15wt1zuafjj73zp08bmc24,3,3,2,246,55,pd,3,0.0,1.0,11.154,1,1,0.0
3f15wt1zuafjj73zp08bmc24,4,3,2,254,58,md,2,0.0,1.0,25.331,1,1,0.0
3f15wt1zuafjj73zp08bmc24,5,3,2,178,42,pd,1,0.0,1.0,24.913,1,1,0.0
3f15wt1zuafjj73zp08bmc24,6,3,2,227,52,pd,2,0.0,1.0,26.13,1,1,0.0
3f15wt1zuafjj73zp08bmc24,7,3,2,126,29,pd,3,0.0,1.0,22.438,1,1,0.0
3f15wt1zuafjj73zp08bmc24,8,3,2,94,24,pd,1,0.0,1.0,21.125,1,1,0.0
3f15wt1zuafjj73zp08bmc24,9,3,2,53,17,pd,2,0.0,1.0,14.007,1,1,0.0
3f15wt1zuafjj73zp08bmc24,10,3,2,359,76,pd,2,0.0,1.0,8.106,1,1,0.0
3f15wt1zuafjj73zp08bmc24,11,3,2,354,75,pd,3,0.0,1.0,12.713,1,1,0.0
3f15wt1zuafjj73zp08bmc24,12,3,2,335,72,pd,2,0.0,1.0,15.98,1,1,0.0
3f15wt1zuafjj73zp08bmc24,13,3,2,149,35,pd,2,0.0,1.0,22.482,1,1,0.0
3f15wt1zuafjj73zp08bmc24,14,3,2,154,36,pd,1,0.0,1.0,15.734,1,1,0.0
3f15wt1zuafjj73zp08bmc24,15,3,2,294,64,pd,3,0.0,1.0,15.225,1,1,0.0
3f15wt1zuafjj73zp08bmc24,16,3,2,382,80,pd,1,0.0,1.0,15.454,1,1,0.0
3f15wt1zuafjj73zp08bmc24,17,3,2,346,74,pd,1,0.0,1.0,20.865,1,1,0.0
3f15wt1zuafjj73zp08bmc24,18,3,2,197,46,pd,2,0.0,1.0,19.371,1,1,0.0
3f15wt1zuafjj73zp08bmc24,19,3,2,263,59,pd,2,0.0,1.0,20.847,1,1,0.0
3f15wt1zuafjj73zp08bmc24,20,3,2,306,66,pd,3,0.0,1.0,26.012,1,1,0.0
3f15wt1zuafjj73zp08bmc24,21,3,2,286,63,pd,1,0.0,1.0,22.915,1,1,0.0
3f15wt1zuafjj73zp08bmc24,22,3,2,78,21,pd,3,0.0,1.0,26.337,1,1,0.0
3f15wt1zuafjj73zp08bmc24,23,3,2,372,78,pd,3,0.0,1.0,25.968,1,1,0.0
3f15wt1zuafjj73zp08bmc24,24,3,2,185,44,pd,2,0.0,1.0,25.998,1,1,0.0
3jox72tyltcdwgy9nq9ajzyl,1,3,1,244,55,pd,1,0.0,1.0,4.332,1,1,0.0
3jox72tyltcdwgy9nq9ajzyl,2,3,1,132,30,pd,3,3.0,0.0,7.504,1,1,0.0
3jox72tyltcdwgy9nq9ajzyl,3,3,1,292,64,pd,1,2.0,0.0,6.62,1,1,0.0
3jox72tyltcdwgy9nq9ajzyl,4,3,1,192,45,pd,3,0.0,1.0,10.331,1,1,0.0
3jox72tyltcdwgy9nq9ajzyl,5,3,1,148,35,pd,1,0.0,1.0,7.709,1,1,0.0
3jox72tyltcdwgy9nq9ajzyl,6,3,1,334,72,pd,1,0.0,1.0,8.309,1,1,0.0
3jox72tyltcdwgy9nq9ajzyl,7,3,1,112,27,pd,1,2.0,0.0,12.859,1,1,0.0
3jox72tyltcdwgy9nq9ajzyl,8,3,1,378,79,pd,3,0.0,1.0,12.724,1,1,0.0
3jox72tyltcdwgy9nq9ajzyl,9,3,1,125,29,pd,2,2.0,0.0,16.06,1,1,0.0
3jox72tyltcdwgy9nq9ajzyl,10,3,1,96,24,pd,3,3.0,0.0,10.211,1,1,0.0
3jox72tyltcdwgy9nq9ajzyl,11,3,1,180,42,pd,3,3.0,0.0,13.132,1,1,0.0
3jox72tyltcdwgy9nq9ajzyl,12,3,1,238,54,pd,1,0.0,1.0,6.572,1,1,0.0
3jox72tyltcdwgy9nq9ajzyl,13,3,1,54,17,pd,3,1.0,0.0,11.634,1,1,0.0
3jox72tyltcdwgy9nq9ajzyl,14,3,1,255,58,md,3,1.0,0.0,9.988,1,1,0.0
3jox72tyltcdwgy9nq9ajzyl,15,3,1,341,73,pd,2,0.0,1.0,13.06,1,1,0.0
3jox72tyltcdwgy9nq9ajzyl,16,3,1,156,36,pd,3,2.0,0.0,15.059,1,1,0.0
3jox72tyltcdwgy9nq9ajzyl,17,3,1,288,63,pd,3,0.0,1.0,15.196,1,1,0.0
3jox72tyltcdwgy9nq9ajzyl,18,3,1,353,75,pd,2,3.0,0.0,11.076,1,1,0.0
3jox72tyltcdwgy9nq9ajzyl,19,3,1,348,74,pd,3,3.0,0.0,12.22,1,1,0.0
3jox72tyltcdwgy9nq9ajzyl,20,3,1,358,76,pd,1,0.0,1.0,13.825,1,1,0.0
3jox72tyltcdwgy9nq9ajzyl,21,3,1,383,80,pd,2,1.0,0.0,13.868,1,1,0.0
3jox72tyltcdwgy9nq9ajzyl,22,3,1,305,66,pd,2,3.0,0.0,10.372,1,1,0.0
3jox72tyltcdwgy9nq9ajzyl,23,3,1,76,21,pd,1,3.0,0.0,5.803,1,1,0.0
3jox72tyltcdwgy9nq9ajzyl,24,3,1,370,78,pd,1,1.0,0.0,7.855,1,1,0.0
3mt13d4svlx9o7if06iqiqr3,1,3,2,190,45,pd,1,0.0,1.0,10.626,1,1,0.0
3mt13d4svlx9o7if06iqiqr3,2,3,2,130,30,pd,1,0.0,1.0,13.85,1,1,0.0
3mt13d4svlx9o7if06iqiqr3,3,3,2,246,55,pd,3,0.0,1.0,13.368,1,1,0.0
3mt13d4svlx9o7if06iqiqr3,4,3,2,254,58,md,2,0.0,1.0,15.007,1,1,0.0
3mt13d4svlx9o7if06iqiqr3,5,3,2,178,42,pd,1,0.0,1.0,16.556,1,1,0.0
3mt13d4svlx9o7if06iqiqr3,6,3,2,227,52,pd,2,0.0,1.0,9.025,1,1,0.0
3mt13d4svlx9o7if06iqiqr3,7,3,2,126,29,pd,3,0.0,1.0,7.966,1,1,0.0
3mt13d4svlx9o7if06iqiqr3,8,3,2,94,24,pd,1,0.0,1.0,14.991,1,1,0.0
3mt13d4svlx9o7if06iqiqr3,9,3,2,53,17,pd,2,0.0,1.0,9.5,1,1,0.0
3mt13d4svlx9o7if06iqiqr3,10,3,2,359,76,pd,2,0.0,1.0,14.928,1,1,0.0
3mt13d4svlx9o7if06iqiqr3,11,3,2,354,75,pd,3,0.0,1.0,11.393,1,1,0.0
3mt13d4svlx9o7if06iqiqr3,12,3,2,335,72,pd,2,0.0,1.0,18.709,1,1,0.0
3mt13d4svlx9o7if06iqiqr3,13,3,2,149,35,pd,2,0.0,1.0,8.927,1,1,0.0
3mt13d4svlx9o7if06iqiqr3,14,3,2,154,36,pd,1,0.0,1.0,13.45,1,1,0.0
3mt13d4svlx9o7if06iqiqr3,15,3,2,294,64,pd,3,0.0,1.0,13.372,1,1,0.0
3mt13d4svlx9o7if06iqiqr3,16,3,2,382,80,pd,1,0.0,1.0,14.116,1,1,0.0
3mt13d4svlx9o7if06iqiqr3,17,3,2,346,74,pd,1,0.0,1.0,15.344,1,1,0.0
3mt13d4svlx9o7if06iqiqr3,18,3,2,197,46,pd,2,0.0,1.0,20.928,1,1,0.0
3mt13d4svlx9o7if06iqiqr3,19,3,2,263,59,pd,2,0.0,1.0,11.663,1,1,0.0
3mt13d4svlx9o7if06iqiqr3,20,3,2,306,66,pd,3,0.0,1.0,24.233,1,1,0.0
3mt13d4svlx9o7if06iqiqr3,21,3,2,286,63,pd,1,0.0,1.0,17.953,1,1,0.0
3mt13d4svlx9o7if06iqiqr3,22,3,2,78,21,pd,3,0.0,1.0,15.867,1,1,0.0
3mt13d4svlx9o7if06iqiqr3,23,3,2,372,78,pd,3,0.0,1.0,15.645,1,1,0.0
3mt13d4svlx9o7if06iqiqr3,24,3,2,185,44,pd,2,0.0,1.0,14.434,1,1,0.0
3xmqclm3ueu48y55ql8g1t49,1,3,2,190,45,pd,1,0.0,1.0,9.232,1,1,0.0
3xmqclm3ueu48y55ql8g1t49,2,3,2,130,30,pd,1,0.0,1.0,11.109,1,1,0.0
3xmqclm3ueu48y55ql8g1t49,3,3,2,246,55,pd,3,0.0,1.0,7.865,1,1,0.0
3xmqclm3ueu48y55ql8g1t49,4,3,2,254,58,md,2,1.0,0.0,12.498,1,1,0.0
3xmqclm3ueu48y55ql8g1t49,5,3,2,178,42,pd,1,3.0,0.0,14.148,1,1,0.0
3xmqclm3ueu48y55ql8g1t49,6,3,2,227,52,pd,2,3.0,0.0,13.2,1,1,0.0
3xmqclm3ueu48y55ql8g1t49,7,3,2,126,29,pd,3,0.0,1.0,11.986,1,1,0.0
3xmqclm3ueu48y55ql8g1t49,8,3,2,94,24,pd,1,0.0,1.0,8.577,1,1,0.0
3xmqclm3ueu48y55ql8g1t49,9,3,2,53,17,pd,2,1.0,0.0,10.336,1,1,0.0
3xmqclm3ueu48y55ql8g1t49,10,3,2,359,76,pd,2,1.0,0.0,13.771,1,1,0.0
3xmqclm3ueu48y55ql8g1t49,11,3,2,354,75,pd,3,1.0,0.0,10.997,1,1,0.0
3xmqclm3ueu48y55ql8g1t49,12,3,2,335,72,pd,2,1.0,0.0,13.165,1,1,0.0
3xmqclm3ueu48y55ql8g1t49,13,3,2,149,35,pd,2,0.0,1.0,5.715,1,1,0.0
3xmqclm3ueu48y55ql8g1t49,14,3,2,154,36,pd,1,1.0,0.0,12.14,1,1,0.0
3xmqclm3ueu48y55ql8g1t49,15,3,2,294,64,pd,3,0.0,1.0,11.96,1,1,0.0
3xmqclm3ueu48y55ql8g1t49,16,3,2,382,80,pd,1,3.0,0.0,12.195,1,1,0.0
3xmqclm3ueu48y55ql8g1t49,17,3,2,346,74,pd,1,0.0,1.0,8.463,1,1,0.0
3xmqclm3ueu48y55ql8g1t49,18,3,2,197,46,pd,2,0.0,1.0,14.505,1,1,0.0
3xmqclm3ueu48y55ql8g1t49,19,3,2,263,59,pd,2,0.0,1.0,11.774,1,1,0.0
3xmqclm3ueu48y55ql8g1t49,20,3,2,306,66,pd,3,1.0,0.0,8.215,1,1,0.0
3xmqclm3ueu48y55ql8g1t49,21,3,2,286,63,pd,1,3.0,0.0,13.439,1,1,0.0
3xmqclm3ueu48y55ql8g1t49,22,3,2,78,21,pd,3,3.0,0.0,6.954,1,1,0.0
3xmqclm3ueu48y55ql8g1t49,23,3,2,372,78,pd,3,2.0,0.0,11.449,1,1,0.0
3xmqclm3ueu48y55ql8g1t49,24,3,2,185,44,pd,2,2.0,0.0,11.032,1,1,0.0
3y56cntgtzvbinzrsb9ejbgh,1,3,2,190,45,pd,1,0.0,1.0,7.722,1,1,0.0
3y56cntgtzvbinzrsb9ejbgh,2,3,2,130,30,pd,1,0.0,1.0,17.826,1,1,0.0
3y56cntgtzvbinzrsb9ejbgh,3,3,2,246,55,pd,3,0.0,1.0,7.332,1,1,0.0
3y56cntgtzvbinzrsb9ejbgh,4,3,2,254,58,md,2,0.0,1.0,18.302,1,1,0.0
3y56cntgtzvbinzrsb9ejbgh,5,3,2,178,42,pd,1,3.0,0.0,10.813,1,1,0.0
3y56cntgtzvbinzrsb9ejbgh,6,3,2,227,52,pd,2,1.0,0.0,14.309,1,1,0.0
3y56cntgtzvbinzrsb9ejbgh,7,3,2,126,29,pd,3,0.0,1.0,7.752,1,1,0.0
3y56cntgtzvbinzrsb9ejbgh,8,3,2,94,24,pd,1,0.0,1.0,13.582,1,1,0.0
3y56cntgtzvbinzrsb9ejbgh,9,3,2,53,17,pd,2,1.0,0.0,7.438,1,1,0.0
3y56cntgtzvbinzrsb9ejbgh,10,3,2,359,76,pd,2,0.0,1.0,12.219,1,1,0.0
3y56cntgtzvbinzrsb9ejbgh,11,3,2,354,75,pd,3,1.0,0.0,8.671,1,1,0.0
3y56cntgtzvbinzrsb9ejbgh,12,3,2,335,72,pd,2,0.0,1.0,13.095,1,1,0.0
3y56cntgtzvbinzrsb9ejbgh,13,3,2,149,35,pd,2,1.0,0.0,15.306,1,1,0.0
3y56cntgtzvbinzrsb9ejbgh,14,3,2,154,36,pd,1,2.0,0.0,24.788,1,1,0.0
3y56cntgtzvbinzrsb9ejbgh,15,3,2,294,64,pd,3,1.0,0.0,13.7,1,1,0.0
3y56cntgtzvbinzrsb9ejbgh,16,3,2,382,80,pd,1,3.0,0.0,13.884,1,1,0.0
3y56cntgtzvbinzrsb9ejbgh,17,3,2,346,74,pd,1,0.0,1.0,17.205,1,1,0.0
3y56cntgtzvbinzrsb9ejbgh,18,3,2,197,46,pd,2,0.0,1.0,16.178,1,1,0.0
3y56cntgtzvbinzrsb9ejbgh,19,3,2,263,59,pd,2,1.0,0.0,9.626,1,1,0.0
3y56cntgtzvbinzrsb9ejbgh,20,3,2,306,66,pd,3,1.0,0.0,8.012,1,1,0.0
3y56cntgtzvbinzrsb9ejbgh,21,3,2,286,63,pd,1,2.0,0.0,10.318,1,1,0.0
3y56cntgtzvbinzrsb9ejbgh,22,3,2,78,21,pd,3,0.0,1.0,16.902,1,1,0.0
3y56cntgtzvbinzrsb9ejbgh,23,3,2,372,78,pd,3,1.0,0.0,8.755,1,1,0.0
3y56cntgtzvbinzrsb9ejbgh,24,3,2,185,44,pd,2,2.0,0.0,11.807,1,1,0.0
4180wl83hamtlhn114oqs14v,1,3,1,244,55,pd,1,0.0,1.0,10.686,1,1,0.0
4180wl83hamtlhn114oqs14v,2,3,1,132,30,pd,3,3.0,0.0,22.502,1,1,0.0
4180wl83hamtlhn114oqs14v,3,3,1,292,64,pd,1,0.0,1.0,18.848,1,1,0.0
4180wl83hamtlhn114oqs14v,4,3,1,192,45,pd,3,0.0,1.0,16.948,1,1,0.0
4180wl83hamtlhn114oqs14v,5,3,1,148,35,pd,1,0.0,1.0,13.292,1,1,0.0
4180wl83hamtlhn114oqs14v,6,3,1,334,72,pd,1,0.0,1.0,23.553,1,1,0.0
4180wl83hamtlhn114oqs14v,7,3,1,112,27,pd,1,0.0,1.0,12.278,1,1,0.0
4180wl83hamtlhn114oqs14v,8,3,1,378,79,pd,3,0.0,1.0,25.437,1,1,0.0
4180wl83hamtlhn114oqs14v,9,3,1,125,29,pd,2,0.0,1.0,12.354,1,1,0.0
4180wl83hamtlhn114oqs14v,10,3,1,96,24,pd,3,0.0,1.0,19.645,1,1,0.0
4180wl83hamtlhn114oqs14v,11,3,1,180,42,pd,3,0.0,1.0,28.8,1,1,0.0
4180wl83hamtlhn114oqs14v,12,3,1,238,54,pd,1,0.0,1.0,10.066,1,1,0.0
4180wl83hamtlhn114oqs14v,13,3,1,54,17,pd,3,0.0,1.0,9.818,1,1,0.0
4180wl83hamtlhn114oqs14v,14,3,1,255,58,md,3,0.0,1.0,9.949,1,1,0.0
4180wl83hamtlhn114oqs14v,15,3,1,341,73,pd,2,0.0,1.0,13.472,1,1,0.0
4180wl83hamtlhn114oqs14v,16,3,1,156,36,pd,3,0.0,1.0,25.499,1,1,0.0
4180wl83hamtlhn114oqs14v,17,3,1,288,63,pd,3,0.0,1.0,23.072,1,1,0.0
4180wl83hamtlhn114oqs14v,18,3,1,353,75,pd,2,0.0,1.0,24.177,1,1,0.0
4180wl83hamtlhn114oqs14v,19,3,1,348,74,pd,3,0.0,1.0,17.471,1,1,0.0
4180wl83hamtlhn114oqs14v,20,3,1,358,76,pd,1,0.0,1.0,26.146,1,1,0.0
4180wl83hamtlhn114oqs14v,21,3,1,383,80,pd,2,0.0,1.0,21.551,1,1,0.0
4180wl83hamtlhn114oqs14v,22,3,1,305,66,pd,2,0.0,1.0,22.751,1,1,0.0
4180wl83hamtlhn114oqs14v,23,3,1,76,21,pd,1,0.0,1.0,23.21,1,1,0.0
4180wl83hamtlhn114oqs14v,24,3,1,370,78,pd,1,0.0,1.0,19.743,1,1,0.0
4cqvclz0fnjf95g4ocjsred9,1,3,1,244,55,pd,1,0.0,1.0,10.29,1,1,0.0
4cqvclz0fnjf95g4ocjsred9,2,3,1,132,30,pd,3,3.0,0.0,6.442,1,1,0.0
4cqvclz0fnjf95g4ocjsred9,3,3,1,292,64,pd,1,0.0,1.0,8.777,1,1,0.0
4cqvclz0fnjf95g4ocjsred9,4,3,1,192,45,pd,3,0.0,1.0,10.494,1,1,0.0
4cqvclz0fnjf95g4ocjsred9,5,3,1,148,35,pd,1,3.0,0.0,11.06,1,1,0.0
4cqvclz0fnjf95g4ocjsred9,6,3,1,334,72,pd,1,0.0,1.0,11.393,1,1,0.0
4cqvclz0fnjf95g4ocjsred9,7,3,1,112,27,pd,1,0.0,1.0,5.908,1,1,0.0
4cqvclz0fnjf95g4ocjsred9,8,3,1,378,79,pd,3,1.0,0.0,8.426,1,1,0.0
4cqvclz0fnjf95g4ocjsred9,9,3,1,125,29,pd,2,3.0,0.0,7.261,1,1,0.0
4cqvclz0fnjf95g4ocjsred9,10,3,1,96,24,pd,3,3.0,0.0,18.092,1,1,0.0
4cqvclz0fnjf95g4ocjsred9,11,3,1,180,42,pd,3,0.0,1.0,16.293,1,1,0.0
4cqvclz0fnjf95g4ocjsred9,12,3,1,238,54,pd,1,0.0,1.0,10.679,1,1,0.0
4cqvclz0fnjf95g4ocjsred9,13,3,1,54,17,pd,3,2.0,0.0,18.424,1,1,0.0
4cqvclz0fnjf95g4ocjsred9,14,3,1,255,58,md,3,1.0,0.0,11.878,1,1,0.0
4cqvclz0fnjf95g4ocjsred9,15,3,1,341,73,pd,2,0.0,1.0,13.162,1,1,0.0
4cqvclz0fnjf95g4ocjsred9,16,3,1,156,36,pd,3,3.0,0.0,8.91,1,1,0.0
4cqvclz0fnjf95g4ocjsred9,17,3,1,288,63,pd,3,3.0,0.0,8.891,1,1,0.0
4cqvclz0fnjf95g4ocjsred9,18,3,1,353,75,pd,2,0.0,1.0,9.424,1,1,0.0
4cqvclz0fnjf95g4ocjsred9,19,3,1,348,74,pd,3,3.0,0.0,7.912,1,1,0.0
4cqvclz0fnjf95g4ocjsred9,20,3,1,358,76,pd,1,3.0,0.0,4.691,1,1,0.0
4cqvclz0fnjf95g4ocjsred9,21,3,1,383,80,pd,2,0.0,1.0,11.36,1,1,0.0
4cqvclz0fnjf95g4ocjsred9,22,3,1,305,66,pd,2,3.0,0.0,13.262,1,1,0.0
4cqvclz0fnjf95g4ocjsred9,23,3,1,76,21,pd,1,0.0,1.0,8.826,1,1,0.0
4cqvclz0fnjf95g4ocjsred9,24,3,1,370,78,pd,1,3.0,0.0,8.394,1,1,0.0
4h9s6f5r1bjbbuznd6z57lcj,1,3,1,244,55,pd,1,2.0,0.0,8.986,1,1,0.0
4h9s6f5r1bjbbuznd6z57lcj,2,3,1,132,30,pd,3,0.0,1.0,10.948,1,1,0.0
4h9s6f5r1bjbbuznd6z57lcj,3,3,1,292,64,pd,1,0.0,1.0,8.081,1,1,0.0
4h9s6f5r1bjbbuznd6z57lcj,4,3,1,192,45,pd,3,3.0,0.0,8.977,1,1,0.0
4h9s6f5r1bjbbuznd6z57lcj,5,3,1,148,35,pd,1,0.0,1.0,7.263,1,1,0.0
4h9s6f5r1bjbbuznd6z57lcj,6,3,1,334,72,pd,1,0.0,1.0,9.398,1,1,0.0
4h9s6f5r1bjbbuznd6z57lcj,7,3,1,112,27,pd,1,2.0,0.0,11.438,1,1,0.0
4h9s6f5r1bjbbuznd6z57lcj,8,3,1,378,79,pd,3,3.0,0.0,10.887,1,1,0.0
4h9s6f5r1bjbbuznd6z57lcj,9,3,1,125,29,pd,2,1.0,0.0,13.081,1,1,0.0
4h9s6f5r1bjbbuznd6z57lcj,10,3,1,96,24,pd,3,0.0,1.0,12.847,1,1,0.0
4h9s6f5r1bjbbuznd6z57lcj,11,3,1,180,42,pd,3,3.0,0.0,10.647,1,1,0.0
4h9s6f5r1bjbbuznd6z57lcj,12,3,1,238,54,pd,1,3.0,0.0,9.938,1,1,0.0
4h9s6f5r1bjbbuznd6z57lcj,13,3,1,54,17,pd,3,2.0,0.0,18.766,1,1,0.0
4h9s6f5r1bjbbuznd6z57lcj,14,3,1,255,58,md,3,3.0,0.0,16.99,1,1,0.0
4h9s6f5r1bjbbuznd6z57lcj,15,3,1,341,73,pd,2,0.0,1.0,11.067,1,1,0.0
4h9s6f5r1bjbbuznd6z57lcj,16,3,1,156,36,pd,3,0.0,1.0,11.387,1,1,0.0
4h9s6f5r1bjbbuznd6z57lcj,17,3,1,288,63,pd,3,0.0,1.0,10.491,1,1,0.0
4h9s6f5r1bjbbuznd6z57lcj,18,3,1,353,75,pd,2,1.0,0.0,12.044,1,1,0.0
4h9s6f5r1bjbbuznd6z57lcj,19,3,1,348,74,pd,3,3.0,0.0,3.989,1,1,0.0
4h9s6f5r1bjbbuznd6z57lcj,20,3,1,358,76,pd,1,0.0,1.0,19.826,1,1,0.0
4h9s6f5r1bjbbuznd6z57lcj,21,3,1,383,80,pd,2,3.0,0.0,16.597,1,1,0.0
4h9s6f5r1bjbbuznd6z57lcj,22,3,1,305,66,pd,2,3.0,0.0,5.537,1,1,0.0
4h9s6f5r1bjbbuznd6z57lcj,23,3,1,76,21,pd,1,1.0,0.0,11.99,1,1,0.0
4h9s6f5r1bjbbuznd6z57lcj,24,3,1,370,78,pd,1,1.0,0.0,1.448,1,1,0.0
4i5r1nyk58x1dat3j9a94rna,1,3,1,244,55,pd,1,0.0,1.0,3.75,1,1,0.0
4i5r1nyk58x1dat3j9a94rna,2,3,1,132,30,pd,3,3.0,0.0,3.646,1,1,0.0
4i5r1nyk58x1dat3j9a94rna,3,3,1,292,64,pd,1,0.0,1.0,6.885,1,1,0.0
4i5r1nyk58x1dat3j9a94rna,4,3,1,192,45,pd,3,0.0,1.0,9.01,1,1,0.0
4i5r1nyk58x1dat3j9a94rna,5,3,1,148,35,pd,1,0.0,1.0,8.028,1,1,0.0
4i5r1nyk58x1dat3j9a94rna,6,3,1,334,72,pd,1,0.0,1.0,12.109,1,1,0.0
4i5r1nyk58x1dat3j9a94rna,7,3,1,112,27,pd,1,0.0,1.0,11.923,1,1,0.0
4i5r1nyk58x1dat3j9a94rna,8,3,1,378,79,pd,3,1.0,0.0,12.191,1,1,0.0
4i5r1nyk58x1dat3j9a94rna,9,3,1,125,29,pd,2,3.0,0.0,5.089,1,1,0.0
4i5r1nyk58x1dat3j9a94rna,10,3,1,96,24,pd,3,0.0,1.0,8.948,1,1,0.0
4i5r1nyk58x1dat3j9a94rna,11,3,1,180,42,pd,3,0.0,1.0,11.457,1,1,0.0
4i5r1nyk58x1dat3j9a94rna,12,3,1,238,54,pd,1,1.0,0.0,7.27,1,1,0.0
4i5r1nyk58x1dat3j9a94rna,13,3,1,54,17,pd,3,0.0,1.0,11.187,1,1,0.0
4i5r1nyk58x1dat3j9a94rna,14,3,1,255,58,md,3,3.0,0.0,9.774,1,1,0.0
4i5r1nyk58x1dat3j9a94rna,15,3,1,341,73,pd,2,3.0,0.0,8.591,1,1,0.0
4i5r1nyk58x1dat3j9a94rna,16,3,1,156,36,pd,3,3.0,0.0,9.947,1,1,0.0
4i5r1nyk58x1dat3j9a94rna,17,3,1,288,63,pd,3,2.0,0.0,11.621,1,1,0.0
4i5r1nyk58x1dat3j9a94rna,18,3,1,353,75,pd,2,1.0,0.0,2.562,1,1,0.0
4i5r1nyk58x1dat3j9a94rna,19,3,1,348,74,pd,3,3.0,0.0,2.6,1,1,0.0
4i5r1nyk58x1dat3j9a94rna,20,3,1,358,76,pd,1,0.0,1.0,2.489,1,1,0.0
4i5r1nyk58x1dat3j9a94rna,21,3,1,383,80,pd,2,1.0,0.0,6.991,1,1,0.0
4i5r1nyk58x1dat3j9a94rna,22,3,1,305,66,pd,2,1.0,0.0,2.31,1,1,0.0
4i5r1nyk58x1dat3j9a94rna,23,3,1,76,21,pd,1,1.0,0.0,7.654,1,1,0.0
4i5r1nyk58x1dat3j9a94rna,24,3,1,370,78,pd,1,0.0,1.0,1.95,1,1,0.0
4kzkglmnffnvdk7gztjcbs1z,1,3,1,244,55,pd,1,0.0,1.0,9.78,1,1,0.0
4kzkglmnffnvdk7gztjcbs1z,2,3,1,132,30,pd,3,0.0,1.0,10.585,1,1,0.0
4kzkglmnffnvdk7gztjcbs1z,3,3,1,292,64,pd,1,0.0,1.0,9.184,1,1,0.0
4kzkglmnffnvdk7gztjcbs1z,4,3,1,192,45,pd,3,0.0,1.0,8.702,1,1,0.0
4kzkglmnffnvdk7gztjcbs1z,5,3,1,148,35,pd,1,1.0,0.0,13.565,1,1,0.0
4kzkglmnffnvdk7gztjcbs1z,6,3,1,334,72,pd,1,0.0,1.0,13.582,1,1,0.0
4kzkglmnffnvdk7gztjcbs1z,7,3,1,112,27,pd,1,0.0,1.0,12.722,1,1,0.0
4kzkglmnffnvdk7gztjcbs1z,8,3,1,378,79,pd,3,2.0,0.0,14.434,1,1,0.0
4kzkglmnffnvdk7gztjcbs1z,9,3,1,125,29,pd,2,0.0,1.0,10.443,1,1,0.0
4kzkglmnffnvdk7gztjcbs1z,10,3,1,96,24,pd,3,2.0,0.0,7.652,1,1,0.0
4kzkglmnffnvdk7gztjcbs1z,11,3,1,180,42,pd,3,0.0,1.0,14.392,1,1,0.0
4kzkglmnffnvdk7gztjcbs1z,12,3,1,238,54,pd,1,0.0,1.0,8.12,1,1,0.0
4kzkglmnffnvdk7gztjcbs1z,13,3,1,54,17,pd,3,1.0,0.0,13.006,1,1,0.0
4kzkglmnffnvdk7gztjcbs1z,14,3,1,255,58,md,3,0.0,1.0,6.565,1,1,0.0
4kzkglmnffnvdk7gztjcbs1z,15,3,1,341,73,pd,2,3.0,0.0,10.027,1,1,0.0
4kzkglmnffnvdk7gztjcbs1z,16,3,1,156,36,pd,3,3.0,0.0,11.762,1,1,0.0
4kzkglmnffnvdk7gztjcbs1z,17,3,1,288,63,pd,3,0.0,1.0,18.643,1,1,0.0
4kzkglmnffnvdk7gztjcbs1z,18,3,1,353,75,pd,2,3.0,0.0,16.139,1,1,0.0
4kzkglmnffnvdk7gztjcbs1z,19,3,1,348,74,pd,3,0.0,1.0,7.134,1,1,0.0
4kzkglmnffnvdk7gztjcbs1z,20,3,1,358,76,pd,1,0.0,1.0,11.56,1,1,0.0
4kzkglmnffnvdk7gztjcbs1z,21,3,1,383,80,pd,2,0.0,1.0,7.739,1,1,0.0
4kzkglmnffnvdk7gztjcbs1z,22,3,1,305,66,pd,2,0.0,1.0,13.802,1,1,0.0
4kzkglmnffnvdk7gztjcbs1z,23,3,1,76,21,pd,1,1.0,0.0,10.269,1,1,0.0
4kzkglmnffnvdk7gztjcbs1z,24,3,1,370,78,pd,1,0.0,1.0,12.132,1,1,0.0
4nb9zh2zvihwz629vqrod27w,1,3,1,244,55,pd,1,0.0,1.0,5.595,1,1,0.0
4nb9zh2zvihwz629vqrod27w,2,3,1,132,30,pd,3,0.0,1.0,12.992,1,1,0.0
4nb9zh2zvihwz629vqrod27w,3,3,1,292,64,pd,1,0.0,1.0,18.729,1,1,0.0
4nb9zh2zvihwz629vqrod27w,4,3,1,192,45,pd,3,0.0,1.0,11.009,1,1,0.0
4nb9zh2zvihwz629vqrod27w,5,3,1,148,35,pd,1,0.0,1.0,8.929,1,1,0.0
4nb9zh2zvihwz629vqrod27w,6,3,1,334,72,pd,1,0.0,1.0,13.435,1,1,0.0
4nb9zh2zvihwz629vqrod27w,7,3,1,112,27,pd,1,0.0,1.0,16.122,1,1,0.0
4nb9zh2zvihwz629vqrod27w,8,3,1,378,79,pd,3,2.0,0.0,17.645,1,1,0.0
4nb9zh2zvihwz629vqrod27w,9,3,1,125,29,pd,2,0.0,1.0,15.712,1,1,0.0
4nb9zh2zvihwz629vqrod27w,10,3,1,96,24,pd,3,3.0,0.0,14.634,1,1,0.0
4nb9zh2zvihwz629vqrod27w,11,3,1,180,42,pd,3,1.0,0.0,18.289,1,1,0.0
4nb9zh2zvihwz629vqrod27w,12,3,1,238,54,pd,1,0.0,1.0,13.794,1,1,0.0
4nb9zh2zvihwz629vqrod27w,13,3,1,54,17,pd,3,1.0,0.0,12.376,1,1,0.0
4nb9zh2zvihwz629vqrod27w,14,3,1,255,58,md,3,1.0,0.0,11.889,1,1,0.0
4nb9zh2zvihwz629vqrod27w,15,3,1,341,73,pd,2,0.0,1.0,18.669,1,1,0.0
4nb9zh2zvihwz629vqrod27w,16,3,1,156,36,pd,3,2.0,0.0,21.207,1,1,0.0
4nb9zh2zvihwz629vqrod27w,17,3,1,288,63,pd,3,1.0,0.0,17.045,1,1,0.0
4nb9zh2zvihwz629vqrod27w,18,3,1,353,75,pd,2,0.0,1.0,16.712,1,1,0.0
4nb9zh2zvihwz629vqrod27w,19,3,1,348,74,pd,3,0.0,1.0,20.764,1,1,0.0
4nb9zh2zvihwz629vqrod27w,20,3,1,358,76,pd,1,3.0,0.0,24.752,1,1,0.0
4nb9zh2zvihwz629vqrod27w,21,3,1,383,80,pd,2,0.0,1.0,22.838,1,1,0.0
4nb9zh2zvihwz629vqrod27w,22,3,1,305,66,pd,2,0.0,1.0,10.662,1,1,0.0
4nb9zh2zvihwz629vqrod27w,23,3,1,76,21,pd,1,3.0,0.0,14.184,1,1,0.0
4nb9zh2zvihwz629vqrod27w,24,3,1,370,78,pd,1,1.0,0.0,20.305,1,1,0.0
4o0zohmgk13ulr91i7rrwrqj,1,3,1,244,55,pd,1,0.0,1.0,8.3,1,1,0.0
4o0zohmgk13ulr91i7rrwrqj,2,3,1,132,30,pd,3,0.0,1.0,12.171,1,1,0.0
4o0zohmgk13ulr91i7rrwrqj,3,3,1,292,64,pd,1,0.0,1.0,18.685,1,1,0.0
4o0zohmgk13ulr91i7rrwrqj,4,3,1,192,45,pd,3,0.0,1.0,18.2,1,1,0.0
4o0zohmgk13ulr91i7rrwrqj,5,3,1,148,35,pd,1,0.0,1.0,10.835,1,1,0.0
4o0zohmgk13ulr91i7rrwrqj,6,3,1,334,72,pd,1,0.0,1.0,13.193,1,1,0.0
4o0zohmgk13ulr91i7rrwrqj,7,3,1,112,27,pd,1,0.0,1.0,9.519,1,1,0.0
4o0zohmgk13ulr91i7rrwrqj,8,3,1,378,79,pd,3,1.0,0.0,29.3,1,1,0.0
4o0zohmgk13ulr91i7rrwrqj,9,3,1,125,29,pd,2,0.0,1.0,15.543,1,1,0.0
4o0zohmgk13ulr91i7rrwrqj,10,3,1,96,24,pd,3,0.0,1.0,19.163,1,1,0.0
4o0zohmgk13ulr91i7rrwrqj,11,3,1,180,42,pd,3,3.0,0.0,20.178,1,1,0.0
4o0zohmgk13ulr91i7rrwrqj,12,3,1,238,54,pd,1,0.0,1.0,6.535,1,1,0.0
4o0zohmgk13ulr91i7rrwrqj,13,3,1,54,17,pd,3,1.0,0.0,22.274,1,1,0.0
4o0zohmgk13ulr91i7rrwrqj,14,3,1,255,58,md,3,0.0,1.0,17.209,1,1,0.0
4o0zohmgk13ulr91i7rrwrqj,15,3,1,341,73,pd,2,0.0,1.0,17.555,1,1,0.0
4o0zohmgk13ulr91i7rrwrqj,16,3,1,156,36,pd,3,3.0,0.0,15.356,1,1,0.0
4o0zohmgk13ulr91i7rrwrqj,17,3,1,288,63,pd,3,1.0,0.0,21.099,1,1,0.0
4o0zohmgk13ulr91i7rrwrqj,18,3,1,353,75,pd,2,0.0,1.0,15.739,1,1,0.0
4o0zohmgk13ulr91i7rrwrqj,19,3,1,348,74,pd,3,1.0,0.0,21.894,1,1,0.0
4o0zohmgk13ulr91i7rrwrqj,20,3,1,358,76,pd,1,3.0,0.0,28.263,1,1,0.0
4o0zohmgk13ulr91i7rrwrqj,21,3,1,383,80,pd,2,0.0,1.0,13.117,1,1,0.0
4o0zohmgk13ulr91i7rrwrqj,22,3,1,305,66,pd,2,0.0,1.0,16.553,1,1,0.0
4o0zohmgk13ulr91i7rrwrqj,23,3,1,76,21,pd,1,0.0,1.0,13.647,1,1,0.0
4o0zohmgk13ulr91i7rrwrqj,24,3,1,370,78,pd,1,0.0,1.0,18.863,1,1,0.0
4t4p4thv9qwc58ayv5vs8k9d,1,3,2,190,45,pd,1,0.0,1.0,7.19,1,1,0.0
4t4p4thv9qwc58ayv5vs8k9d,2,3,2,130,30,pd,1,0.0,1.0,13.414,1,1,0.0
4t4p4thv9qwc58ayv5vs8k9d,3,3,2,246,55,pd,3,0.0,1.0,11.225,1,1,0.0
4t4p4thv9qwc58ayv5vs8k9d,4,3,2,254,58,md,2,0.0,1.0,14.321,1,1,0.0
4t4p4thv9qwc58ayv5vs8k9d,5,3,2,178,42,pd,1,0.0,1.0,14.707,1,1,0.0
4t4p4thv9qwc58ayv5vs8k9d,6,3,2,227,52,pd,2,0.0,1.0,11.841,1,1,0.0
4t4p4thv9qwc58ayv5vs8k9d,7,3,2,126,29,pd,3,0.0,1.0,15.115,1,1,0.0
4t4p4thv9qwc58ayv5vs8k9d,8,3,2,94,24,pd,1,0.0,1.0,9.921,1,1,0.0
4t4p4thv9qwc58ayv5vs8k9d,9,3,2,53,17,pd,2,0.0,1.0,15.29,1,1,0.0
4t4p4thv9qwc58ayv5vs8k9d,10,3,2,359,76,pd,2,0.0,1.0,7.94,1,1,0.0
4t4p4thv9qwc58ayv5vs8k9d,11,3,2,354,75,pd,3,0.0,1.0,9.945,1,1,0.0
4t4p4thv9qwc58ayv5vs8k9d,12,3,2,335,72,pd,2,0.0,1.0,11.618,1,1,0.0
4t4p4thv9qwc58ayv5vs8k9d,13,3,2,149,35,pd,2,0.0,1.0,14.33,1,1,0.0
4t4p4thv9qwc58ayv5vs8k9d,14,3,2,154,36,pd,1,0.0,1.0,19.14,1,1,0.0
4t4p4thv9qwc58ayv5vs8k9d,15,3,2,294,64,pd,3,0.0,1.0,14.194,1,1,0.0
4t4p4thv9qwc58ayv5vs8k9d,16,3,2,382,80,pd,1,0.0,1.0,13.657,1,1,0.0
4t4p4thv9qwc58ayv5vs8k9d,17,3,2,346,74,pd,1,0.0,1.0,14.961,1,1,0.0
4t4p4thv9qwc58ayv5vs8k9d,18,3,2,197,46,pd,2,0.0,1.0,17.882,1,1,0.0
4t4p4thv9qwc58ayv5vs8k9d,19,3,2,263,59,pd,2,0.0,1.0,9.762,1,1,0.0
4t4p4thv9qwc58ayv5vs8k9d,20,3,2,306,66,pd,3,0.0,1.0,14.017,1,1,0.0
4t4p4thv9qwc58ayv5vs8k9d,21,3,2,286,63,pd,1,0.0,1.0,11.066,1,1,0.0
4t4p4thv9qwc58ayv5vs8k9d,22,3,2,78,21,pd,3,0.0,1.0,15.092,1,1,0.0
4t4p4thv9qwc58ayv5vs8k9d,23,3,2,372,78,pd,3,1.0,0.0,14.947,1,1,0.0
4t4p4thv9qwc58ayv5vs8k9d,24,3,2,185,44,pd,2,0.0,1.0,14.678,1,1,0.0
4tnnv1yqbttimeq4btpqzbag,1,3,1,244,55,pd,1,0.0,1.0,10.599,1,1,0.0
4tnnv1yqbttimeq4btpqzbag,2,3,1,132,30,pd,3,0.0,1.0,5.397,1,1,0.0
4tnnv1yqbttimeq4btpqzbag,3,3,1,292,64,pd,1,0.0,1.0,12.881,1,1,0.0
4tnnv1yqbttimeq4btpqzbag,4,3,1,192,45,pd,3,0.0,1.0,8.616,1,1,0.0
4tnnv1yqbttimeq4btpqzbag,5,3,1,148,35,pd,1,0.0,1.0,13.533,1,1,0.0
4tnnv1yqbttimeq4btpqzbag,6,3,1,334,72,pd,1,1.0,0.0,14.265,1,1,0.0
4tnnv1yqbttimeq4btpqzbag,7,3,1,112,27,pd,1,0.0,1.0,16.752,1,1,0.0
4tnnv1yqbttimeq4btpqzbag,8,3,1,378,79,pd,3,0.0,1.0,18.57,1,1,0.0
4tnnv1yqbttimeq4btpqzbag,9,3,1,125,29,pd,2,3.0,0.0,25.037,1,1,3.0
4tnnv1yqbttimeq4btpqzbag,10,3,1,96,24,pd,3,0.0,1.0,14.782,1,1,0.0
4tnnv1yqbttimeq4btpqzbag,11,3,1,180,42,pd,3,1.0,0.0,10.084,1,1,0.0
4tnnv1yqbttimeq4btpqzbag,12,3,1,238,54,pd,1,2.0,0.0,10.251,1,1,0.0
4tnnv1yqbttimeq4btpqzbag,13,3,1,54,17,pd,3,1.0,0.0,24.637,1,1,0.0
4tnnv1yqbttimeq4btpqzbag,14,3,1,255,58,md,3,0.0,1.0,13.319,1,1,0.0
4tnnv1yqbttimeq4btpqzbag,15,3,1,341,73,pd,2,1.0,0.0,14.935,1,1,0.0
4tnnv1yqbttimeq4btpqzbag,16,3,1,156,36,pd,3,0.0,1.0,19.372,1,1,0.0
4tnnv1yqbttimeq4btpqzbag,17,3,1,288,63,pd,3,0.0,1.0,15.52,1,1,0.0
4tnnv1yqbttimeq4btpqzbag,18,3,1,353,75,pd,2,1.0,0.0,18.501,1,1,0.0
4tnnv1yqbttimeq4btpqzbag,19,3,1,348,74,pd,3,3.0,0.0,14.601,1,1,0.0
4tnnv1yqbttimeq4btpqzbag,20,3,1,358,76,pd,1,3.0,0.0,15.038,1,1,0.0
4tnnv1yqbttimeq4btpqzbag,21,3,1,383,80,pd,2,3.0,0.0,17.703,1,1,0.0
4tnnv1yqbttimeq4btpqzbag,22,3,1,305,66,pd,2,0.0,1.0,17.955,1,1,0.0
4tnnv1yqbttimeq4btpqzbag,23,3,1,76,21,pd,1,1.0,0.0,15.518,1,1,0.0
4tnnv1yqbttimeq4btpqzbag,24,3,1,370,78,pd,1,0.0,1.0,11.516,1,1,0.0
4wcaoep10x0zv7vyd6otvte6,1,3,1,244,55,pd,1,0.0,1.0,9.437,1,1,0.0
4wcaoep10x0zv7vyd6otvte6,2,3,1,132,30,pd,3,3.0,0.0,14.03,1,1,0.0
4wcaoep10x0zv7vyd6otvte6,3,3,1,292,64,pd,1,0.0,1.0,10.855,1,1,0.0
4wcaoep10x0zv7vyd6otvte6,4,3,1,192,45,pd,3,0.0,1.0,8.942,1,1,0.0
4wcaoep10x0zv7vyd6otvte6,5,3,1,148,35,pd,1,0.0,1.0,11.429,1,1,0.0
4wcaoep10x0zv7vyd6otvte6,6,3,1,334,72,pd,1,0.0,1.0,23.192,1,1,0.0
4wcaoep10x0zv7vyd6otvte6,7,3,1,112,27,pd,1,0.0,1.0,13.433,1,1,0.0
4wcaoep10x0zv7vyd6otvte6,8,3,1,378,79,pd,3,0.0,1.0,9.84,1,1,0.0
4wcaoep10x0zv7vyd6otvte6,9,3,1,125,29,pd,2,0.0,1.0,19.968,1,1,0.0
4wcaoep10x0zv7vyd6otvte6,10,3,1,96,24,pd,3,0.0,1.0,22.585,1,1,0.0
4wcaoep10x0zv7vyd6otvte6,11,3,1,180,42,pd,3,0.0,1.0,15.882,1,1,0.0
4wcaoep10x0zv7vyd6otvte6,12,3,1,238,54,pd,1,0.0,1.0,16.715,1,1,0.0
4wcaoep10x0zv7vyd6otvte6,13,3,1,54,17,pd,3,0.0,1.0,10.125,1,1,0.0
4wcaoep10x0zv7vyd6otvte6,14,3,1,255,58,md,3,1.0,0.0,22.839,1,1,0.0
4wcaoep10x0zv7vyd6otvte6,15,3,1,341,73,pd,2,0.0,1.0,28.391,1,1,0.0
4wcaoep10x0zv7vyd6otvte6,16,3,1,156,36,pd,3,0.0,1.0,19.511,1,1,0.0
4wcaoep10x0zv7vyd6otvte6,17,3,1,288,63,pd,3,0.0,1.0,7.862,1,1,0.0
4wcaoep10x0zv7vyd6otvte6,18,3,1,353,75,pd,2,,,,1,1,0.0
4wcaoep10x0zv7vyd6otvte6,19,3,1,348,74,pd,3,0.0,1.0,23.04,1,1,0.0
4wcaoep10x0zv7vyd6otvte6,20,3,1,358,76,pd,1,0.0,1.0,9.823,1,1,0.0
4wcaoep10x0zv7vyd6otvte6,21,3,1,383,80,pd,2,0.0,1.0,11.223,1,1,0.0
4wcaoep10x0zv7vyd6otvte6,22,3,1,305,66,pd,2,0.0,1.0,11.967,1,1,0.0
4wcaoep10x0zv7vyd6otvte6,23,3,1,76,21,pd,1,0.0,1.0,15.213,1,1,0.0
4wcaoep10x0zv7vyd6otvte6,24,3,1,370,78,pd,1,0.0,1.0,18.608,1,1,0.0
548r613m1i597ijkkd0sc0os,1,3,1,244,55,pd,1,0.0,1.0,2.384,1,1,0.0
548r613m1i597ijkkd0sc0os,2,3,1,132,30,pd,3,3.0,0.0,8.392,1,1,0.0
548r613m1i597ijkkd0sc0os,3,3,1,292,64,pd,1,1.0,0.0,11.362,1,1,0.0
548r613m1i597ijkkd0sc0os,4,3,1,192,45,pd,3,2.0,0.0,3.755,1,1,0.0
548r613m1i597ijkkd0sc0os,5,3,1,148,35,pd,1,0.0,1.0,2.895,1,1,0.0
548r613m1i597ijkkd0sc0os,6,3,1,334,72,pd,1,1.0,0.0,12.632,1,1,0.0
548r613m1i597ijkkd0sc0os,7,3,1,112,27,pd,1,0.0,1.0,12.569,1,1,0.0
548r613m1i597ijkkd0sc0os,8,3,1,378,79,pd,3,0.0,1.0,7.105,1,1,0.0
548r613m1i597ijkkd0sc0os,9,3,1,125,29,pd,2,0.0,1.0,5.816,1,1,0.0
548r613m1i597ijkkd0sc0os,10,3,1,96,24,pd,3,0.0,1.0,7.485,1,1,0.0
548r613m1i597ijkkd0sc0os,11,3,1,180,42,pd,3,0.0,1.0,4.994,1,1,0.0
548r613m1i597ijkkd0sc0os,12,3,1,238,54,pd,1,0.0,1.0,6.588,1,1,0.0
548r613m1i597ijkkd0sc0os,13,3,1,54,17,pd,3,0.0,1.0,5.674,1,1,0.0
548r613m1i597ijkkd0sc0os,14,3,1,255,58,md,3,0.0,1.0,8.192,1,1,0.0
548r613m1i597ijkkd0sc0os,15,3,1,341,73,pd,2,3.0,0.0,8.306,1,1,0.0
548r613m1i597ijkkd0sc0os,16,3,1,156,36,pd,3,1.0,0.0,7.764,1,1,0.0
548r613m1i597ijkkd0sc0os,17,3,1,288,63,pd,3,3.0,0.0,3.976,1,1,0.0
548r613m1i597ijkkd0sc0os,18,3,1,353,75,pd,2,3.0,0.0,1.44,1,1,0.0
548r613m1i597ijkkd0sc0os,19,3,1,348,74,pd,3,3.0,0.0,2.995,1,1,0.0
548r613m1i597ijkkd0sc0os,20,3,1,358,76,pd,1,0.0,1.0,1.752,1,1,0.0
548r613m1i597ijkkd0sc0os,21,3,1,383,80,pd,2,1.0,0.0,0.885,1,1,0.0
548r613m1i597ijkkd0sc0os,22,3,1,305,66,pd,2,2.0,0.0,0.583,1,1,0.0
548r613m1i597ijkkd0sc0os,23,3,1,76,21,pd,1,3.0,0.0,0.739,1,1,0.0
548r613m1i597ijkkd0sc0os,24,3,1,370,78,pd,1,1.0,0.0,3.205,1,1,0.0
5aqac2dkk4jzqr85w9p4ceck,1,3,1,244,55,pd,1,0.0,1.0,8.663,1,1,0.0
5aqac2dkk4jzqr85w9p4ceck,2,3,1,132,30,pd,3,0.0,1.0,9.879,1,1,0.0
5aqac2dkk4jzqr85w9p4ceck,3,3,1,292,64,pd,1,0.0,1.0,13.329,1,1,0.0
5aqac2dkk4jzqr85w9p4ceck,4,3,1,192,45,pd,3,0.0,1.0,14.367,1,1,0.0
5aqac2dkk4jzqr85w9p4ceck,5,3,1,148,35,pd,1,0.0,1.0,10.047,1,1,0.0
5aqac2dkk4jzqr85w9p4ceck,6,3,1,334,72,pd,1,0.0,1.0,28.053,1,1,0.0
5aqac2dkk4jzqr85w9p4ceck,7,3,1,112,27,pd,1,0.0,1.0,14.115,1,1,0.0
5aqac2dkk4jzqr85w9p4ceck,8,3,1,378,79,pd,3,0.0,1.0,11.252,1,1,0.0
5aqac2dkk4jzqr85w9p4ceck,9,3,1,125,29,pd,2,0.0,1.0,11.569,1,1,0.0
5aqac2dkk4jzqr85w9p4ceck,10,3,1,96,24,pd,3,0.0,1.0,13.294,1,1,0.0
5aqac2dkk4jzqr85w9p4ceck,11,3,1,180,42,pd,3,0.0,1.0,15.045,1,1,0.0
5aqac2dkk4jzqr85w9p4ceck,12,3,1,238,54,pd,1,0.0,1.0,10.771,1,1,0.0
5aqac2dkk4jzqr85w9p4ceck,13,3,1,54,17,pd,3,0.0,1.0,14.399,1,1,0.0
5aqac2dkk4jzqr85w9p4ceck,14,3,1,255,58,md,3,0.0,1.0,17.143,1,1,0.0
5aqac2dkk4jzqr85w9p4ceck,15,3,1,341,73,pd,2,0.0,1.0,24.997,1,1,0.0
5aqac2dkk4jzqr85w9p4ceck,16,3,1,156,36,pd,3,0.0,1.0,11.898,1,1,0.0
5aqac2dkk4jzqr85w9p4ceck,17,3,1,288,63,pd,3,0.0,1.0,16.439,1,1,0.0
5aqac2dkk4jzqr85w9p4ceck,18,3,1,353,75,pd,2,0.0,1.0,28.332,1,1,0.0
5aqac2dkk4jzqr85w9p4ceck,19,3,1,348,74,pd,3,0.0,1.0,8.268,1,1,0.0
5aqac2dkk4jzqr85w9p4ceck,20,3,1,358,76,pd,1,0.0,1.0,17.407,1,1,0.0
5aqac2dkk4jzqr85w9p4ceck,21,3,1,383,80,pd,2,0.0,1.0,20.846,1,1,0.0
5aqac2dkk4jzqr85w9p4ceck,22,3,1,305,66,pd,2,0.0,1.0,20.368,1,1,0.0
5aqac2dkk4jzqr85w9p4ceck,23,3,1,76,21,pd,1,0.0,1.0,8.104,1,1,0.0
5aqac2dkk4jzqr85w9p4ceck,24,3,1,370,78,pd,1,0.0,1.0,8.339,1,1,0.0
5eljmhv6apxgoisdherxo39q,1,3,2,190,45,pd,1,2.0,0.0,5.917,1,1,0.0
5eljmhv6apxgoisdherxo39q,2,3,2,130,30,pd,1,3.0,0.0,19.971,1,1,0.0
5eljmhv6apxgoisdherxo39q,3,3,2,246,55,pd,3,0.0,1.0,12.754,1,1,0.0
5eljmhv6apxgoisdherxo39q,4,3,2,254,58,md,2,0.0,1.0,12.317,1,1,0.0
5eljmhv6apxgoisdherxo39q,5,3,2,178,42,pd,1,1.0,0.0,17.056,1,1,0.0
5eljmhv6apxgoisdherxo39q,6,3,2,227,52,pd,2,3.0,0.0,3.23,1,1,0.0
5eljmhv6apxgoisdherxo39q,7,3,2,126,29,pd,3,0.0,1.0,8.662,1,1,0.0
5eljmhv6apxgoisdherxo39q,8,3,2,94,24,pd,1,3.0,0.0,8.132,1,1,0.0
5eljmhv6apxgoisdherxo39q,9,3,2,53,17,pd,2,1.0,0.0,8.777,1,1,0.0
5eljmhv6apxgoisdherxo39q,10,3,2,359,76,pd,2,3.0,0.0,1.286,1,1,0.0
5eljmhv6apxgoisdherxo39q,11,3,2,354,75,pd,3,1.0,0.0,11.449,1,1,0.0
5eljmhv6apxgoisdherxo39q,12,3,2,335,72,pd,2,0.0,1.0,14.26,1,1,0.0
5eljmhv6apxgoisdherxo39q,13,3,2,149,35,pd,2,0.0,1.0,10.531,1,1,0.0
5eljmhv6apxgoisdherxo39q,14,3,2,154,36,pd,1,1.0,0.0,14.101,1,1,0.0
5eljmhv6apxgoisdherxo39q,15,3,2,294,64,pd,3,3.0,0.0,12.437,1,1,0.0
5eljmhv6apxgoisdherxo39q,16,3,2,382,80,pd,1,3.0,0.0,5.63,1,1,0.0
5eljmhv6apxgoisdherxo39q,17,3,2,346,74,pd,1,1.0,0.0,4.7,1,1,0.0
5eljmhv6apxgoisdherxo39q,18,3,2,197,46,pd,2,2.0,0.0,10.938,1,1,0.0
5eljmhv6apxgoisdherxo39q,19,3,2,263,59,pd,2,3.0,0.0,8.6,1,1,0.0
5eljmhv6apxgoisdherxo39q,20,3,2,306,66,pd,3,1.0,0.0,12.548,1,1,0.0
5eljmhv6apxgoisdherxo39q,21,3,2,286,63,pd,1,0.0,1.0,11.317,1,1,0.0
5eljmhv6apxgoisdherxo39q,22,3,2,78,21,pd,3,0.0,1.0,2.845,1,1,0.0
5eljmhv6apxgoisdherxo39q,23,3,2,372,78,pd,3,1.0,0.0,8.796,1,1,0.0
5eljmhv6apxgoisdherxo39q,24,3,2,185,44,pd,2,3.0,0.0,6.028,1,1,0.0
5uhn3mipoysj0519qdgqjpo3,1,3,2,190,45,pd,1,2.0,0.0,14.968,1,1,0.0
5uhn3mipoysj0519qdgqjpo3,2,3,2,130,30,pd,1,0.0,1.0,9.127,1,1,0.0
5uhn3mipoysj0519qdgqjpo3,3,3,2,246,55,pd,3,0.0,1.0,10.725,1,1,0.0
5uhn3mipoysj0519qdgqjpo3,4,3,2,254,58,md,2,0.0,1.0,17.326,1,1,0.0
5uhn3mipoysj0519qdgqjpo3,5,3,2,178,42,pd,1,0.0,1.0,14.849,1,1,0.0
5uhn3mipoysj0519qdgqjpo3,6,3,2,227,52,pd,2,0.0,1.0,16.407,1,1,0.0
5uhn3mipoysj0519qdgqjpo3,7,3,2,126,29,pd,3,0.0,1.0,19.742,1,1,0.0
5uhn3mipoysj0519qdgqjpo3,8,3,2,94,24,pd,1,0.0,1.0,9.478,1,1,0.0
5uhn3mipoysj0519qdgqjpo3,9,3,2,53,17,pd,2,0.0,1.0,22.679,1,1,0.0
5uhn3mipoysj0519qdgqjpo3,10,3,2,359,76,pd,2,1.0,0.0,13.765,1,1,0.0
5uhn3mipoysj0519qdgqjpo3,11,3,2,354,75,pd,3,2.0,0.0,10.196,1,1,0.0
5uhn3mipoysj0519qdgqjpo3,12,3,2,335,72,pd,2,0.0,1.0,14.141,1,1,0.0
5uhn3mipoysj0519qdgqjpo3,13,3,2,149,35,pd,2,1.0,0.0,12.669,1,1,0.0
5uhn3mipoysj0519qdgqjpo3,14,3,2,154,36,pd,1,0.0,1.0,18.281,1,1,0.0
5uhn3mipoysj0519qdgqjpo3,15,3,2,294,64,pd,3,0.0,1.0,18.852,1,1,0.0
5uhn3mipoysj0519qdgqjpo3,16,3,2,382,80,pd,1,1.0,0.0,9.788,1,1,0.0
5uhn3mipoysj0519qdgqjpo3,17,3,2,346,74,pd,1,1.0,0.0,9.292,1,1,0.0
5uhn3mipoysj0519qdgqjpo3,18,3,2,197,46,pd,2,1.0,0.0,16.246,1,1,0.0
5uhn3mipoysj0519qdgqjpo3,19,3,2,263,59,pd,2,3.0,0.0,7.928,1,1,0.0
5uhn3mipoysj0519qdgqjpo3,20,3,2,306,66,pd,3,2.0,0.0,21.756,1,1,0.0
5uhn3mipoysj0519qdgqjpo3,21,3,2,286,63,pd,1,2.0,0.0,12.563,1,1,0.0
5uhn3mipoysj0519qdgqjpo3,22,3,2,78,21,pd,3,0.0,1.0,25.917,1,1,0.0
5uhn3mipoysj0519qdgqjpo3,23,3,2,372,78,pd,3,2.0,0.0,6.079,1,1,0.0
5uhn3mipoysj0519qdgqjpo3,24,3,2,185,44,pd,2,1.0,0.0,7.126,1,1,0.0
5vqg62t14msjdocnn7k75ntw,1,3,1,244,55,pd,1,0.0,1.0,5.709,1,1,0.0
5vqg62t14msjdocnn7k75ntw,2,3,1,132,30,pd,3,0.0,1.0,9.961,1,1,0.0
5vqg62t14msjdocnn7k75ntw,3,3,1,292,64,pd,1,0.0,1.0,16.217,1,1,0.0
5vqg62t14msjdocnn7k75ntw,4,3,1,192,45,pd,3,0.0,1.0,15.138,1,1,0.0
5vqg62t14msjdocnn7k75ntw,5,3,1,148,35,pd,1,0.0,1.0,7.66,1,1,0.0
5vqg62t14msjdocnn7k75ntw,6,3,1,334,72,pd,1,1.0,0.0,16.448,1,1,0.0
5vqg62t14msjdocnn7k75ntw,7,3,1,112,27,pd,1,0.0,1.0,11.145,1,1,0.0
5vqg62t14msjdocnn7k75ntw,8,3,1,378,79,pd,3,0.0,1.0,10.917,1,1,0.0
5vqg62t14msjdocnn7k75ntw,9,3,1,125,29,pd,2,0.0,1.0,9.23,1,1,0.0
5vqg62t14msjdocnn7k75ntw,10,3,1,96,24,pd,3,0.0,1.0,10.658,1,1,0.0
5vqg62t14msjdocnn7k75ntw,11,3,1,180,42,pd,3,0.0,1.0,14.074,1,1,0.0
5vqg62t14msjdocnn7k75ntw,12,3,1,238,54,pd,1,0.0,1.0,7.666,1,1,0.0
5vqg62t14msjdocnn7k75ntw,13,3,1,54,17,pd,3,1.0,0.0,14.481,1,1,0.0
5vqg62t14msjdocnn7k75ntw,14,3,1,255,58,md,3,1.0,0.0,7.617,1,1,0.0
5vqg62t14msjdocnn7k75ntw,15,3,1,341,73,pd,2,0.0,1.0,11.693,1,1,0.0
5vqg62t14msjdocnn7k75ntw,16,3,1,156,36,pd,3,0.0,1.0,16.917,1,1,0.0
5vqg62t14msjdocnn7k75ntw,17,3,1,288,63,pd,3,0.0,1.0,9.286,1,1,0.0
5vqg62t14msjdocnn7k75ntw,18,3,1,353,75,pd,2,0.0,1.0,13.579,1,1,0.0
5vqg62t14msjdocnn7k75ntw,19,3,1,348,74,pd,3,1.0,0.0,13.153,1,1,0.0
5vqg62t14msjdocnn7k75ntw,20,3,1,358,76,pd,1,0.0,1.0,7.065,1,1,0.0
5vqg62t14msjdocnn7k75ntw,21,3,1,383,80,pd,2,0.0,1.0,10.796,1,1,0.0
5vqg62t14msjdocnn7k75ntw,22,3,1,305,66,pd,2,0.0,1.0,11.036,1,1,0.0
5vqg62t14msjdocnn7k75ntw,23,3,1,76,21,pd,1,1.0,0.0,11.587,1,1,0.0
5vqg62t14msjdocnn7k75ntw,24,3,1,370,78,pd,1,1.0,0.0,13.005,1,1,0.0
5zi17h1eaa5gsec1x1q9arat,1,3,1,244,55,pd,1,0.0,1.0,6.988,1,1,0.0
5zi17h1eaa5gsec1x1q9arat,2,3,1,132,30,pd,3,3.0,0.0,9.978,1,1,0.0
5zi17h1eaa5gsec1x1q9arat,3,3,1,292,64,pd,1,0.0,1.0,22.414,1,1,0.0
5zi17h1eaa5gsec1x1q9arat,4,3,1,192,45,pd,3,1.0,0.0,12.295,1,1,0.0
5zi17h1eaa5gsec1x1q9arat,5,3,1,148,35,pd,1,1.0,0.0,10.892,1,1,0.0
5zi17h1eaa5gsec1x1q9arat,6,3,1,334,72,pd,1,1.0,0.0,0.417,1,1,0.0
5zi17h1eaa5gsec1x1q9arat,7,3,1,112,27,pd,1,0.0,1.0,20.733,1,1,0.0
5zi17h1eaa5gsec1x1q9arat,8,3,1,378,79,pd,3,3.0,0.0,13.134,1,1,0.0
5zi17h1eaa5gsec1x1q9arat,9,3,1,125,29,pd,2,,,,1,1,0.0
5zi17h1eaa5gsec1x1q9arat,10,3,1,96,24,pd,3,0.0,1.0,5.358,1,1,0.0
5zi17h1eaa5gsec1x1q9arat,11,3,1,180,42,pd,3,3.0,0.0,6.588,1,1,0.0
5zi17h1eaa5gsec1x1q9arat,12,3,1,238,54,pd,1,0.0,1.0,7.317,1,1,0.0
5zi17h1eaa5gsec1x1q9arat,13,3,1,54,17,pd,3,2.0,0.0,5.256,1,1,0.0
5zi17h1eaa5gsec1x1q9arat,14,3,1,255,58,md,3,0.0,1.0,8.222,1,1,0.0
5zi17h1eaa5gsec1x1q9arat,15,3,1,341,73,pd,2,3.0,0.0,6.303,1,1,0.0
5zi17h1eaa5gsec1x1q9arat,16,3,1,156,36,pd,3,1.0,0.0,5.367,1,1,0.0
5zi17h1eaa5gsec1x1q9arat,17,3,1,288,63,pd,3,0.0,1.0,4.395,1,1,0.0
5zi17h1eaa5gsec1x1q9arat,18,3,1,353,75,pd,2,1.0,0.0,6.137,1,1,0.0
5zi17h1eaa5gsec1x1q9arat,19,3,1,348,74,pd,3,3.0,0.0,5.417,1,1,0.0
5zi17h1eaa5gsec1x1q9arat,20,3,1,358,76,pd,1,2.0,0.0,5.736,1,1,0.0
5zi17h1eaa5gsec1x1q9arat,21,3,1,383,80,pd,2,3.0,0.0,6.346,1,1,0.0
5zi17h1eaa5gsec1x1q9arat,22,3,1,305,66,pd,2,0.0,1.0,3.892,1,1,0.0
5zi17h1eaa5gsec1x1q9arat,23,3,1,76,21,pd,1,0.0,1.0,8.074,1,1,0.0
5zi17h1eaa5gsec1x1q9arat,24,3,1,370,78,pd,1,0.0,1.0,6.155,1,1,0.0
6243pz3sc4yxnt5anybgt3zu,1,3,1,244,55,pd,1,0.0,1.0,8.063,1,1,0.0
6243pz3sc4yxnt5anybgt3zu,2,3,1,132,30,pd,3,0.0,1.0,9.283,1,1,0.0
6243pz3sc4yxnt5anybgt3zu,3,3,1,292,64,pd,1,0.0,1.0,23.585,1,1,0.0
6243pz3sc4yxnt5anybgt3zu,4,3,1,192,45,pd,3,0.0,1.0,22.666,1,1,0.0
6243pz3sc4yxnt5anybgt3zu,5,3,1,148,35,pd,1,0.0,1.0,9.555,1,1,0.0
6243pz3sc4yxnt5anybgt3zu,6,3,1,334,72,pd,1,0.0,1.0,28.892,1,1,0.0
6243pz3sc4yxnt5anybgt3zu,7,3,1,112,27,pd,1,2.0,0.0,29.812,1,1,0.0
6243pz3sc4yxnt5anybgt3zu,8,3,1,378,79,pd,3,0.0,1.0,19.828,1,1,0.0
6243pz3sc4yxnt5anybgt3zu,9,3,1,125,29,pd,2,0.0,1.0,16.743,1,1,0.0
6243pz3sc4yxnt5anybgt3zu,10,3,1,96,24,pd,3,0.0,1.0,28.41,1,1,0.0
6243pz3sc4yxnt5anybgt3zu,11,3,1,180,42,pd,3,0.0,1.0,22.095,1,1,0.0
6243pz3sc4yxnt5anybgt3zu,12,3,1,238,54,pd,1,0.0,1.0,15.087,1,1,0.0
6243pz3sc4yxnt5anybgt3zu,13,3,1,54,17,pd,3,0.0,1.0,19.567,1,1,0.0
6243pz3sc4yxnt5anybgt3zu,14,3,1,255,58,md,3,0.0,1.0,7.157,1,1,0.0
6243pz3sc4yxnt5anybgt3zu,15,3,1,341,73,pd,2,0.0,1.0,15.991,1,1,0.0
6243pz3sc4yxnt5anybgt3zu,16,3,1,156,36,pd,3,0.0,1.0,15.948,1,1,0.0
6243pz3sc4yxnt5anybgt3zu,17,3,1,288,63,pd,3,0.0,1.0,27.725,1,1,0.0
6243pz3sc4yxnt5anybgt3zu,18,3,1,353,75,pd,2,0.0,1.0,11.649,1,1,0.0
6243pz3sc4yxnt5anybgt3zu,19,3,1,348,74,pd,3,0.0,1.0,20.678,1,1,0.0
6243pz3sc4yxnt5anybgt3zu,20,3,1,358,76,pd,1,0.0,1.0,10.649,1,1,0.0
6243pz3sc4yxnt5anybgt3zu,21,3,1,383,80,pd,2,0.0,1.0,7.556,1,1,0.0
6243pz3sc4yxnt5anybgt3zu,22,3,1,305,66,pd,2,0.0,1.0,16.576,1,1,0.0
6243pz3sc4yxnt5anybgt3zu,23,3,1,76,21,pd,1,0.0,1.0,10.283,1,1,0.0
6243pz3sc4yxnt5anybgt3zu,24,3,1,370,78,pd,1,0.0,1.0,11.189,1,1,0.0
64pz762h2thrugnt4irkgup0,1,3,2,190,45,pd,1,0.0,1.0,26.543,1,1,0.0
64pz762h2thrugnt4irkgup0,2,3,2,130,30,pd,1,0.0,1.0,23.346,1,1,0.0
64pz762h2thrugnt4irkgup0,3,3,2,246,55,pd,3,0.0,1.0,28.035,1,1,0.0
64pz762h2thrugnt4irkgup0,4,3,2,254,58,md,2,1.0,0.0,8.12,1,1,0.0
64pz762h2thrugnt4irkgup0,5,3,2,178,42,pd,1,0.0,1.0,11.693,1,1,0.0
64pz762h2thrugnt4irkgup0,6,3,2,227,52,pd,2,2.0,0.0,17.5,1,1,0.0
64pz762h2thrugnt4irkgup0,7,3,2,126,29,pd,3,1.0,0.0,25.804,1,1,0.0
64pz762h2thrugnt4irkgup0,8,3,2,94,24,pd,1,0.0,1.0,18.614,1,1,0.0
64pz762h2thrugnt4irkgup0,9,3,2,53,17,pd,2,1.0,0.0,17.272,1,1,0.0
64pz762h2thrugnt4irkgup0,10,3,2,359,76,pd,2,1.0,0.0,21.453,1,1,0.0
64pz762h2thrugnt4irkgup0,11,3,2,354,75,pd,3,3.0,0.0,21.038,1,1,0.0
64pz762h2thrugnt4irkgup0,12,3,2,335,72,pd,2,0.0,1.0,19.096,1,1,0.0
64pz762h2thrugnt4irkgup0,13,3,2,149,35,pd,2,0.0,1.0,16.255,1,1,0.0
64pz762h2thrugnt4irkgup0,14,3,2,154,36,pd,1,3.0,0.0,14.172,1,1,0.0
64pz762h2thrugnt4irkgup0,15,3,2,294,64,pd,3,3.0,0.0,16.153,1,1,0.0
64pz762h2thrugnt4irkgup0,16,3,2,382,80,pd,1,2.0,0.0,26.004,1,1,0.0
64pz762h2thrugnt4irkgup0,17,3,2,346,74,pd,1,1.0,0.0,11.042,1,1,0.0
64pz762h2thrugnt4irkgup0,18,3,2,197,46,pd,2,3.0,0.0,9.485,1,1,0.0
64pz762h2thrugnt4irkgup0,19,3,2,263,59,pd,2,2.0,0.0,3.695,1,1,0.0
64pz762h2thrugnt4irkgup0,20,3,2,306,66,pd,3,3.0,0.0,2.211,1,1,0.0
64pz762h2thrugnt4irkgup0,21,3,2,286,63,pd,1,3.0,0.0,1.841,1,1,0.0
64pz762h2thrugnt4irkgup0,22,3,2,78,21,pd,3,2.0,0.0,1.412,1,1,0.0
64pz762h2thrugnt4irkgup0,23,3,2,372,78,pd,3,3.0,0.0,1.158,1,1,0.0
64pz762h2thrugnt4irkgup0,24,3,2,185,44,pd,2,1.0,0.0,1.297,1,1,0.0
6drynitu8l4onxrf7nt5su3x,1,3,1,244,55,pd,1,0.0,1.0,9.27,1,1,0.0
6drynitu8l4onxrf7nt5su3x,2,3,1,132,30,pd,3,0.0,1.0,6.723,1,1,0.0
6drynitu8l4onxrf7nt5su3x,3,3,1,292,64,pd,1,0.0,1.0,10.228,1,1,0.0
6drynitu8l4onxrf7nt5su3x,4,3,1,192,45,pd,3,0.0,1.0,6.022,1,1,0.0
6drynitu8l4onxrf7nt5su3x,5,3,1,148,35,pd,1,0.0,1.0,8.745,1,1,0.0
6drynitu8l4onxrf7nt5su3x,6,3,1,334,72,pd,1,1.0,0.0,10.375,1,1,0.0
6drynitu8l4onxrf7nt5su3x,7,3,1,112,27,pd,1,3.0,0.0,8.432,1,1,0.0
6drynitu8l4onxrf7nt5su3x,8,3,1,378,79,pd,3,0.0,1.0,8.742,1,1,0.0
6drynitu8l4onxrf7nt5su3x,9,3,1,125,29,pd,2,0.0,1.0,12.086,1,1,0.0
6drynitu8l4onxrf7nt5su3x,10,3,1,96,24,pd,3,2.0,0.0,7.571,1,1,0.0
6drynitu8l4onxrf7nt5su3x,11,3,1,180,42,pd,3,3.0,0.0,6.564,1,1,0.0
6drynitu8l4onxrf7nt5su3x,12,3,1,238,54,pd,1,0.0,1.0,9.717,1,1,0.0
6drynitu8l4onxrf7nt5su3x,13,3,1,54,17,pd,3,1.0,0.0,13.289,1,1,0.0
6drynitu8l4onxrf7nt5su3x,14,3,1,255,58,md,3,1.0,0.0,6.395,1,1,0.0
6drynitu8l4onxrf7nt5su3x,15,3,1,341,73,pd,2,0.0,1.0,12.373,1,1,0.0
6drynitu8l4onxrf7nt5su3x,16,3,1,156,36,pd,3,0.0,1.0,8.094,1,1,0.0
6drynitu8l4onxrf7nt5su3x,17,3,1,288,63,pd,3,2.0,0.0,10.037,1,1,0.0
6drynitu8l4onxrf7nt5su3x,18,3,1,353,75,pd,2,0.0,1.0,12.689,1,1,0.0
6drynitu8l4onxrf7nt5su3x,19,3,1,348,74,pd,3,3.0,0.0,6.976,1,1,0.0
6drynitu8l4onxrf7nt5su3x,20,3,1,358,76,pd,1,0.0,1.0,10.361,1,1,0.0
6drynitu8l4onxrf7nt5su3x,21,3,1,383,80,pd,2,3.0,0.0,18.891,1,1,0.0
6drynitu8l4onxrf7nt5su3x,22,3,1,305,66,pd,2,0.0,1.0,8.924,1,1,0.0
6drynitu8l4onxrf7nt5su3x,23,3,1,76,21,pd,1,0.0,1.0,9.227,1,1,0.0
6drynitu8l4onxrf7nt5su3x,24,3,1,370,78,pd,1,3.0,0.0,2.441,1,1,0.0
6egtlnwr7krk2a6x9ga4gvss,1,3,2,190,45,pd,1,0.0,1.0,7.479,1,1,0.0
6egtlnwr7krk2a6x9ga4gvss,2,3,2,130,30,pd,1,0.0,1.0,12.932,1,1,0.0
6egtlnwr7krk2a6x9ga4gvss,3,3,2,246,55,pd,3,0.0,1.0,13.294,1,1,0.0
6egtlnwr7krk2a6x9ga4gvss,4,3,2,254,58,md,2,0.0,1.0,17.649,1,1,0.0
6egtlnwr7krk2a6x9ga4gvss,5,3,2,178,42,pd,1,0.0,1.0,25.538,1,1,0.0
6egtlnwr7krk2a6x9ga4gvss,6,3,2,227,52,pd,2,3.0,0.0,29.453,1,1,0.0
6egtlnwr7krk2a6x9ga4gvss,7,3,2,126,29,pd,3,0.0,1.0,14.211,1,1,0.0
6egtlnwr7krk2a6x9ga4gvss,8,3,2,94,24,pd,1,0.0,1.0,12.454,1,1,0.0
6egtlnwr7krk2a6x9ga4gvss,9,3,2,53,17,pd,2,0.0,1.0,20.105,1,1,0.0
6egtlnwr7krk2a6x9ga4gvss,10,3,2,359,76,pd,2,0.0,1.0,26.546,1,1,0.0
6egtlnwr7krk2a6x9ga4gvss,11,3,2,354,75,pd,3,0.0,1.0,10.149,1,1,0.0
6egtlnwr7krk2a6x9ga4gvss,12,3,2,335,72,pd,2,0.0,1.0,21.696,1,1,0.0
6egtlnwr7krk2a6x9ga4gvss,13,3,2,149,35,pd,2,3.0,0.0,25.202,1,1,0.0
6egtlnwr7krk2a6x9ga4gvss,14,3,2,154,36,pd,1,0.0,1.0,27.509,1,1,0.0
6egtlnwr7krk2a6x9ga4gvss,15,3,2,294,64,pd,3,0.0,1.0,21.304,1,1,0.0
6egtlnwr7krk2a6x9ga4gvss,16,3,2,382,80,pd,1,0.0,1.0,11.247,1,1,0.0
6egtlnwr7krk2a6x9ga4gvss,17,3,2,346,74,pd,1,0.0,1.0,10.23,1,1,0.0
6egtlnwr7krk2a6x9ga4gvss,18,3,2,197,46,pd,2,0.0,1.0,9.33,1,1,0.0
6egtlnwr7krk2a6x9ga4gvss,19,3,2,263,59,pd,2,2.0,0.0,27.979,1,1,0.0
6egtlnwr7krk2a6x9ga4gvss,20,3,2,306,66,pd,3,0.0,1.0,10.371,1,1,0.0
6egtlnwr7krk2a6x9ga4gvss,21,3,2,286,63,pd,1,0.0,1.0,6.774,1,1,0.0
6egtlnwr7krk2a6x9ga4gvss,22,3,2,78,21,pd,3,0.0,1.0,11.95,1,1,0.0
6egtlnwr7krk2a6x9ga4gvss,23,3,2,372,78,pd,3,1.0,0.0,14.398,1,1,0.0
6egtlnwr7krk2a6x9ga4gvss,24,3,2,185,44,pd,2,0.0,1.0,6.372,1,1,0.0
6ek0a0gt0qrss8yl59xnnvq6,1,3,2,190,45,pd,1,0.0,1.0,10.359,1,1,0.0
6ek0a0gt0qrss8yl59xnnvq6,2,3,2,130,30,pd,1,0.0,1.0,10.495,1,1,0.0
6ek0a0gt0qrss8yl59xnnvq6,3,3,2,246,55,pd,3,0.0,1.0,7.343,1,1,0.0
6ek0a0gt0qrss8yl59xnnvq6,4,3,2,254,58,md,2,0.0,1.0,18.228,1,1,0.0
6ek0a0gt0qrss8yl59xnnvq6,5,3,2,178,42,pd,1,0.0,1.0,15.834,1,1,0.0
6ek0a0gt0qrss8yl59xnnvq6,6,3,2,227,52,pd,2,0.0,1.0,10.775,1,1,0.0
6ek0a0gt0qrss8yl59xnnvq6,7,3,2,126,29,pd,3,1.0,0.0,14.598,1,1,0.0
6ek0a0gt0qrss8yl59xnnvq6,8,3,2,94,24,pd,1,0.0,1.0,6.409,1,1,0.0
6ek0a0gt0qrss8yl59xnnvq6,9,3,2,53,17,pd,2,0.0,1.0,10.506,1,1,0.0
6ek0a0gt0qrss8yl59xnnvq6,10,3,2,359,76,pd,2,0.0,1.0,24.336,1,1,0.0
6ek0a0gt0qrss8yl59xnnvq6,11,3,2,354,75,pd,3,0.0,1.0,9.087,1,1,0.0
6ek0a0gt0qrss8yl59xnnvq6,12,3,2,335,72,pd,2,2.0,0.0,21.039,1,1,0.0
6ek0a0gt0qrss8yl59xnnvq6,13,3,2,149,35,pd,2,0.0,1.0,18.686,1,1,0.0
6ek0a0gt0qrss8yl59xnnvq6,14,3,2,154,36,pd,1,1.0,0.0,10.78,1,1,0.0
6ek0a0gt0qrss8yl59xnnvq6,15,3,2,294,64,pd,3,0.0,1.0,19.205,1,1,0.0
6ek0a0gt0qrss8yl59xnnvq6,16,3,2,382,80,pd,1,0.0,1.0,15.055,1,1,0.0
6ek0a0gt0qrss8yl59xnnvq6,17,3,2,346,74,pd,1,1.0,0.0,16.976,1,1,0.0
6ek0a0gt0qrss8yl59xnnvq6,18,3,2,197,46,pd,2,3.0,0.0,14.334,1,1,0.0
6ek0a0gt0qrss8yl59xnnvq6,19,3,2,263,59,pd,2,0.0,1.0,12.956,1,1,0.0
6ek0a0gt0qrss8yl59xnnvq6,20,3,2,306,66,pd,3,3.0,0.0,18.973,1,1,0.0
6ek0a0gt0qrss8yl59xnnvq6,21,3,2,286,63,pd,1,2.0,0.0,14.514,1,1,0.0
6ek0a0gt0qrss8yl59xnnvq6,22,3,2,78,21,pd,3,0.0,1.0,19.457,1,1,0.0
6ek0a0gt0qrss8yl59xnnvq6,23,3,2,372,78,pd,3,0.0,1.0,10.983,1,1,0.0
6ek0a0gt0qrss8yl59xnnvq6,24,3,2,185,44,pd,2,0.0,1.0,12.353,1,1,0.0
6i76xg2omws25usjwan7uvou,1,3,2,190,45,pd,1,0.0,1.0,7.83,1,1,0.0
6i76xg2omws25usjwan7uvou,2,3,2,130,30,pd,1,1.0,0.0,11.818,1,1,0.0
6i76xg2omws25usjwan7uvou,3,3,2,246,55,pd,3,1.0,0.0,14.139,1,1,0.0
6i76xg2omws25usjwan7uvou,4,3,2,254,58,md,2,0.0,1.0,15.954,1,1,0.0
6i76xg2omws25usjwan7uvou,5,3,2,178,42,pd,1,3.0,0.0,9.105,1,1,0.0
6i76xg2omws25usjwan7uvou,6,3,2,227,52,pd,2,1.0,0.0,12.578,1,1,0.0
6i76xg2omws25usjwan7uvou,7,3,2,126,29,pd,3,0.0,1.0,4.249,1,1,0.0
6i76xg2omws25usjwan7uvou,8,3,2,94,24,pd,1,2.0,0.0,10.429,1,1,0.0
6i76xg2omws25usjwan7uvou,9,3,2,53,17,pd,2,0.0,1.0,13.565,1,1,0.0
6i76xg2omws25usjwan7uvou,10,3,2,359,76,pd,2,2.0,0.0,9.808,1,1,0.0
6i76xg2omws25usjwan7uvou,11,3,2,354,75,pd,3,1.0,0.0,2.957,1,1,0.0
6i76xg2omws25usjwan7uvou,12,3,2,335,72,pd,2,2.0,0.0,6.429,1,1,0.0
6i76xg2omws25usjwan7uvou,13,3,2,149,35,pd,2,0.0,1.0,9.93,1,1,0.0
6i76xg2omws25usjwan7uvou,14,3,2,154,36,pd,1,0.0,1.0,14.327,1,1,0.0
6i76xg2omws25usjwan7uvou,15,3,2,294,64,pd,3,0.0,1.0,14.685,1,1,0.0
6i76xg2omws25usjwan7uvou,16,3,2,382,80,pd,1,0.0,1.0,25.773,1,1,0.0
6i76xg2omws25usjwan7uvou,17,3,2,346,74,pd,1,1.0,0.0,8.003,1,1,0.0
6i76xg2omws25usjwan7uvou,18,3,2,197,46,pd,2,2.0,0.0,16.333,1,1,0.0
6i76xg2omws25usjwan7uvou,19,3,2,263,59,pd,2,3.0,0.0,27.073,1,1,0.0
6i76xg2omws25usjwan7uvou,20,3,2,306,66,pd,3,1.0,0.0,7.552,1,1,0.0
6i76xg2omws25usjwan7uvou,21,3,2,286,63,pd,1,2.0,0.0,13.04,1,1,0.0
6i76xg2omws25usjwan7uvou,22,3,2,78,21,pd,3,3.0,0.0,8.662,1,1,0.0
6i76xg2omws25usjwan7uvou,23,3,2,372,78,pd,3,0.0,1.0,8.163,1,1,0.0
6i76xg2omws25usjwan7uvou,24,3,2,185,44,pd,2,1.0,0.0,8.321,1,1,0.0
6pl7be10mo0l423lny1d0d7n,1,3,1,244,55,pd,1,0.0,1.0,15.56,1,1,0.0
6pl7be10mo0l423lny1d0d7n,2,3,1,132,30,pd,3,0.0,1.0,11.594,1,1,0.0
6pl7be10mo0l423lny1d0d7n,3,3,1,292,64,pd,1,0.0,1.0,25.441,1,1,0.0
6pl7be10mo0l423lny1d0d7n,4,3,1,192,45,pd,3,0.0,1.0,11.298,1,1,0.0
6pl7be10mo0l423lny1d0d7n,5,3,1,148,35,pd,1,0.0,1.0,12.318,1,1,0.0
6pl7be10mo0l423lny1d0d7n,6,3,1,334,72,pd,1,0.0,1.0,21.496,1,1,0.0
6pl7be10mo0l423lny1d0d7n,7,3,1,112,27,pd,1,0.0,1.0,25.817,1,1,0.0
6pl7be10mo0l423lny1d0d7n,8,3,1,378,79,pd,3,0.0,1.0,14.941,1,1,0.0
6pl7be10mo0l423lny1d0d7n,9,3,1,125,29,pd,2,0.0,1.0,12.532,1,1,0.0
6pl7be10mo0l423lny1d0d7n,10,3,1,96,24,pd,3,0.0,1.0,16.391,1,1,0.0
6pl7be10mo0l423lny1d0d7n,11,3,1,180,42,pd,3,0.0,1.0,12.737,1,1,0.0
6pl7be10mo0l423lny1d0d7n,12,3,1,238,54,pd,1,0.0,1.0,12.192,1,1,0.0
6pl7be10mo0l423lny1d0d7n,13,3,1,54,17,pd,3,0.0,1.0,11.911,1,1,0.0
6pl7be10mo0l423lny1d0d7n,14,3,1,255,58,md,3,2.0,0.0,18.054,1,1,0.0
6pl7be10mo0l423lny1d0d7n,15,3,1,341,73,pd,2,1.0,0.0,20.219,1,1,0.0
6pl7be10mo0l423lny1d0d7n,16,3,1,156,36,pd,3,0.0,1.0,29.956,1,1,0.0
6pl7be10mo0l423lny1d0d7n,17,3,1,288,63,pd,3,0.0,1.0,13.207,1,1,0.0
6pl7be10mo0l423lny1d0d7n,18,3,1,353,75,pd,2,0.0,1.0,10.51,1,1,0.0
6pl7be10mo0l423lny1d0d7n,19,3,1,348,74,pd,3,1.0,0.0,21.582,1,1,0.0
6pl7be10mo0l423lny1d0d7n,20,3,1,358,76,pd,1,0.0,1.0,22.833,1,1,0.0
6pl7be10mo0l423lny1d0d7n,21,3,1,383,80,pd,2,3.0,0.0,28.158,1,1,0.0
6pl7be10mo0l423lny1d0d7n,22,3,1,305,66,pd,2,2.0,0.0,20.627,1,1,0.0
6pl7be10mo0l423lny1d0d7n,23,3,1,76,21,pd,1,0.0,1.0,10.487,1,1,0.0
6pl7be10mo0l423lny1d0d7n,24,3,1,370,78,pd,1,0.0,1.0,14.595,1,1,0.0
6quynuose0f7veonp02rtr11,1,3,2,190,45,pd,1,0.0,1.0,24.738,1,1,0.0
6quynuose0f7veonp02rtr11,2,3,2,130,30,pd,1,0.0,1.0,22.521,1,1,0.0
6quynuose0f7veonp02rtr11,3,3,2,246,55,pd,3,0.0,1.0,23.133,1,1,0.0
6quynuose0f7veonp02rtr11,4,3,2,254,58,md,2,1.0,0.0,29.423,1,1,0.0
6quynuose0f7veonp02rtr11,5,3,2,178,42,pd,1,,,,1,1,0.0
6quynuose0f7veonp02rtr11,6,3,2,227,52,pd,2,1.0,0.0,29.668,1,1,0.0
6quynuose0f7veonp02rtr11,7,3,2,126,29,pd,3,,,,1,1,0.0
6quynuose0f7veonp02rtr11,8,3,2,94,24,pd,1,3.0,0.0,27.032,1,1,0.0
6quynuose0f7veonp02rtr11,9,3,2,53,17,pd,2,0.0,1.0,27.576,1,1,0.0
6quynuose0f7veonp02rtr11,10,3,2,359,76,pd,2,0.0,1.0,28.966,1,1,0.0
6quynuose0f7veonp02rtr11,11,3,2,354,75,pd,3,,,,1,1,0.0
6quynuose0f7veonp02rtr11,12,3,2,335,72,pd,2,0.0,1.0,29.409,1,1,0.0
6quynuose0f7veonp02rtr11,13,3,2,149,35,pd,2,2.0,0.0,28.533,1,1,0.0
6quynuose0f7veonp02rtr11,14,3,2,154,36,pd,1,1.0,0.0,28.888,1,1,0.0
6quynuose0f7veonp02rtr11,15,3,2,294,64,pd,3,1.0,0.0,29.681,1,1,0.0
6quynuose0f7veonp02rtr11,16,3,2,382,80,pd,1,0.0,1.0,18.568,1,1,0.0
6quynuose0f7veonp02rtr11,17,3,2,346,74,pd,1,1.0,0.0,29.708,1,1,0.0
6quynuose0f7veonp02rtr11,18,3,2,197,46,pd,2,0.0,1.0,28.014,1,1,0.0
6quynuose0f7veonp02rtr11,19,3,2,263,59,pd,2,0.0,1.0,16.65,1,1,0.0
6quynuose0f7veonp02rtr11,20,3,2,306,66,pd,3,3.0,0.0,28.201,1,1,0.0
6quynuose0f7veonp02rtr11,21,3,2,286,63,pd,1,,,,1,1,0.0
6quynuose0f7veonp02rtr11,22,3,2,78,21,pd,3,0.0,1.0,28.553,1,1,0.0
6quynuose0f7veonp02rtr11,23,3,2,372,78,pd,3,1.0,0.0,28.9,1,1,0.0
6quynuose0f7veonp02rtr11,24,3,2,185,44,pd,2,0.0,1.0,27.394,1,1,0.0
6qz4synvbrss03g98is54m0m,1,3,2,190,45,pd,1,0.0,1.0,5.006,1,1,0.0
6qz4synvbrss03g98is54m0m,2,3,2,130,30,pd,1,0.0,1.0,4.885,1,1,0.0
6qz4synvbrss03g98is54m0m,3,3,2,246,55,pd,3,0.0,1.0,4.176,1,1,0.0
6qz4synvbrss03g98is54m0m,4,3,2,254,58,md,2,3.0,0.0,4.205,1,1,0.0
6qz4synvbrss03g98is54m0m,5,3,2,178,42,pd,1,,,,1,1,0.0
6qz4synvbrss03g98is54m0m,6,3,2,227,52,pd,2,0.0,1.0,3.577,1,1,0.0
6qz4synvbrss03g98is54m0m,7,3,2,126,29,pd,3,1.0,0.0,6.047,1,1,0.0
6qz4synvbrss03g98is54m0m,8,3,2,94,24,pd,1,0.0,1.0,22.501,1,1,0.0
6qz4synvbrss03g98is54m0m,9,3,2,53,17,pd,2,1.0,0.0,4.457,1,1,0.0
6qz4synvbrss03g98is54m0m,10,3,2,359,76,pd,2,0.0,1.0,4.604,1,1,0.0
6qz4synvbrss03g98is54m0m,11,3,2,354,75,pd,3,3.0,0.0,3.603,1,1,0.0
6qz4synvbrss03g98is54m0m,12,3,2,335,72,pd,2,2.0,0.0,1.693,1,1,0.0
6qz4synvbrss03g98is54m0m,13,3,2,149,35,pd,2,3.0,0.0,3.238,1,1,0.0
6qz4synvbrss03g98is54m0m,14,3,2,154,36,pd,1,1.0,0.0,5.501,1,1,0.0
6qz4synvbrss03g98is54m0m,15,3,2,294,64,pd,3,1.0,0.0,4.515,1,1,0.0
6qz4synvbrss03g98is54m0m,16,3,2,382,80,pd,1,0.0,1.0,5.409,1,1,0.0
6qz4synvbrss03g98is54m0m,17,3,2,346,74,pd,1,1.0,0.0,3.964,1,1,0.0
6qz4synvbrss03g98is54m0m,18,3,2,197,46,pd,2,0.0,1.0,2.587,1,1,0.0
6qz4synvbrss03g98is54m0m,19,3,2,263,59,pd,2,3.0,0.0,2.063,1,1,0.0
6qz4synvbrss03g98is54m0m,20,3,2,306,66,pd,3,3.0,0.0,4.207,1,1,0.0
6qz4synvbrss03g98is54m0m,21,3,2,286,63,pd,1,1.0,0.0,5.318,1,1,0.0
6qz4synvbrss03g98is54m0m,22,3,2,78,21,pd,3,1.0,0.0,2.917,1,1,0.0
6qz4synvbrss03g98is54m0m,23,3,2,372,78,pd,3,2.0,0.0,1.994,1,1,0.0
6qz4synvbrss03g98is54m0m,24,3,2,185,44,pd,2,3.0,0.0,3.005,1,1,0.0
6sga6oetgybwmkbfsfof2zw9,1,3,2,190,45,pd,1,0.0,1.0,10.277,1,1,0.0
6sga6oetgybwmkbfsfof2zw9,2,3,2,130,30,pd,1,0.0,1.0,7.397,1,1,0.0
6sga6oetgybwmkbfsfof2zw9,3,3,2,246,55,pd,3,0.0,1.0,7.596,1,1,0.0
6sga6oetgybwmkbfsfof2zw9,4,3,2,254,58,md,2,2.0,0.0,12.301,1,1,0.0
6sga6oetgybwmkbfsfof2zw9,5,3,2,178,42,pd,1,3.0,0.0,8.866,1,1,0.0
6sga6oetgybwmkbfsfof2zw9,6,3,2,227,52,pd,2,1.0,0.0,7.818,1,1,0.0
6sga6oetgybwmkbfsfof2zw9,7,3,2,126,29,pd,3,0.0,1.0,6.581,1,1,0.0
6sga6oetgybwmkbfsfof2zw9,8,3,2,94,24,pd,1,2.0,0.0,9.617,1,1,0.0
6sga6oetgybwmkbfsfof2zw9,9,3,2,53,17,pd,2,2.0,0.0,7.809,1,1,0.0
6sga6oetgybwmkbfsfof2zw9,10,3,2,359,76,pd,2,0.0,1.0,8.705,1,1,0.0
6sga6oetgybwmkbfsfof2zw9,11,3,2,354,75,pd,3,1.0,0.0,7.917,1,1,0.0
6sga6oetgybwmkbfsfof2zw9,12,3,2,335,72,pd,2,0.0,1.0,13.73,1,1,0.0
6sga6oetgybwmkbfsfof2zw9,13,3,2,149,35,pd,2,1.0,0.0,5.47,1,1,0.0
6sga6oetgybwmkbfsfof2zw9,14,3,2,154,36,pd,1,1.0,0.0,8.516,1,1,0.0
6sga6oetgybwmkbfsfof2zw9,15,3,2,294,64,pd,3,0.0,1.0,8.608,1,1,0.0
6sga6oetgybwmkbfsfof2zw9,16,3,2,382,80,pd,1,2.0,0.0,10.218,1,1,0.0
6sga6oetgybwmkbfsfof2zw9,17,3,2,346,74,pd,1,1.0,0.0,10.005,1,1,0.0
6sga6oetgybwmkbfsfof2zw9,18,3,2,197,46,pd,2,3.0,0.0,13.303,1,1,0.0
6sga6oetgybwmkbfsfof2zw9,19,3,2,263,59,pd,2,3.0,0.0,11.418,1,1,0.0
6sga6oetgybwmkbfsfof2zw9,20,3,2,306,66,pd,3,3.0,0.0,8.564,1,1,0.0
6sga6oetgybwmkbfsfof2zw9,21,3,2,286,63,pd,1,3.0,0.0,14.992,1,1,0.0
6sga6oetgybwmkbfsfof2zw9,22,3,2,78,21,pd,3,0.0,1.0,12.683,1,1,0.0
6sga6oetgybwmkbfsfof2zw9,23,3,2,372,78,pd,3,2.0,0.0,10.015,1,1,0.0
6sga6oetgybwmkbfsfof2zw9,24,3,2,185,44,pd,2,3.0,0.0,6.418,1,1,0.0
6tp7njo3rsa14o89idl4x00l,1,3,2,190,45,pd,1,0.0,1.0,8.811,1,1,0.0
