subject,trial,test_form,stimulus,correct,choice,accuracy,rt,all_loaded,minimum_resolution
00opkwd7awzgqa9h1chkatb7,1,0,a11,4,5.0,0.0,20.133,1,1
00opkwd7awzgqa9h1chkatb7,2,0,a24,4,5.0,0.0,8.892,1,1
00opkwd7awzgqa9h1chkatb7,3,0,a28,7,7.0,1.0,13.222,1,1
00opkwd7awzgqa9h1chkatb7,4,0,a36,1,2.0,0.0,10.742,1,1
00opkwd7awzgqa9h1chkatb7,5,0,a43,4,4.0,1.0,19.34,1,1
00opkwd7awzgqa9h1chkatb7,6,0,a48,5,6.0,0.0,27.893,1,1
00opkwd7awzgqa9h1chkatb7,7,0,a49,6,6.0,1.0,17.092,1,1
00opkwd7awzgqa9h1chkatb7,8,0,a53,0,6.0,0.0,9.437,1,1
00opkwd7awzgqa9h1chkatb7,9,0,a55,1,6.0,0.0,25.446,1,1
0af8m8vd05kpl9g96dleaawk,1,0,a11,4,3.0,0.0,12.037,1,1
0af8m8vd05kpl9g96dleaawk,2,0,a24,4,3.0,0.0,6.657,1,1
0af8m8vd05kpl9g96dleaawk,3,0,a28,7,3.0,0.0,12.097,1,1
0af8m8vd05kpl9g96dleaawk,4,0,a36,1,6.0,0.0,25.647,1,1
0af8m8vd05kpl9g96dleaawk,5,0,a43,4,0.0,0.0,21.266,1,1
0af8m8vd05kpl9g96dleaawk,6,0,a48,5,1.0,0.0,9.167,1,1
0af8m8vd05kpl9g96dleaawk,7,0,a49,6,2.0,0.0,6.794,1,1
0af8m8vd05kpl9g96dleaawk,8,0,a53,0,6.0,0.0,27.623,1,1
0af8m8vd05kpl9g96dleaawk,9,0,a55,1,2.0,0.0,12.048,1,1
0e9qwccw7eimsfl2pbs4b6cm,1,0,a11,4,4.0,1.0,18.614,1,1
0e9qwccw7eimsfl2pbs4b6cm,2,0,a24,4,0.0,0.0,10.971,1,1
0e9qwccw7eimsfl2pbs4b6cm,3,0,a28,7,7.0,1.0,7.735,1,1
0e9qwccw7eimsfl2pbs4b6cm,4,0,a36,1,2.0,0.0,16.055,1,1
0e9qwccw7eimsfl2pbs4b6cm,5,0,a43,4,4.0,1.0,21.64,1,1
0e9qwccw7eimsfl2pbs4b6cm,6,0,a48,5,7.0,0.0,8.291,1,1
0e9qwccw7eimsfl2pbs4b6cm,7,0,a49,6,0.0,0.0,12.914,1,1
0e9qwccw7eimsfl2pbs4b6cm,8,0,a53,0,6.0,0.0,19.158,1,1
0e9qwccw7eimsfl2pbs4b6cm,9,0,a55,1,2.0,0.0,11.481,1,1
0hf8jjojdoaxbxzmrm55mh8g,1,0,a11,4,5.0,0.0,11.978,1,1
0hf8jjojdoaxbxzmrm55mh8g,2,0,a24,4,4.0,1.0,26.123,1,1
0hf8jjojdoaxbxzmrm55mh8g,3,0,a28,7,7.0,1.0,18.766,1,1
0hf8jjojdoaxbxzmrm55mh8g,4,0,a36,1,2.0,0.0,14.358,1,1
0hf8jjojdoaxbxzmrm55mh8g,5,0,a43,4,4.0,1.0,8.833,1,1
0hf8jjojdoaxbxzmrm55mh8g,6,0,a48,5,7.0,0.0,20.967,1,1
0hf8jjojdoaxbxzmrm55mh8g,7,0,a49,6,6.0,1.0,13.658,1,1
0hf8jjojdoaxbxzmrm55mh8g,8,0,a53,0,0.0,1.0,17.124,1,1
0hf8jjojdoaxbxzmrm55mh8g,9,0,a55,1,5.0,0.0,29.113,1,1
0qta4h7wo9w67l6wv9t7xuh5,1,0,a11,4,4.0,1.0,21.941,1,1
0qta4h7wo9w67l6wv9t7xuh5,2,0,a24,4,4.0,1.0,12.934,1,1
0qta4h7wo9w67l6wv9t7xuh5,3,0,a28,7,7.0,1.0,15.373,1,1
0qta4h7wo9w67l6wv9t7xuh5,4,0,a36,1,3.0,0.0,27.701,1,1
0qta4h7wo9w67l6wv9t7xuh5,5,0,a43,4,4.0,1.0,17.893,1,1
0qta4h7wo9w67l6wv9t7xuh5,6,0,a48,5,7.0,0.0,28.27,1,1
0qta4h7wo9w67l6wv9t7xuh5,7,0,a49,6,2.0,0.0,14.454,1,1
0qta4h7wo9w67l6wv9t7xuh5,8,0,a53,0,0.0,1.0,11.99,1,1
0qta4h7wo9w67l6wv9t7xuh5,9,0,a55,1,1.0,1.0,21.172,1,1
0rg80htu2vmqet6c8ogj75pm,1,0,a11,4,3.0,0.0,6.529,1,1
0rg80htu2vmqet6c8ogj75pm,2,0,a24,4,4.0,1.0,5.199,1,1
0rg80htu2vmqet6c8ogj75pm,3,0,a28,7,2.0,0.0,7.381,1,1
0rg80htu2vmqet6c8ogj75pm,4,0,a36,1,1.0,1.0,8.831,1,1
0rg80htu2vmqet6c8ogj75pm,5,0,a43,4,4.0,1.0,15.215,1,1
0rg80htu2vmqet6c8ogj75pm,6,0,a48,5,6.0,0.0,24.76,1,1
0rg80htu2vmqet6c8ogj75pm,7,0,a49,6,6.0,1.0,4.741,1,1
0rg80htu2vmqet6c8ogj75pm,8,0,a53,0,0.0,1.0,7.616,1,1
0rg80htu2vmqet6c8ogj75pm,9,0,a55,1,1.0,1.0,19.398,1,1
0wrkswo77f21a3hjsymcp1hn,1,0,a11,4,4.0,1.0,19.512,1,1
0wrkswo77f21a3hjsymcp1hn,2,0,a24,4,4.0,1.0,22.216,1,1
0wrkswo77f21a3hjsymcp1hn,3,0,a28,7,3.0,0.0,14.882,1,1
0wrkswo77f21a3hjsymcp1hn,4,0,a36,1,1.0,1.0,25.611,1,1
0wrkswo77f21a3hjsymcp1hn,5,0,a43,4,4.0,1.0,23.221,1,1
0wrkswo77f21a3hjsymcp1hn,6,0,a48,5,,,,1,1
0wrkswo77f21a3hjsymcp1hn,7,0,a49,6,6.0,1.0,14.948,1,1
0wrkswo77f21a3hjsymcp1hn,8,0,a53,0,0.0,1.0,12.309,1,1
0wrkswo77f21a3hjsymcp1hn,9,0,a55,1,2.0,0.0,27.236,1,1
0xr853tx41e84exdudc3h5a7,1,0,a11,4,4.0,1.0,22.824,1,1
0xr853tx41e84exdudc3h5a7,2,0,a24,4,4.0,1.0,27.857,1,1
0xr853tx41e84exdudc3h5a7,3,0,a28,7,7.0,1.0,25.726,1,1
0xr853tx41e84exdudc3h5a7,4,0,a36,1,2.0,0.0,21.997,1,1
0xr853tx41e84exdudc3h5a7,5,0,a43,4,0.0,0.0,29.361,1,1
0xr853tx41e84exdudc3h5a7,6,0,a48,5,3.0,0.0,13.578,1,1
0xr853tx41e84exdudc3h5a7,7,0,a49,6,2.0,0.0,8.058,1,1
0xr853tx41e84exdudc3h5a7,8,0,a53,0,0.0,1.0,19.174,1,1
0xr853tx41e84exdudc3h5a7,9,0,a55,1,2.0,0.0,25.829,1,1
0yjypuwaxeljdp7zpt8fnobu,1,0,a11,4,4.0,1.0,18.607,1,1
0yjypuwaxeljdp7zpt8fnobu,2,0,a24,4,3.0,0.0,19.534,1,1
0yjypuwaxeljdp7zpt8fnobu,3,0,a28,7,3.0,0.0,11.761,1,1
0yjypuwaxeljdp7zpt8fnobu,4,0,a36,1,0.0,0.0,19.784,1,1
0yjypuwaxeljdp7zpt8fnobu,5,0,a43,4,6.0,0.0,19.94,1,1
0yjypuwaxeljdp7zpt8fnobu,6,0,a48,5,6.0,0.0,11.515,1,1
0yjypuwaxeljdp7zpt8fnobu,7,0,a49,6,6.0,1.0,12.094,1,1
0yjypuwaxeljdp7zpt8fnobu,8,0,a53,0,0.0,1.0,10.069,1,1
0yjypuwaxeljdp7zpt8fnobu,9,0,a55,1,6.0,0.0,20.556,1,1
0yzas42aj8441yl80onu1oa7,1,0,a11,4,4.0,1.0,10.831,1,1
0yzas42aj8441yl80onu1oa7,2,0,a24,4,4.0,1.0,8.587,1,1
0yzas42aj8441yl80onu1oa7,3,0,a28,7,7.0,1.0,10.62,1,1
0yzas42aj8441yl80onu1oa7,4,0,a36,1,2.0,0.0,7.309,1,1
0yzas42aj8441yl80onu1oa7,5,0,a43,4,4.0,1.0,22.867,1,1
0yzas42aj8441yl80onu1oa7,6,0,a48,5,5.0,1.0,23.32,1,1
0yzas42aj8441yl80onu1oa7,7,0,a49,6,6.0,1.0,13.056,1,1
0yzas42aj8441yl80onu1oa7,8,0,a53,0,0.0,1.0,7.605,1,1
0yzas42aj8441yl80onu1oa7,9,0,a55,1,,,,1,1
12oqbznod63fueceo4cfcfds,1,0,a11,4,4.0,1.0,29.244,1,1
12oqbznod63fueceo4cfcfds,2,0,a24,4,4.0,1.0,18.218,1,1
12oqbznod63fueceo4cfcfds,3,0,a28,7,7.0,1.0,16.329,1,1
12oqbznod63fueceo4cfcfds,4,0,a36,1,1.0,1.0,26.653,1,1
12oqbznod63fueceo4cfcfds,5,0,a43,4,4.0,1.0,10.813,1,1
12oqbznod63fueceo4cfcfds,6,0,a48,5,6.0,0.0,27.928,1,1
12oqbznod63fueceo4cfcfds,7,0,a49,6,6.0,1.0,26.162,1,1
12oqbznod63fueceo4cfcfds,8,0,a53,0,6.0,0.0,12.874,1,1
12oqbznod63fueceo4cfcfds,9,0,a55,1,0.0,0.0,26.53,1,1
13iz5bo1l5yos37ee8tim83t,1,0,a11,4,5.0,0.0,10.745,1,1
13iz5bo1l5yos37ee8tim83t,2,0,a24,4,0.0,0.0,7.853,1,1
13iz5bo1l5yos37ee8tim83t,3,0,a28,7,3.0,0.0,7.356,1,1
13iz5bo1l5yos37ee8tim83t,4,0,a36,1,2.0,0.0,16.913,1,1
13iz5bo1l5yos37ee8tim83t,5,0,a43,4,2.0,0.0,20.414,1,1
13iz5bo1l5yos37ee8tim83t,6,0,a48,5,6.0,0.0,11.51,1,1
13iz5bo1l5yos37ee8tim83t,7,0,a49,6,,,,1,1
13iz5bo1l5yos37ee8tim83t,8,0,a53,0,6.0,0.0,18.185,1,1
13iz5bo1l5yos37ee8tim83t,9,0,a55,1,,,,1,1
13ticam2vjw4xyavfc8lohfl,1,0,a11,4,4.0,1.0,10.918,1,1
13ticam2vjw4xyavfc8lohfl,2,0,a24,4,4.0,1.0,17.894,1,1
13ticam2vjw4xyavfc8lohfl,3,0,a28,7,7.0,1.0,9.645,1,1
13ticam2vjw4xyavfc8lohfl,4,0,a36,1,5.0,0.0,25.839,1,1
13ticam2vjw4xyavfc8lohfl,5,0,a43,4,4.0,1.0,13.102,1,1
13ticam2vjw4xyavfc8lohfl,6,0,a48,5,7.0,0.0,21.902,1,1
13ticam2vjw4xyavfc8lohfl,7,0,a49,6,2.0,0.0,13.678,1,1
13ticam2vjw4xyavfc8lohfl,8,0,a53,0,4.0,0.0,19.264,1,1
13ticam2vjw4xyavfc8lohfl,9,0,a55,1,6.0,0.0,19.54,1,1
14rfd9nt8ewvau636vnsgqjs,1,0,a11,4,4.0,1.0,7.421,1,1
14rfd9nt8ewvau636vnsgqjs,2,0,a24,4,5.0,0.0,4.867,1,1
14rfd9nt8ewvau636vnsgqjs,3,0,a28,7,3.0,0.0,4.397,1,1
14rfd9nt8ewvau636vnsgqjs,4,0,a36,1,2.0,0.0,7.763,1,1
14rfd9nt8ewvau636vnsgqjs,5,0,a43,4,7.0,0.0,5.361,1,1
14rfd9nt8ewvau636vnsgqjs,6,0,a48,5,7.0,0.0,5.654,1,1
14rfd9nt8ewvau636vnsgqjs,7,0,a49,6,2.0,0.0,5.848,1,1
14rfd9nt8ewvau636vnsgqjs,8,0,a53,0,0.0,1.0,9.396,1,1
14rfd9nt8ewvau636vnsgqjs,9,0,a55,1,4.0,0.0,8.879,1,1
199d5tnphoolwi26avp2fvmr,1,0,a11,4,4.0,1.0,7.136,1,1
199d5tnphoolwi26avp2fvmr,2,0,a24,4,4.0,1.0,11.185,1,1
199d5tnphoolwi26avp2fvmr,3,0,a28,7,7.0,1.0,8.874,1,1
199d5tnphoolwi26avp2fvmr,4,0,a36,1,1.0,1.0,28.416,1,1
199d5tnphoolwi26avp2fvmr,5,0,a43,4,4.0,1.0,13.117,1,1
199d5tnphoolwi26avp2fvmr,6,0,a48,5,2.0,0.0,18.144,1,1
199d5tnphoolwi26avp2fvmr,7,0,a49,6,6.0,1.0,6.868,1,1
199d5tnphoolwi26avp2fvmr,8,0,a53,0,0.0,1.0,7.466,1,1
199d5tnphoolwi26avp2fvmr,9,0,a55,1,5.0,0.0,22.762,1,1
1dqrw1g51c3uq1q07pwif8mv,1,0,a11,4,5.0,0.0,20.865,1,1
1dqrw1g51c3uq1q07pwif8mv,2,0,a24,4,4.0,1.0,17.332,1,1
1dqrw1g51c3uq1q07pwif8mv,3,0,a28,7,7.0,1.0,12.968,1,1
1dqrw1g51c3uq1q07pwif8mv,4,0,a36,1,4.0,0.0,26.547,1,1
1dqrw1g51c3uq1q07pwif8mv,5,0,a43,4,6.0,0.0,25.526,1,1
1dqrw1g51c3uq1q07pwif8mv,6,0,a48,5,4.0,0.0,28.941,1,1
1dqrw1g51c3uq1q07pwif8mv,7,0,a49,6,6.0,1.0,10.382,1,1
1dqrw1g51c3uq1q07pwif8mv,8,0,a53,0,5.0,0.0,17.169,1,1
1dqrw1g51c3uq1q07pwif8mv,9,0,a55,1,6.0,0.0,22.642,1,1
1h8au454xkxsar0e9nk0u7fc,1,0,a11,4,3.0,0.0,13.959,1,1
1h8au454xkxsar0e9nk0u7fc,2,0,a24,4,4.0,1.0,6.293,1,1
1h8au454xkxsar0e9nk0u7fc,3,0,a28,7,4.0,0.0,9.422,1,1
1h8au454xkxsar0e9nk0u7fc,4,0,a36,1,2.0,0.0,6.94,1,1
1h8au454xkxsar0e9nk0u7fc,5,0,a43,4,7.0,0.0,6.599,1,1
1h8au454xkxsar0e9nk0u7fc,6,0,a48,5,3.0,0.0,7.526,1,1
1h8au454xkxsar0e9nk0u7fc,7,0,a49,6,6.0,1.0,7.934,1,1
1h8au454xkxsar0e9nk0u7fc,8,0,a53,0,6.0,0.0,6.078,1,1
1h8au454xkxsar0e9nk0u7fc,9,0,a55,1,7.0,0.0,4.353,1,1
1iqt4g0qv0ps3aghmc8416op,1,0,a11,4,4.0,1.0,15.658,1,1
1iqt4g0qv0ps3aghmc8416op,2,0,a24,4,4.0,1.0,15.713,1,1
1iqt4g0qv0ps3aghmc8416op,3,0,a28,7,7.0,1.0,12.264,1,1
1iqt4g0qv0ps3aghmc8416op,4,0,a36,1,2.0,0.0,11.138,1,1
1iqt4g0qv0ps3aghmc8416op,5,0,a43,4,4.0,1.0,13.943,1,1
1iqt4g0qv0ps3aghmc8416op,6,0,a48,5,1.0,0.0,10.845,1,1
1iqt4g0qv0ps3aghmc8416op,7,0,a49,6,6.0,1.0,7.709,1,1
1iqt4g0qv0ps3aghmc8416op,8,0,a53,0,6.0,0.0,25.75,1,1
1iqt4g0qv0ps3aghmc8416op,9,0,a55,1,6.0,0.0,14.795,1,1
1iuhw9pv3l9bb77t40ee5cf0,1,0,a11,4,4.0,1.0,15.547,1,1
1iuhw9pv3l9bb77t40ee5cf0,2,0,a24,4,4.0,1.0,14.446,1,1
1iuhw9pv3l9bb77t40ee5cf0,3,0,a28,7,7.0,1.0,20.268,1,1
1iuhw9pv3l9bb77t40ee5cf0,4,0,a36,1,1.0,1.0,27.685,1,1
1iuhw9pv3l9bb77t40ee5cf0,5,0,a43,4,4.0,1.0,15.555,1,1
1iuhw9pv3l9bb77t40ee5cf0,6,0,a48,5,5.0,1.0,27.486,1,1
1iuhw9pv3l9bb77t40ee5cf0,7,0,a49,6,6.0,1.0,7.483,1,1
1iuhw9pv3l9bb77t40ee5cf0,8,0,a53,0,0.0,1.0,27.802,1,1
1iuhw9pv3l9bb77t40ee5cf0,9,0,a55,1,,,,1,1
1nwodfs49j6k5iq1n4ufiimi,1,0,a11,4,3.0,0.0,15.927,1,1
1nwodfs49j6k5iq1n4ufiimi,2,0,a24,4,4.0,1.0,8.412,1,1
1nwodfs49j6k5iq1n4ufiimi,3,0,a28,7,7.0,1.0,13.08,1,1
1nwodfs49j6k5iq1n4ufiimi,4,0,a36,1,3.0,0.0,15.243,1,1
1nwodfs49j6k5iq1n4ufiimi,5,0,a43,4,4.0,1.0,24.879,1,1
1nwodfs49j6k5iq1n4ufiimi,6,0,a48,5,4.0,0.0,28.376,1,1
1nwodfs49j6k5iq1n4ufiimi,7,0,a49,6,6.0,1.0,8.095,1,1
1nwodfs49j6k5iq1n4ufiimi,8,0,a53,0,0.0,1.0,12.845,1,1
1nwodfs49j6k5iq1n4ufiimi,9,0,a55,1,5.0,0.0,23.531,1,1
1z5pi9hpimq09zk2xvfgqya1,1,0,a11,4,3.0,0.0,4.014,1,1
1z5pi9hpimq09zk2xvfgqya1,2,0,a24,4,4.0,1.0,13.635,1,1
1z5pi9hpimq09zk2xvfgqya1,3,0,a28,7,7.0,1.0,6.509,1,1
1z5pi9hpimq09zk2xvfgqya1,4,0,a36,1,2.0,0.0,20.474,1,1
1z5pi9hpimq09zk2xvfgqya1,5,0,a43,4,4.0,1.0,12.137,1,1
1z5pi9hpimq09zk2xvfgqya1,6,0,a48,5,3.0,0.0,13.419,1,1
1z5pi9hpimq09zk2xvfgqya1,7,0,a49,6,0.0,0.0,2.929,1,1
1z5pi9hpimq09zk2xvfgqya1,8,0,a53,0,6.0,0.0,9.409,1,1
1z5pi9hpimq09zk2xvfgqya1,9,0,a55,1,6.0,0.0,7.85,1,1
20rchv2facflc8ck9yd2blev,1,0,a11,4,4.0,1.0,23.106,1,1
20rchv2facflc8ck9yd2blev,2,0,a24,4,5.0,0.0,19.902,1,1
20rchv2facflc8ck9yd2blev,3,0,a28,7,7.0,1.0,26.346,1,1
20rchv2facflc8ck9yd2blev,4,0,a36,1,2.0,0.0,10.218,1,1
20rchv2facflc8ck9yd2blev,5,0,a43,4,4.0,1.0,13.056,1,1
20rchv2facflc8ck9yd2blev,6,0,a48,5,4.0,0.0,27.327,1,1
20rchv2facflc8ck9yd2blev,7,0,a49,6,3.0,0.0,9.064,1,1
20rchv2facflc8ck9yd2blev,8,0,a53,0,3.0,0.0,13.466,1,1
20rchv2facflc8ck9yd2blev,9,0,a55,1,3.0,0.0,13.882,1,1
23g0itozzqyym2hubexhn5hf,1,0,a11,4,0.0,0.0,9.79,1,1
23g0itozzqyym2hubexhn5hf,2,0,a24,4,3.0,0.0,12.954,1,1
23g0itozzqyym2hubexhn5hf,3,0,a28,7,7.0,1.0,6.682,1,1
23g0itozzqyym2hubexhn5hf,4,0,a36,1,2.0,0.0,23.955,1,1
23g0itozzqyym2hubexhn5hf,5,0,a43,4,4.0,1.0,13.196,1,1
23g0itozzqyym2hubexhn5hf,6,0,a48,5,4.0,0.0,10.54,1,1
23g0itozzqyym2hubexhn5hf,7,0,a49,6,6.0,1.0,13.686,1,1
23g0itozzqyym2hubexhn5hf,8,0,a53,0,6.0,0.0,13.486,1,1
23g0itozzqyym2hubexhn5hf,9,0,a55,1,2.0,0.0,20.111,1,1
284y66xu1imnswmhr8o36m1y,1,0,a11,4,4.0,1.0,7.479,1,1
284y66xu1imnswmhr8o36m1y,2,0,a24,4,4.0,1.0,11.642,1,1
284y66xu1imnswmhr8o36m1y,3,0,a28,7,7.0,1.0,6.104,1,1
284y66xu1imnswmhr8o36m1y,4,0,a36,1,4.0,0.0,12.941,1,1
284y66xu1imnswmhr8o36m1y,5,0,a43,4,7.0,0.0,12.074,1,1
284y66xu1imnswmhr8o36m1y,6,0,a48,5,3.0,0.0,11.51,1,1
284y66xu1imnswmhr8o36m1y,7,0,a49,6,2.0,0.0,4.581,1,1
284y66xu1imnswmhr8o36m1y,8,0,a53,0,6.0,0.0,5.894,1,1
284y66xu1imnswmhr8o36m1y,9,0,a55,1,6.0,0.0,3.923,1,1
28sbsqa2k1tqf89nffhi755x,1,0,a11,4,5.0,0.0,8.123,1,1
28sbsqa2k1tqf89nffhi755x,2,0,a24,4,5.0,0.0,7.034,1,1
28sbsqa2k1tqf89nffhi755x,3,0,a28,7,7.0,1.0,3.072,1,1
28sbsqa2k1tqf89nffhi755x,4,0,a36,1,2.0,0.0,12.69,1,1
28sbsqa2k1tqf89nffhi755x,5,0,a43,4,0.0,0.0,6.76,1,1
28sbsqa2k1tqf89nffhi755x,6,0,a48,5,1.0,0.0,12.539,1,1
28sbsqa2k1tqf89nffhi755x,7,0,a49,6,4.0,0.0,7.328,1,1
28sbsqa2k1tqf89nffhi755x,8,0,a53,0,6.0,0.0,5.926,1,1
28sbsqa2k1tqf89nffhi755x,9,0,a55,1,6.0,0.0,3.74,1,1
2exta1vd1u442myipk8jx0yt,1,0,a11,4,5.0,0.0,7.889,1,1
2exta1vd1u442myipk8jx0yt,2,0,a24,4,4.0,1.0,24.215,1,1
2exta1vd1u442myipk8jx0yt,3,0,a28,7,7.0,1.0,13.154,1,1
2exta1vd1u442myipk8jx0yt,4,0,a36,1,2.0,0.0,10.02,1,1
2exta1vd1u442myipk8jx0yt,5,0,a43,4,4.0,1.0,14.456,1,1
2exta1vd1u442myipk8jx0yt,6,0,a48,5,0.0,0.0,25.971,1,1
2exta1vd1u442myipk8jx0yt,7,0,a49,6,6.0,1.0,11.549,1,1
2exta1vd1u442myipk8jx0yt,8,0,a53,0,0.0,1.0,18.422,1,1
2exta1vd1u442myipk8jx0yt,9,0,a55,1,3.0,0.0,19.623,1,1
2iklpomeq3uxkod30p10ttur,1,0,a11,4,4.0,1.0,11.206,1,1
2iklpomeq3uxkod30p10ttur,2,0,a24,4,2.0,0.0,13.106,1,1
2iklpomeq3uxkod30p10ttur,3,0,a28,7,7.0,1.0,12.808,1,1
2iklpomeq3uxkod30p10ttur,4,0,a36,1,1.0,1.0,15.557,1,1
2iklpomeq3uxkod30p10ttur,5,0,a43,4,4.0,1.0,23.209,1,1
2iklpomeq3uxkod30p10ttur,6,0,a48,5,6.0,0.0,23.105,1,1
2iklpomeq3uxkod30p10ttur,7,0,a49,6,6.0,1.0,13.729,1,1
2iklpomeq3uxkod30p10ttur,8,0,a53,0,6.0,0.0,20.936,1,1
2iklpomeq3uxkod30p10ttur,9,0,a55,1,3.0,0.0,22.872,1,1
2sggo7qvwj7n5aeijcj6bg0g,1,0,a11,4,4.0,1.0,13.483,1,1
2sggo7qvwj7n5aeijcj6bg0g,2,0,a24,4,4.0,1.0,17.851,1,1
2sggo7qvwj7n5aeijcj6bg0g,3,0,a28,7,7.0,1.0,14.472,1,1
2sggo7qvwj7n5aeijcj6bg0g,4,0,a36,1,5.0,0.0,20.812,1,1
2sggo7qvwj7n5aeijcj6bg0g,5,0,a43,4,1.0,0.0,19.738,1,1
2sggo7qvwj7n5aeijcj6bg0g,6,0,a48,5,4.0,0.0,27.824,1,1
2sggo7qvwj7n5aeijcj6bg0g,7,0,a49,6,6.0,1.0,10.474,1,1
2sggo7qvwj7n5aeijcj6bg0g,8,0,a53,0,0.0,1.0,21.48,1,1
2sggo7qvwj7n5aeijcj6bg0g,9,0,a55,1,1.0,1.0,29.193,1,1
2xotq2ud677a1g80wgz2qnab,1,0,a11,4,4.0,1.0,9.899,1,1
2xotq2ud677a1g80wgz2qnab,2,0,a24,4,2.0,0.0,11.122,1,1
2xotq2ud677a1g80wgz2qnab,3,0,a28,7,7.0,1.0,8.237,1,1
2xotq2ud677a1g80wgz2qnab,4,0,a36,1,0.0,0.0,28.789,1,1
2xotq2ud677a1g80wgz2qnab,5,0,a43,4,4.0,1.0,9.222,1,1
2xotq2ud677a1g80wgz2qnab,6,0,a48,5,4.0,0.0,24.549,1,1
2xotq2ud677a1g80wgz2qnab,7,0,a49,6,6.0,1.0,4.525,1,1
2xotq2ud677a1g80wgz2qnab,8,0,a53,0,0.0,1.0,16.989,1,1
2xotq2ud677a1g80wgz2qnab,9,0,a55,1,6.0,0.0,1.876,1,1
34bjfa7514ivm0se9wltis8s,1,0,a11,4,4.0,1.0,15.191,1,1
34bjfa7514ivm0se9wltis8s,2,0,a24,4,4.0,1.0,18.369,1,1
34bjfa7514ivm0se9wltis8s,3,0,a28,7,7.0,1.0,17.817,1,1
34bjfa7514ivm0se9wltis8s,4,0,a36,1,2.0,0.0,29.475,1,1
34bjfa7514ivm0se9wltis8s,5,0,a43,4,4.0,1.0,18.275,1,1
34bjfa7514ivm0se9wltis8s,6,0,a48,5,4.0,0.0,29.433,1,1
34bjfa7514ivm0se9wltis8s,7,0,a49,6,6.0,1.0,22.896,1,1
34bjfa7514ivm0se9wltis8s,8,0,a53,0,0.0,1.0,25.014,1,1
34bjfa7514ivm0se9wltis8s,9,0,a55,1,4.0,0.0,29.918,1,1
38vtzd3xyt0r0qgvoso9ogn3,1,0,a11,4,4.0,1.0,7.752,1,1
38vtzd3xyt0r0qgvoso9ogn3,2,0,a24,4,4.0,1.0,8.101,1,1
38vtzd3xyt0r0qgvoso9ogn3,3,0,a28,7,7.0,1.0,7.437,1,1
38vtzd3xyt0r0qgvoso9ogn3,4,0,a36,1,1.0,1.0,19.197,1,1
38vtzd3xyt0r0qgvoso9ogn3,5,0,a43,4,4.0,1.0,16.772,1,1
38vtzd3xyt0r0qgvoso9ogn3,6,0,a48,5,7.0,0.0,17.078,1,1
38vtzd3xyt0r0qgvoso9ogn3,7,0,a49,6,6.0,1.0,5.602,1,1
38vtzd3xyt0r0qgvoso9ogn3,8,0,a53,0,0.0,1.0,7.231,1,1
38vtzd3xyt0r0qgvoso9ogn3,9,0,a55,1,3.0,0.0,19.64,1,1
3c5d93j4xj7550wtb3tg83so,1,0,a11,4,5.0,0.0,6.93,1,1
3c5d93j4xj7550wtb3tg83so,2,0,a24,4,5.0,0.0,8.775,1,1
3c5d93j4xj7550wtb3tg83so,3,0,a28,7,7.0,1.0,8.24,1,1
3c5d93j4xj7550wtb3tg83so,4,0,a36,1,7.0,0.0,10.758,1,1
3c5d93j4xj7550wtb3tg83so,5,0,a43,4,4.0,1.0,13.516,1,1
3c5d93j4xj7550wtb3tg83so,6,0,a48,5,6.0,0.0,10.708,1,1
3c5d93j4xj7550wtb3tg83so,7,0,a49,6,0.0,0.0,5.11,1,1
3c5d93j4xj7550wtb3tg83so,8,0,a53,0,6.0,0.0,7.588,1,1
3c5d93j4xj7550wtb3tg83so,9,0,a55,1,6.0,0.0,5.818,1,1
3f15wt1zuafjj73zp08bmc24,1,0,a11,4,4.0,1.0,22.585,1,1
3f15wt1zuafjj73zp08bmc24,2,0,a24,4,4.0,1.0,25.84,1,1
3f15wt1zuafjj73zp08bmc24,3,0,a28,7,7.0,1.0,17.972,1,1
3f15wt1zuafjj73zp08bmc24,4,0,a36,1,4.0,0.0,27.798,1,1
3f15wt1zuafjj73zp08bmc24,5,0,a43,4,4.0,1.0,20.316,1,1
3f15wt1zuafjj73zp08bmc24,6,0,a48,5,6.0,0.0,28.037,1,1
3f15wt1zuafjj73zp08bmc24,7,0,a49,6,6.0,1.0,9.577,1,1
3f15wt1zuafjj73zp08bmc24,8,0,a53,0,0.0,1.0,24.066,1,1
3f15wt1zuafjj73zp08bmc24,9,0,a55,1,4.0,0.0,28.715,1,1
3jox72tyltcdwgy9nq9ajzyl,1,0,a11,4,4.0,1.0,8.705,1,1
3jox72tyltcdwgy9nq9ajzyl,2,0,a24,4,4.0,1.0,11.918,1,1
3jox72tyltcdwgy9nq9ajzyl,3,0,a28,7,7.0,1.0,7.168,1,1
3jox72tyltcdwgy9nq9ajzyl,4,0,a36,1,2.0,0.0,11.506,1,1
3jox72tyltcdwgy9nq9ajzyl,5,0,a43,4,0.0,0.0,14.97,1,1
3jox72tyltcdwgy9nq9ajzyl,6,0,a48,5,6.0,0.0,7.777,1,1
3jox72tyltcdwgy9nq9ajzyl,7,0,a49,6,6.0,1.0,7.264,1,1
3jox72tyltcdwgy9nq9ajzyl,8,0,a53,0,1.0,0.0,16.54,1,1
3jox72tyltcdwgy9nq9ajzyl,9,0,a55,1,2.0,0.0,8.057,1,1
3mt13d4svlx9o7if06iqiqr3,1,0,a11,4,4.0,1.0,10.291,1,1
3mt13d4svlx9o7if06iqiqr3,2,0,a24,4,4.0,1.0,12.088,1,1
3mt13d4svlx9o7if06iqiqr3,3,0,a28,7,7.0,1.0,14.897,1,1
3mt13d4svlx9o7if06iqiqr3,4,0,a36,1,1.0,1.0,10.839,1,1
3mt13d4svlx9o7if06iqiqr3,5,0,a43,4,3.0,0.0,16.847,1,1
3mt13d4svlx9o7if06iqiqr3,6,0,a48,5,7.0,0.0,18.031,1,1
3mt13d4svlx9o7if06iqiqr3,7,0,a49,6,6.0,1.0,5.81,1,1
3mt13d4svlx9o7if06iqiqr3,8,0,a53,0,,,,1,1
3mt13d4svlx9o7if06iqiqr3,9,0,a55,1,3.0,0.0,11.498,1,1
3xmqclm3ueu48y55ql8g1t49,1,0,a11,4,4.0,1.0,9.845,1,1
3xmqclm3ueu48y55ql8g1t49,2,0,a24,4,3.0,0.0,12.529,1,1
3xmqclm3ueu48y55ql8g1t49,3,0,a28,7,7.0,1.0,8.681,1,1
3xmqclm3ueu48y55ql8g1t49,4,0,a36,1,2.0,0.0,7.091,1,1
3xmqclm3ueu48y55ql8g1t49,5,0,a43,4,3.0,0.0,11.912,1,1
3xmqclm3ueu48y55ql8g1t49,6,0,a48,5,6.0,0.0,10.767,1,1
3xmqclm3ueu48y55ql8g1t49,7,0,a49,6,2.0,0.0,6.693,1,1
3xmqclm3ueu48y55ql8g1t49,8,0,a53,0,0.0,1.0,10.269,1,1
3xmqclm3ueu48y55ql8g1t49,9,0,a55,1,6.0,0.0,16.154,1,1
3y56cntgtzvbinzrsb9ejbgh,1,0,a11,4,4.0,1.0,12.698,1,1
3y56cntgtzvbinzrsb9ejbgh,2,0,a24,4,5.0,0.0,8.362,1,1
3y56cntgtzvbinzrsb9ejbgh,3,0,a28,7,7.0,1.0,10.61,1,1
3y56cntgtzvbinzrsb9ejbgh,4,0,a36,1,2.0,0.0,10.585,1,1
3y56cntgtzvbinzrsb9ejbgh,5,0,a43,4,0.0,0.0,9.866,1,1
3y56cntgtzvbinzrsb9ejbgh,6,0,a48,5,6.0,0.0,12.55,1,1
3y56cntgtzvbinzrsb9ejbgh,7,0,a49,6,6.0,1.0,7.586,1,1
3y56cntgtzvbinzrsb9ejbgh,8,0,a53,0,5.0,0.0,7.417,1,1
3y56cntgtzvbinzrsb9ejbgh,9,0,a55,1,6.0,0.0,6.241,1,1
4180wl83hamtlhn114oqs14v,1,0,a11,4,4.0,1.0,18.656,1,1
4180wl83hamtlhn114oqs14v,2,0,a24,4,4.0,1.0,13.261,1,1
4180wl83hamtlhn114oqs14v,3,0,a28,7,7.0,1.0,16.593,1,1
4180wl83hamtlhn114oqs14v,4,0,a36,1,1.0,1.0,22.392,1,1
4180wl83hamtlhn114oqs14v,5,0,a43,4,4.0,1.0,27.693,1,1
4180wl83hamtlhn114oqs14v,6,0,a48,5,5.0,1.0,27.443,1,1
4180wl83hamtlhn114oqs14v,7,0,a49,6,6.0,1.0,11.891,1,1
4180wl83hamtlhn114oqs14v,8,0,a53,0,0.0,1.0,24.628,1,1
4180wl83hamtlhn114oqs14v,9,0,a55,1,1.0,1.0,21.096,1,1
4cqvclz0fnjf95g4ocjsred9,1,0,a11,4,4.0,1.0,15.627,1,1
4cqvclz0fnjf95g4ocjsred9,2,0,a24,4,5.0,0.0,9.356,1,1
4cqvclz0fnjf95g4ocjsred9,3,0,a28,7,7.0,1.0,8.241,1,1
4cqvclz0fnjf95g4ocjsred9,4,0,a36,1,5.0,0.0,19.192,1,1
4cqvclz0fnjf95g4ocjsred9,5,0,a43,4,0.0,0.0,6.042,1,1
4cqvclz0fnjf95g4ocjsred9,6,0,a48,5,3.0,0.0,19.844,1,1
4cqvclz0fnjf95g4ocjsred9,7,0,a49,6,2.0,0.0,21.895,1,1
4cqvclz0fnjf95g4ocjsred9,8,0,a53,0,3.0,0.0,4.424,1,1
4cqvclz0fnjf95g4ocjsred9,9,0,a55,1,6.0,0.0,6.694,1,1
4h9s6f5r1bjbbuznd6z57lcj,1,0,a11,4,4.0,1.0,6.381,1,1
4h9s6f5r1bjbbuznd6z57lcj,2,0,a24,4,1.0,0.0,5.436,1,1
4h9s6f5r1bjbbuznd6z57lcj,3,0,a28,7,7.0,1.0,4.267,1,1
4h9s6f5r1bjbbuznd6z57lcj,4,0,a36,1,2.0,0.0,10.1,1,1
4h9s6f5r1bjbbuznd6z57lcj,5,0,a43,4,7.0,0.0,10.049,1,1
4h9s6f5r1bjbbuznd6z57lcj,6,0,a48,5,5.0,1.0,20.371,1,1
4h9s6f5r1bjbbuznd6z57lcj,7,0,a49,6,6.0,1.0,3.43,1,1
4h9s6f5r1bjbbuznd6z57lcj,8,0,a53,0,0.0,1.0,3.198,1,1
4h9s6f5r1bjbbuznd6z57lcj,9,0,a55,1,2.0,0.0,8.959,1,1
4i5r1nyk58x1dat3j9a94rna,1,0,a11,4,5.0,0.0,11.129,1,1
4i5r1nyk58x1dat3j9a94rna,2,0,a24,4,5.0,0.0,6.015,1,1
4i5r1nyk58x1dat3j9a94rna,3,0,a28,7,3.0,0.0,8.527,1,1
4i5r1nyk58x1dat3j9a94rna,4,0,a36,1,4.0,0.0,2.113,1,1
4i5r1nyk58x1dat3j9a94rna,5,0,a43,4,2.0,0.0,2.439,1,1
4i5r1nyk58x1dat3j9a94rna,6,0,a48,5,6.0,0.0,7.415,1,1
4i5r1nyk58x1dat3j9a94rna,7,0,a49,6,0.0,0.0,2.344,1,1
4i5r1nyk58x1dat3j9a94rna,8,0,a53,0,3.0,0.0,4.525,1,1
4i5r1nyk58x1dat3j9a94rna,9,0,a55,1,0.0,0.0,7.738,1,1
4kzkglmnffnvdk7gztjcbs1z,1,0,a11,4,4.0,1.0,15.102,1,1
4kzkglmnffnvdk7gztjcbs1z,2,0,a24,4,4.0,1.0,8.353,1,1
4kzkglmnffnvdk7gztjcbs1z,3,0,a28,7,7.0,1.0,7.369,1,1
4kzkglmnffnvdk7gztjcbs1z,4,0,a36,1,0.0,0.0,12.85,1,1
4kzkglmnffnvdk7gztjcbs1z,5,0,a43,4,4.0,1.0,6.373,1,1
4kzkglmnffnvdk7gztjcbs1z,6,0,a48,5,5.0,1.0,14.289,1,1
4kzkglmnffnvdk7gztjcbs1z,7,0,a49,6,6.0,1.0,19.668,1,1
4kzkglmnffnvdk7gztjcbs1z,8,0,a53,0,0.0,1.0,9.262,1,1
4kzkglmnffnvdk7gztjcbs1z,9,0,a55,1,1.0,1.0,11.868,1,1
4nb9zh2zvihwz629vqrod27w,1,0,a11,4,4.0,1.0,18.407,1,1
4nb9zh2zvihwz629vqrod27w,2,0,a24,4,4.0,1.0,12.011,1,1
4nb9zh2zvihwz629vqrod27w,3,0,a28,7,7.0,1.0,16.812,1,1
4nb9zh2zvihwz629vqrod27w,4,0,a36,1,7.0,0.0,23.817,1,1
4nb9zh2zvihwz629vqrod27w,5,0,a43,4,3.0,0.0,23.375,1,1
4nb9zh2zvihwz629vqrod27w,6,0,a48,5,,,,1,1
4nb9zh2zvihwz629vqrod27w,7,0,a49,6,6.0,1.0,10.875,1,1
4nb9zh2zvihwz629vqrod27w,8,0,a53,0,1.0,0.0,24.382,1,1
4nb9zh2zvihwz629vqrod27w,9,0,a55,1,6.0,0.0,15.628,1,1
4o0zohmgk13ulr91i7rrwrqj,1,0,a11,4,0.0,0.0,10.369,1,1
4o0zohmgk13ulr91i7rrwrqj,2,0,a24,4,4.0,1.0,17.706,1,1
4o0zohmgk13ulr91i7rrwrqj,3,0,a28,7,7.0,1.0,8.955,1,1
4o0zohmgk13ulr91i7rrwrqj,4,0,a36,1,1.0,1.0,25.108,1,1
4o0zohmgk13ulr91i7rrwrqj,5,0,a43,4,4.0,1.0,24.551,1,1
4o0zohmgk13ulr91i7rrwrqj,6,0,a48,5,,,,1,1
4o0zohmgk13ulr91i7rrwrqj,7,0,a49,6,6.0,1.0,6.7,1,1
4o0zohmgk13ulr91i7rrwrqj,8,0,a53,0,0.0,1.0,14.967,1,1
4o0zohmgk13ulr91i7rrwrqj,9,0,a55,1,5.0,0.0,12.752,1,1
4t4p4thv9qwc58ayv5vs8k9d,1,0,a11,4,4.0,1.0,12.64,1,1
4t4p4thv9qwc58ayv5vs8k9d,2,0,a24,4,4.0,1.0,12.346,1,1
4t4p4thv9qwc58ayv5vs8k9d,3,0,a28,7,7.0,1.0,8.106,1,1
4t4p4thv9qwc58ayv5vs8k9d,4,0,a36,1,2.0,0.0,20.657,1,1
4t4p4thv9qwc58ayv5vs8k9d,5,0,a43,4,4.0,1.0,18.708,1,1
4t4p4thv9qwc58ayv5vs8k9d,6,0,a48,5,7.0,0.0,20.401,1,1
4t4p4thv9qwc58ayv5vs8k9d,7,0,a49,6,6.0,1.0,9.355,1,1
4t4p4thv9qwc58ayv5vs8k9d,8,0,a53,0,4.0,0.0,14.48,1,1
4t4p4thv9qwc58ayv5vs8k9d,9,0,a55,1,4.0,0.0,20.331,1,1
4tnnv1yqbttimeq4btpqzbag,1,0,a11,4,4.0,1.0,14.883,1,1
4tnnv1yqbttimeq4btpqzbag,2,0,a24,4,4.0,1.0,9.982,1,1
4tnnv1yqbttimeq4btpqzbag,3,0,a28,7,7.0,1.0,12.961,1,1
4tnnv1yqbttimeq4btpqzbag,4,0,a36,1,1.0,1.0,15.666,1,1
4tnnv1yqbttimeq4btpqzbag,5,0,a43,4,4.0,1.0,12.566,1,1
4tnnv1yqbttimeq4btpqzbag,6,0,a48,5,5.0,1.0,22.086,1,1
4tnnv1yqbttimeq4btpqzbag,7,0,a49,6,6.0,1.0,15.899,1,1
4tnnv1yqbttimeq4btpqzbag,8,0,a53,0,0.0,1.0,8.015,1,1
4tnnv1yqbttimeq4btpqzbag,9,0,a55,1,1.0,1.0,27.636,1,1
4wcaoep10x0zv7vyd6otvte6,1,0,a11,4,4.0,1.0,21.129,1,1
4wcaoep10x0zv7vyd6otvte6,2,0,a24,4,4.0,1.0,10.389,1,1
4wcaoep10x0zv7vyd6otvte6,3,0,a28,7,,,,1,1
4wcaoep10x0zv7vyd6otvte6,4,0,a36,1,2.0,0.0,22.162,1,1
4wcaoep10x0zv7vyd6otvte6,5,0,a43,4,4.0,1.0,17.311,1,1
4wcaoep10x0zv7vyd6otvte6,6,0,a48,5,7.0,0.0,15.41,1,1
4wcaoep10x0zv7vyd6otvte6,7,0,a49,6,,,,1,1
4wcaoep10x0zv7vyd6otvte6,8,0,a53,0,6.0,0.0,17.891,1,1
4wcaoep10x0zv7vyd6otvte6,9,0,a55,1,2.0,0.0,25.565,1,1
548r613m1i597ijkkd0sc0os,1,0,a11,4,5.0,0.0,5.017,1,1
548r613m1i597ijkkd0sc0os,2,0,a24,4,5.0,0.0,11.494,1,1
548r613m1i597ijkkd0sc0os,3,0,a28,7,7.0,1.0,5.326,1,1
548r613m1i597ijkkd0sc0os,4,0,a36,1,0.0,0.0,10.727,1,1
548r613m1i597ijkkd0sc0os,5,0,a43,4,5.0,0.0,7.816,1,1
548r613m1i597ijkkd0sc0os,6,0,a48,5,3.0,0.0,7.726,1,1
548r613m1i597ijkkd0sc0os,7,0,a49,6,6.0,1.0,6.162,1,1
548r613m1i597ijkkd0sc0os,8,0,a53,0,2.0,0.0,3.958,1,1
548r613m1i597ijkkd0sc0os,9,0,a55,1,1.0,1.0,10.819,1,1
5aqac2dkk4jzqr85w9p4ceck,1,0,a11,4,4.0,1.0,8.163,1,1
5aqac2dkk4jzqr85w9p4ceck,2,0,a24,4,4.0,1.0,7.658,1,1
5aqac2dkk4jzqr85w9p4ceck,3,0,a28,7,7.0,1.0,9.687,1,1
5aqac2dkk4jzqr85w9p4ceck,4,0,a36,1,1.0,1.0,22.237,1,1
5aqac2dkk4jzqr85w9p4ceck,5,0,a43,4,4.0,1.0,10.705,1,1
5aqac2dkk4jzqr85w9p4ceck,6,0,a48,5,5.0,1.0,20.942,1,1
5aqac2dkk4jzqr85w9p4ceck,7,0,a49,6,6.0,1.0,5.986,1,1
5aqac2dkk4jzqr85w9p4ceck,8,0,a53,0,0.0,1.0,26.133,1,1
5aqac2dkk4jzqr85w9p4ceck,9,0,a55,1,3.0,0.0,29.436,1,1
5eljmhv6apxgoisdherxo39q,1,0,a11,4,5.0,0.0,6.994,1,1
5eljmhv6apxgoisdherxo39q,2,0,a24,4,5.0,0.0,6.364,1,1
5eljmhv6apxgoisdherxo39q,3,0,a28,7,7.0,1.0,2.546,1,1
5eljmhv6apxgoisdherxo39q,4,0,a36,1,2.0,0.0,21.86,1,1
5eljmhv6apxgoisdherxo39q,5,0,a43,4,5.0,0.0,2.614,1,1
5eljmhv6apxgoisdherxo39q,6,0,a48,5,4.0,0.0,8.309,1,1
5eljmhv6apxgoisdherxo39q,7,0,a49,6,6.0,1.0,7.423,1,1
5eljmhv6apxgoisdherxo39q,8,0,a53,0,3.0,0.0,12.269,1,1
5eljmhv6apxgoisdherxo39q,9,0,a55,1,0.0,0.0,6.642,1,1
5uhn3mipoysj0519qdgqjpo3,1,0,a11,4,4.0,1.0,16.195,1,1
5uhn3mipoysj0519qdgqjpo3,2,0,a24,4,5.0,0.0,15.026,1,1
5uhn3mipoysj0519qdgqjpo3,3,0,a28,7,7.0,1.0,7.956,1,1
5uhn3mipoysj0519qdgqjpo3,4,0,a36,1,3.0,0.0,14.812,1,1
5uhn3mipoysj0519qdgqjpo3,5,0,a43,4,6.0,0.0,14.296,1,1
5uhn3mipoysj0519qdgqjpo3,6,0,a48,5,1.0,0.0,15.124,1,1
5uhn3mipoysj0519qdgqjpo3,7,0,a49,6,6.0,1.0,6.71,1,1
5uhn3mipoysj0519qdgqjpo3,8,0,a53,0,6.0,0.0,7.24,1,1
5uhn3mipoysj0519qdgqjpo3,9,0,a55,1,6.0,0.0,7.674,1,1
5vqg62t14msjdocnn7k75ntw,1,0,a11,4,4.0,1.0,5.471,1,1
5vqg62t14msjdocnn7k75ntw,2,0,a24,4,4.0,1.0,6.749,1,1
5vqg62t14msjdocnn7k75ntw,3,0,a28,7,7.0,1.0,8.334,1,1
5vqg62t14msjdocnn7k75ntw,4,0,a36,1,1.0,1.0,10.497,1,1
5vqg62t14msjdocnn7k75ntw,5,0,a43,4,4.0,1.0,7.94,1,1
5vqg62t14msjdocnn7k75ntw,6,0,a48,5,4.0,0.0,8.55,1,1
5vqg62t14msjdocnn7k75ntw,7,0,a49,6,6.0,1.0,3.908,1,1
5vqg62t14msjdocnn7k75ntw,8,0,a53,0,0.0,1.0,6.847,1,1
5vqg62t14msjdocnn7k75ntw,9,0,a55,1,1.0,1.0,14.822,1,1
5zi17h1eaa5gsec1x1q9arat,1,0,a11,4,5.0,0.0,14.422,1,1
5zi17h1eaa5gsec1x1q9arat,2,0,a24,4,4.0,1.0,10.953,1,1
5zi17h1eaa5gsec1x1q9arat,3,0,a28,7,0.0,0.0,14.885,1,1
5zi17h1eaa5gsec1x1q9arat,4,0,a36,1,7.0,0.0,7.616,1,1
5zi17h1eaa5gsec1x1q9arat,5,0,a43,4,3.0,0.0,11.536,1,1
5zi17h1eaa5gsec1x1q9arat,6,0,a48,5,4.0,0.0,12.006,1,1
5zi17h1eaa5gsec1x1q9arat,7,0,a49,6,5.0,0.0,3.639,1,1
5zi17h1eaa5gsec1x1q9arat,8,0,a53,0,6.0,0.0,8.434,1,1
5zi17h1eaa5gsec1x1q9arat,9,0,a55,1,6.0,0.0,5.02,1,1
6243pz3sc4yxnt5anybgt3zu,1,0,a11,4,4.0,1.0,20.272,1,1
6243pz3sc4yxnt5anybgt3zu,2,0,a24,4,4.0,1.0,29.393,1,1
6243pz3sc4yxnt5anybgt3zu,3,0,a28,7,7.0,1.0,14.041,1,1
6243pz3sc4yxnt5anybgt3zu,4,0,a36,1,1.0,1.0,21.769,1,1
6243pz3sc4yxnt5anybgt3zu,5,0,a43,4,4.0,1.0,11.672,1,1
6243pz3sc4yxnt5anybgt3zu,6,0,a48,5,,,,1,1
6243pz3sc4yxnt5anybgt3zu,7,0,a49,6,6.0,1.0,7.127,1,1
6243pz3sc4yxnt5anybgt3zu,8,0,a53,0,0.0,1.0,13.853,1,1
6243pz3sc4yxnt5anybgt3zu,9,0,a55,1,5.0,0.0,26.023,1,1
64pz762h2thrugnt4irkgup0,1,0,a11,4,5.0,0.0,18.673,1,1
64pz762h2thrugnt4irkgup0,2,0,a24,4,4.0,1.0,13.917,1,1
64pz762h2thrugnt4irkgup0,3,0,a28,7,7.0,1.0,24.197,1,1
64pz762h2thrugnt4irkgup0,4,0,a36,1,3.0,0.0,17.583,1,1
64pz762h2thrugnt4irkgup0,5,0,a43,4,4.0,1.0,13.123,1,1
64pz762h2thrugnt4irkgup0,6,0,a48,5,1.0,0.0,11.101,1,1
64pz762h2thrugnt4irkgup0,7,0,a49,6,6.0,1.0,5.766,1,1
64pz762h2thrugnt4irkgup0,8,0,a53,0,0.0,1.0,8.742,1,1
64pz762h2thrugnt4irkgup0,9,0,a55,1,5.0,0.0,11.762,1,1
6drynitu8l4onxrf7nt5su3x,1,0,a11,4,4.0,1.0,8.939,1,1
6drynitu8l4onxrf7nt5su3x,2,0,a24,4,4.0,1.0,6.323,1,1
6drynitu8l4onxrf7nt5su3x,3,0,a28,7,7.0,1.0,10.31,1,1
6drynitu8l4onxrf7nt5su3x,4,0,a36,1,2.0,0.0,9.463,1,1
6drynitu8l4onxrf7nt5su3x,5,0,a43,4,7.0,0.0,17.933,1,1
6drynitu8l4onxrf7nt5su3x,6,0,a48,5,3.0,0.0,13.233,1,1
6drynitu8l4onxrf7nt5su3x,7,0,a49,6,2.0,0.0,5.965,1,1
6drynitu8l4onxrf7nt5su3x,8,0,a53,0,0.0,1.0,6.899,1,1
6drynitu8l4onxrf7nt5su3x,9,0,a55,1,7.0,0.0,15.645,1,1
6egtlnwr7krk2a6x9ga4gvss,1,0,a11,4,4.0,1.0,23.384,1,1
6egtlnwr7krk2a6x9ga4gvss,2,0,a24,4,4.0,1.0,6.145,1,1
6egtlnwr7krk2a6x9ga4gvss,3,0,a28,7,7.0,1.0,7.316,1,1
6egtlnwr7krk2a6x9ga4gvss,4,0,a36,1,1.0,1.0,13.677,1,1
6egtlnwr7krk2a6x9ga4gvss,5,0,a43,4,4.0,1.0,10.938,1,1
6egtlnwr7krk2a6x9ga4gvss,6,0,a48,5,1.0,0.0,12.813,1,1
6egtlnwr7krk2a6x9ga4gvss,7,0,a49,6,6.0,1.0,12.517,1,1
6egtlnwr7krk2a6x9ga4gvss,8,0,a53,0,0.0,1.0,18.614,1,1
6egtlnwr7krk2a6x9ga4gvss,9,0,a55,1,3.0,0.0,25.745,1,1
6ek0a0gt0qrss8yl59xnnvq6,1,0,a11,4,4.0,1.0,4.587,1,1
6ek0a0gt0qrss8yl59xnnvq6,2,0,a24,4,4.0,1.0,7.603,1,1
6ek0a0gt0qrss8yl59xnnvq6,3,0,a28,7,7.0,1.0,6.636,1,1
6ek0a0gt0qrss8yl59xnnvq6,4,0,a36,1,2.0,0.0,16.536,1,1
6ek0a0gt0qrss8yl59xnnvq6,5,0,a43,4,4.0,1.0,11.372,1,1
6ek0a0gt0qrss8yl59xnnvq6,6,0,a48,5,5.0,1.0,13.287,1,1
6ek0a0gt0qrss8yl59xnnvq6,7,0,a49,6,5.0,0.0,14.909,1,1
6ek0a0gt0qrss8yl59xnnvq6,8,0,a53,0,5.0,0.0,15.785,1,1
6ek0a0gt0qrss8yl59xnnvq6,9,0,a55,1,3.0,0.0,17.822,1,1
6i76xg2omws25usjwan7uvou,1,0,a11,4,0.0,0.0,6.884,1,1
6i76xg2omws25usjwan7uvou,2,0,a24,4,2.0,0.0,6.526,1,1
6i76xg2omws25usjwan7uvou,3,0,a28,7,2.0,0.0,8.216,1,1
6i76xg2omws25usjwan7uvou,4,0,a36,1,5.0,0.0,7.493,1,1
6i76xg2omws25usjwan7uvou,5,0,a43,4,4.0,1.0,7.874,1,1
6i76xg2omws25usjwan7uvou,6,0,a48,5,0.0,0.0,13.609,1,1
6i76xg2omws25usjwan7uvou,7,0,a49,6,0.0,0.0,6.5,1,1
6i76xg2omws25usjwan7uvou,8,0,a53,0,1.0,0.0,13.333,1,1
6i76xg2omws25usjwan7uvou,9,0,a55,1,3.0,0.0,3.895,1,1
6pl7be10mo0l423lny1d0d7n,1,0,a11,4,4.0,1.0,17.673,1,1
6pl7be10mo0l423lny1d0d7n,2,0,a24,4,4.0,1.0,19.128,1,1
6pl7be10mo0l423lny1d0d7n,3,0,a28,7,7.0,1.0,11.347,1,1
6pl7be10mo0l423lny1d0d7n,4,0,a36,1,7.0,0.0,29.446,1,1
6pl7be10mo0l423lny1d0d7n,5,0,a43,4,5.0,0.0,21.05,1,1
6pl7be10mo0l423lny1d0d7n,6,0,a48,5,4.0,0.0,14.14,1,1
6pl7be10mo0l423lny1d0d7n,7,0,a49,6,6.0,1.0,13.782,1,1
6pl7be10mo0l423lny1d0d7n,8,0,a53,0,0.0,1.0,19.668,1,1
6pl7be10mo0l423lny1d0d7n,9,0,a55,1,3.0,0.0,10.962,1,1
6quynuose0f7veonp02rtr11,1,0,a11,4,4.0,1.0,10.484,1,1
6quynuose0f7veonp02rtr11,2,0,a24,4,1.0,0.0,20.93,1,1
6quynuose0f7veonp02rtr11,3,0,a28,7,,,,1,1
6quynuose0f7veonp02rtr11,4,0,a36,1,5.0,0.0,28.38,1,1
6quynuose0f7veonp02rtr11,5,0,a43,4,1.0,0.0,27.31,1,1
6quynuose0f7veonp02rtr11,6,0,a48,5,7.0,0.0,28.33,1,1
6quynuose0f7veonp02rtr11,7,0,a49,6,6.0,1.0,26.276,1,1
6quynuose0f7veonp02rtr11,8,0,a53,0,0.0,1.0,9.942,1,1
6quynuose0f7veonp02rtr11,9,0,a55,1,,,,1,1
6qz4synvbrss03g98is54m0m,1,0,a11,4,4.0,1.0,4.682,1,1
6qz4synvbrss03g98is54m0m,2,0,a24,4,1.0,0.0,6.388,1,1
6qz4synvbrss03g98is54m0m,3,0,a28,7,7.0,1.0,2.482,1,1
6qz4synvbrss03g98is54m0m,4,0,a36,1,3.0,0.0,4.658,1,1
6qz4synvbrss03g98is54m0m,5,0,a43,4,4.0,1.0,6.085,1,1
6qz4synvbrss03g98is54m0m,6,0,a48,5,4.0,0.0,2.662,1,1
6qz4synvbrss03g98is54m0m,7,0,a49,6,6.0,1.0,3.766,1,1
6qz4synvbrss03g98is54m0m,8,0,a53,0,3.0,0.0,3.156,1,1
6qz4synvbrss03g98is54m0m,9,0,a55,1,3.0,0.0,1.851,1,1
6sga6oetgybwmkbfsfof2zw9,1,0,a11,4,5.0,0.0,8.101,1,1
6sga6oetgybwmkbfsfof2zw9,2,0,a24,4,3.0,0.0,5.98,1,1
6sga6oetgybwmkbfsfof2zw9,3,0,a28,7,1.0,0.0,6.899,1,1
6sga6oetgybwmkbfsfof2zw9,4,0,a36,1,1.0,1.0,15.283,1,1
6sga6oetgybwmkbfsfof2zw9,5,0,a43,4,0.0,0.0,9.004,1,1
6sga6oetgybwmkbfsfof2zw9,6,0,a48,5,0.0,0.0,9.884,1,1
6sga6oetgybwmkbfsfof2zw9,7,0,a49,6,3.0,0.0,10.563,1,1
6sga6oetgybwmkbfsfof2zw9,8,0,a53,0,1.0,0.0,9.639,1,1
6sga6oetgybwmkbfsfof2zw9,9,0,a55,1,3.0,0.0,4.874,1,1
6tp7njo3rsa14o89idl4x00l,1,0,a11,4,4.0,1.0,12.247,1,1
6tp7njo3rsa14o89idl4x00l,2,0,a24,4,2.0,0.0,13.829,1,1
6tp7njo3rsa14o89idl4x00l,3,0,a28,7,7.0,1.0,6.944,1,1
6tp7njo3rsa14o89idl4x00l,4,0,a36,1,1.0,1.0,16.864,1,1
6tp7njo3rsa14o89idl4x00l,5,0,a43,4,4.0,1.0,14.278,1,1
6tp7njo3rsa14o89idl4x00l,6,0,a48,5,6.0,0.0,15.492,1,1
6tp7njo3rsa14o89idl4x00l,7,0,a49,6,2.0,0.0,5.8,1,1
6tp7njo3rsa14o89idl4x00l,8,0,a53,0,6.0,0.0,11.688,1,1
6tp7njo3rsa14o89idl4x00l,9,0,a55,1,3.0,0.0,9.427,1,1
6zsfpz1801pz8cgtef5st4f8,1,0,a11,4,0.0,0.0,4.821,1,1
6zsfpz1801pz8cgtef5st4f8,2,0,a24,4,5.0,0.0,20.486,1,1
6zsfpz1801pz8cgtef5st4f8,3,0,a28,7,7.0,1.0,8.797,1,1
6zsfpz1801pz8cgtef5st4f8,4,0,a36,1,5.0,0.0,15.676,1,1
6zsfpz1801pz8cgtef5st4f8,5,0,a43,4,4.0,1.0,14.142,1,1
6zsfpz1801pz8cgtef5st4f8,6,0,a48,5,1.0,0.0,14.166,1,1
6zsfpz1801pz8cgtef5st4f8,7,0,a49,6,6.0,1.0,6.868,1,1
6zsfpz1801pz8cgtef5st4f8,8,0,a53,0,6.0,0.0,24.66,1,1
6zsfpz1801pz8cgtef5st4f8,9,0,a55,1,0.0,0.0,3.118,1,1
71297jscu43vqxptr4598dtu,1,0,a11,4,4.0,1.0,4.994,1,1
71297jscu43vqxptr4598dtu,2,0,a24,4,0.0,0.0,11.126,1,1
71297jscu43vqxptr4598dtu,3,0,a28,7,7.0,1.0,10.018,1,1
71297jscu43vqxptr4598dtu,4,0,a36,1,1.0,1.0,17.721,1,1
71297jscu43vqxptr4598dtu,5,0,a43,4,4.0,1.0,13.616,1,1
71297jscu43vqxptr4598dtu,6,0,a48,5,4.0,0.0,8.476,1,1
71297jscu43vqxptr4598dtu,7,0,a49,6,6.0,1.0,4.644,1,1
71297jscu43vqxptr4598dtu,8,0,a53,0,0.0,1.0,5.415,1,1
71297jscu43vqxptr4598dtu,9,0,a55,1,1.0,1.0,10.496,1,1
71pzqs0ynsbt4ce9fa7xt8qj,1,0,a11,4,5.0,0.0,29.773,1,1
71pzqs0ynsbt4ce9fa7xt8qj,2,0,a24,4,5.0,0.0,15.069,1,1
71pzqs0ynsbt4ce9fa7xt8qj,3,0,a28,7,,,,1,1
71pzqs0ynsbt4ce9fa7xt8qj,4,0,a36,1,3.0,0.0,28.591,1,1
71pzqs0ynsbt4ce9fa7xt8qj,5,0,a43,4,,,,1,1
71pzqs0ynsbt4ce9fa7xt8qj,6,0,a48,5,4.0,0.0,27.79,1,1
71pzqs0ynsbt4ce9fa7xt8qj,7,0,a49,6,6.0,1.0,22.43,1,1
71pzqs0ynsbt4ce9fa7xt8qj,8,0,a53,0,1.0,0.0,27.136,1,1
71pzqs0ynsbt4ce9fa7xt8qj,9,0,a55,1,3.0,0.0,21.798,1,1
77h32etnl33cyd6wsn4o7pn3,1,0,a11,4,4.0,1.0,8.144,1,1
77h32etnl33cyd6wsn4o7pn3,2,0,a24,4,2.0,0.0,5.101,1,1
77h32etnl33cyd6wsn4o7pn3,3,0,a28,7,7.0,1.0,6.543,1,1
77h32etnl33cyd6wsn4o7pn3,4,0,a36,1,5.0,0.0,7.687,1,1
77h32etnl33cyd6wsn4o7pn3,5,0,a43,4,1.0,0.0,8.191,1,1
77h32etnl33cyd6wsn4o7pn3,6,0,a48,5,0.0,0.0,9.661,1,1
77h32etnl33cyd6wsn4o7pn3,7,0,a49,6,0.0,0.0,4.63,1,1
77h32etnl33cyd6wsn4o7pn3,8,0,a53,0,2.0,0.0,6.556,1,1
77h32etnl33cyd6wsn4o7pn3,9,0,a55,1,4.0,0.0,10.03,1,1
7k4bavljkdwkrtqlc481u8r1,1,0,a11,4,5.0,0.0,13.022,1,1
7k4bavljkdwkrtqlc481u8r1,2,0,a24,4,3.0,0.0,13.037,1,1
7k4bavljkdwkrtqlc481u8r1,3,0,a28,7,7.0,1.0,13.708,1,1
7k4bavljkdwkrtqlc481u8r1,4,0,a36,1,,,,1,1
7k4bavljkdwkrtqlc481u8r1,5,0,a43,4,4.0,1.0,28.655,1,1
7k4bavljkdwkrtqlc481u8r1,6,0,a48,5,6.0,0.0,16.717,1,1
7k4bavljkdwkrtqlc481u8r1,7,0,a49,6,6.0,1.0,9.416,1,1
7k4bavljkdwkrtqlc481u8r1,8,0,a53,0,6.0,0.0,25.694,1,1
7k4bavljkdwkrtqlc481u8r1,9,0,a55,1,3.0,0.0,11.822,1,1
7mihbycfvtdha1rr12ilcsoe,1,0,a11,4,4.0,1.0,9.048,1,1
7mihbycfvtdha1rr12ilcsoe,2,0,a24,4,4.0,1.0,10.468,1,1
7mihbycfvtdha1rr12ilcsoe,3,0,a28,7,7.0,1.0,11.675,1,1
7mihbycfvtdha1rr12ilcsoe,4,0,a36,1,1.0,1.0,10.332,1,1
7mihbycfvtdha1rr12ilcsoe,5,0,a43,4,4.0,1.0,12.714,1,1
7mihbycfvtdha1rr12ilcsoe,6,0,a48,5,3.0,0.0,13.311,1,1
7mihbycfvtdha1rr12ilcsoe,7,0,a49,6,6.0,1.0,7.172,1,1
7mihbycfvtdha1rr12ilcsoe,8,0,a53,0,0.0,1.0,8.387,1,1
7mihbycfvtdha1rr12ilcsoe,9,0,a55,1,2.0,0.0,27.5,1,1
7sr5dgrge0irg0jv8fx3ay54,1,0,a11,4,4.0,1.0,9.078,1,1
7sr5dgrge0irg0jv8fx3ay54,2,0,a24,4,4.0,1.0,12.847,1,1
7sr5dgrge0irg0jv8fx3ay54,3,0,a28,7,7.0,1.0,10.651,1,1
7sr5dgrge0irg0jv8fx3ay54,4,0,a36,1,1.0,1.0,27.578,1,1
7sr5dgrge0irg0jv8fx3ay54,5,0,a43,4,4.0,1.0,11.357,1,1
7sr5dgrge0irg0jv8fx3ay54,6,0,a48,5,5.0,1.0,12.975,1,1
7sr5dgrge0irg0jv8fx3ay54,7,0,a49,6,6.0,1.0,9.076,1,1
7sr5dgrge0irg0jv8fx3ay54,8,0,a53,0,0.0,1.0,4.772,1,1
7sr5dgrge0irg0jv8fx3ay54,9,0,a55,1,1.0,1.0,14.172,1,1
7v15v5szfi4of8nlhrm1tk7u,1,0,a11,4,4.0,1.0,7.043,1,1
7v15v5szfi4of8nlhrm1tk7u,2,0,a24,4,5.0,0.0,3.337,1,1
7v15v5szfi4of8nlhrm1tk7u,3,0,a28,7,7.0,1.0,3.855,1,1
7v15v5szfi4of8nlhrm1tk7u,4,0,a36,1,7.0,0.0,2.8,1,1
7v15v5szfi4of8nlhrm1tk7u,5,0,a43,4,0.0,0.0,16.074,1,1
7v15v5szfi4of8nlhrm1tk7u,6,0,a48,5,3.0,0.0,2.288,1,1
7v15v5szfi4of8nlhrm1tk7u,7,0,a49,6,6.0,1.0,9.218,1,1
7v15v5szfi4of8nlhrm1tk7u,8,0,a53,0,0.0,1.0,15.299,1,1
7v15v5szfi4of8nlhrm1tk7u,9,0,a55,1,2.0,0.0,4.329,1,1
7wmkaka12p5zw53zkjngpw43,1,0,a11,4,4.0,1.0,9.93,1,1
7wmkaka12p5zw53zkjngpw43,2,0,a24,4,4.0,1.0,8.837,1,1
7wmkaka12p5zw53zkjngpw43,3,0,a28,7,3.0,0.0,7.465,1,1
7wmkaka12p5zw53zkjngpw43,4,0,a36,1,2.0,0.0,19.89,1,1
7wmkaka12p5zw53zkjngpw43,5,0,a43,4,7.0,0.0,17.478,1,1
7wmkaka12p5zw53zkjngpw43,6,0,a48,5,4.0,0.0,16.727,1,1
7wmkaka12p5zw53zkjngpw43,7,0,a49,6,2.0,0.0,8.657,1,1
7wmkaka12p5zw53zkjngpw43,8,0,a53,0,0.0,1.0,8.105,1,1
7wmkaka12p5zw53zkjngpw43,9,0,a55,1,6.0,0.0,14.237,1,1
7z73z99urnc0a75572qtzwgt,1,0,a11,4,4.0,1.0,23.748,1,1
7z73z99urnc0a75572qtzwgt,2,0,a24,4,,,,1,1
7z73z99urnc0a75572qtzwgt,3,0,a28,7,7.0,1.0,17.691,1,1
7z73z99urnc0a75572qtzwgt,4,0,a36,1,0.0,0.0,29.584,1,1
7z73z99urnc0a75572qtzwgt,5,0,a43,4,4.0,1.0,12.749,1,1
7z73z99urnc0a75572qtzwgt,6,0,a48,5,7.0,0.0,21.836,1,1
7z73z99urnc0a75572qtzwgt,7,0,a49,6,6.0,1.0,12.453,1,1
7z73z99urnc0a75572qtzwgt,8,0,a53,0,0.0,1.0,11.728,1,1
7z73z99urnc0a75572qtzwgt,9,0,a55,1,0.0,0.0,29.708,1,1
81jjnmt5wh61zqkpnv5bsp37,1,0,a11,4,4.0,1.0,16.291,1,1
81jjnmt5wh61zqkpnv5bsp37,2,0,a24,4,4.0,1.0,9.529,1,1
81jjnmt5wh61zqkpnv5bsp37,3,0,a28,7,7.0,1.0,9.682,1,1
81jjnmt5wh61zqkpnv5bsp37,4,0,a36,1,1.0,1.0,17.191,1,1
81jjnmt5wh61zqkpnv5bsp37,5,0,a43,4,4.0,1.0,22.613,1,1
81jjnmt5wh61zqkpnv5bsp37,6,0,a48,5,5.0,1.0,22.948,1,1
81jjnmt5wh61zqkpnv5bsp37,7,0,a49,6,6.0,1.0,13.291,1,1
81jjnmt5wh61zqkpnv5bsp37,8,0,a53,0,0.0,1.0,9.324,1,1
81jjnmt5wh61zqkpnv5bsp37,9,0,a55,1,5.0,0.0,25.978,1,1
85eif24hrsy56qbr5r9wjw5a,1,0,a11,4,4.0,1.0,14.999,1,1
85eif24hrsy56qbr5r9wjw5a,2,0,a24,4,0.0,0.0,10.719,1,1
85eif24hrsy56qbr5r9wjw5a,3,0,a28,7,3.0,0.0,19.676,1,1
85eif24hrsy56qbr5r9wjw5a,4,0,a36,1,1.0,1.0,19.129,1,1
85eif24hrsy56qbr5r9wjw5a,5,0,a43,4,4.0,1.0,19.787,1,1
85eif24hrsy56qbr5r9wjw5a,6,0,a48,5,6.0,0.0,17.13,1,1
85eif24hrsy56qbr5r9wjw5a,7,0,a49,6,6.0,1.0,5.417,1,1
85eif24hrsy56qbr5r9wjw5a,8,0,a53,0,6.0,0.0,27.771,1,1
85eif24hrsy56qbr5r9wjw5a,9,0,a55,1,3.0,0.0,18.848,1,1
89d5yi6g7bqj2st5qcz3raau,1,0,a11,4,4.0,1.0,11.201,1,1
89d5yi6g7bqj2st5qcz3raau,2,0,a24,4,4.0,1.0,20.536,1,1
89d5yi6g7bqj2st5qcz3raau,3,0,a28,7,3.0,0.0,11.196,1,1
89d5yi6g7bqj2st5qcz3raau,4,0,a36,1,2.0,0.0,18.779,1,1
89d5yi6g7bqj2st5qcz3raau,5,0,a43,4,4.0,1.0,28.73,1,1
89d5yi6g7bqj2st5qcz3raau,6,0,a48,5,0.0,0.0,22.613,1,1
89d5yi6g7bqj2st5qcz3raau,7,0,a49,6,6.0,1.0,8.163,1,1
89d5yi6g7bqj2st5qcz3raau,8,0,a53,0,0.0,1.0,11.917,1,1
89d5yi6g7bqj2st5qcz3raau,9,0,a55,1,2.0,0.0,29.548,1,1
8dhbnq5967ipkesl95kv6ksk,1,0,a11,4,4.0,1.0,17.828,1,1
8dhbnq5967ipkesl95kv6ksk,2,0,a24,4,4.0,1.0,8.26,1,1
8dhbnq5967ipkesl95kv6ksk,3,0,a28,7,7.0,1.0,20.444,1,1
8dhbnq5967ipkesl95kv6ksk,4,0,a36,1,4.0,0.0,29.268,1,1
8dhbnq5967ipkesl95kv6ksk,5,0,a43,4,4.0,1.0,16.229,1,1
8dhbnq5967ipkesl95kv6ksk,6,0,a48,5,7.0,0.0,24.916,1,1
8dhbnq5967ipkesl95kv6ksk,7,0,a49,6,6.0,1.0,11.997,1,1
8dhbnq5967ipkesl95kv6ksk,8,0,a53,0,0.0,1.0,21.524,1,1
8dhbnq5967ipkesl95kv6ksk,9,0,a55,1,1.0,1.0,29.419,1,1
8eqydzkhiihpo7k05p84e24f,1,0,a11,4,2.0,0.0,17.043,1,1
8eqydzkhiihpo7k05p84e24f,2,0,a24,4,4.0,1.0,20.962,1,1
8eqydzkhiihpo7k05p84e24f,3,0,a28,7,7.0,1.0,18.761,1,1
8eqydzkhiihpo7k05p84e24f,4,0,a36,1,2.0,0.0,18.586,1,1
8eqydzkhiihpo7k05p84e24f,5,0,a43,4,4.0,1.0,26.282,1,1
8eqydzkhiihpo7k05p84e24f,6,0,a48,5,6.0,0.0,17.745,1,1
8eqydzkhiihpo7k05p84e24f,7,0,a49,6,2.0,0.0,7.09,1,1
8eqydzkhiihpo7k05p84e24f,8,0,a53,0,3.0,0.0,10.011,1,1
8eqydzkhiihpo7k05p84e24f,9,0,a55,1,5.0,0.0,10.08,1,1
8onfknie4vwgd5hfralzu75t,1,0,a11,4,4.0,1.0,9.324,1,1
8onfknie4vwgd5hfralzu75t,2,0,a24,4,4.0,1.0,5.446,1,1
8onfknie4vwgd5hfralzu75t,3,0,a28,7,7.0,1.0,10.696,1,1
8onfknie4vwgd5hfralzu75t,4,0,a36,1,5.0,0.0,15.11,1,1
8onfknie4vwgd5hfralzu75t,5,0,a43,4,4.0,1.0,11.325,1,1
8onfknie4vwgd5hfralzu75t,6,0,a48,5,1.0,0.0,16.143,1,1
8onfknie4vwgd5hfralzu75t,7,0,a49,6,6.0,1.0,4.659,1,1
8onfknie4vwgd5hfralzu75t,8,0,a53,0,0.0,1.0,21.326,1,1
8onfknie4vwgd5hfralzu75t,9,0,a55,1,7.0,0.0,28.16,1,1
8pvvvof5olc6ys7e5630cxhm,1,0,a11,4,4.0,1.0,25.119,1,1
8pvvvof5olc6ys7e5630cxhm,2,0,a24,4,5.0,0.0,14.219,1,1
8pvvvof5olc6ys7e5630cxhm,3,0,a28,7,2.0,0.0,12.864,1,1
8pvvvof5olc6ys7e5630cxhm,4,0,a36,1,2.0,0.0,7.773,1,1
8pvvvof5olc6ys7e5630cxhm,5,0,a43,4,2.0,0.0,13.065,1,1
8pvvvof5olc6ys7e5630cxhm,6,0,a48,5,5.0,1.0,19.396,1,1
8pvvvof5olc6ys7e5630cxhm,7,0,a49,6,6.0,1.0,14.187,1,1
8pvvvof5olc6ys7e5630cxhm,8,0,a53,0,0.0,1.0,16.885,1,1
8pvvvof5olc6ys7e5630cxhm,9,0,a55,1,5.0,0.0,9.845,1,1
8rp6kr4c71lh7kadqmmmcnos,1,0,a11,4,4.0,1.0,6.303,1,1
8rp6kr4c71lh7kadqmmmcnos,2,0,a24,4,4.0,1.0,7.638,1,1
8rp6kr4c71lh7kadqmmmcnos,3,0,a28,7,7.0,1.0,3.093,1,1
8rp6kr4c71lh7kadqmmmcnos,4,0,a36,1,3.0,0.0,7.136,1,1
8rp6kr4c71lh7kadqmmmcnos,5,0,a43,4,4.0,1.0,4.632,1,1
8rp6kr4c71lh7kadqmmmcnos,6,0,a48,5,6.0,0.0,12.535,1,1
8rp6kr4c71lh7kadqmmmcnos,7,0,a49,6,6.0,1.0,6.622,1,1
8rp6kr4c71lh7kadqmmmcnos,8,0,a53,0,2.0,0.0,7.657,1,1
8rp6kr4c71lh7kadqmmmcnos,9,0,a55,1,3.0,0.0,19.568,1,1
8xqvyzxjhp8a7aou4x3cn4c9,1,0,a11,4,3.0,0.0,14.72,1,1
8xqvyzxjhp8a7aou4x3cn4c9,2,0,a24,4,4.0,1.0,11.504,1,1
8xqvyzxjhp8a7aou4x3cn4c9,3,0,a28,7,7.0,1.0,18.46,1,1
8xqvyzxjhp8a7aou4x3cn4c9,4,0,a36,1,2.0,0.0,14.129,1,1
8xqvyzxjhp8a7aou4x3cn4c9,5,0,a43,4,4.0,1.0,19.932,1,1
8xqvyzxjhp8a7aou4x3cn4c9,6,0,a48,5,4.0,0.0,26.68,1,1
8xqvyzxjhp8a7aou4x3cn4c9,7,0,a49,6,6.0,1.0,9.543,1,1
8xqvyzxjhp8a7aou4x3cn4c9,8,0,a53,0,4.0,0.0,27.519,1,1
8xqvyzxjhp8a7aou4x3cn4c9,9,0,a55,1,,,,1,1
8z10rlhd2moilw1h22mf36ly,1,0,a11,4,4.0,1.0,8.321,1,1
8z10rlhd2moilw1h22mf36ly,2,0,a24,4,4.0,1.0,3.642,1,1
8z10rlhd2moilw1h22mf36ly,3,0,a28,7,7.0,1.0,2.146,1,1
8z10rlhd2moilw1h22mf36ly,4,0,a36,1,6.0,0.0,7.973,1,1
8z10rlhd2moilw1h22mf36ly,5,0,a43,4,3.0,0.0,9.506,1,1
8z10rlhd2moilw1h22mf36ly,6,0,a48,5,6.0,0.0,5.939,1,1
8z10rlhd2moilw1h22mf36ly,7,0,a49,6,6.0,1.0,3.017,1,1
8z10rlhd2moilw1h22mf36ly,8,0,a53,0,6.0,0.0,9.117,1,1
8z10rlhd2moilw1h22mf36ly,9,0,a55,1,6.0,0.0,4.117,1,1
934ruw09bctabi09u7vdlovq,1,0,a11,4,4.0,1.0,26.614,1,1
934ruw09bctabi09u7vdlovq,2,0,a24,4,4.0,1.0,25.796,1,1
934ruw09bctabi09u7vdlovq,3,0,a28,7,7.0,1.0,22.13,1,1
934ruw09bctabi09u7vdlovq,4,0,a36,1,2.0,0.0,14.928,1,1
934ruw09bctabi09u7vdlovq,5,0,a43,4,4.0,1.0,22.135,1,1
934ruw09bctabi09u7vdlovq,6,0,a48,5,5.0,1.0,26.217,1,1
934ruw09bctabi09u7vdlovq,7,0,a49,6,6.0,1.0,24.811,1,1
934ruw09bctabi09u7vdlovq,8,0,a53,0,0.0,1.0,25.505,1,1
934ruw09bctabi09u7vdlovq,9,0,a55,1,0.0,0.0,26.181,1,1
94eelp0pp8qqvw5m8idc2j4d,1,0,a11,4,2.0,0.0,13.694,1,1
94eelp0pp8qqvw5m8idc2j4d,2,0,a24,4,2.0,0.0,12.178,1,1
94eelp0pp8qqvw5m8idc2j4d,3,0,a28,7,3.0,0.0,11.042,1,1
94eelp0pp8qqvw5m8idc2j4d,4,0,a36,1,2.0,0.0,16.252,1,1
94eelp0pp8qqvw5m8idc2j4d,5,0,a43,4,7.0,0.0,13.801,1,1
94eelp0pp8qqvw5m8idc2j4d,6,0,a48,5,3.0,0.0,21.864,1,1
94eelp0pp8qqvw5m8idc2j4d,7,0,a49,6,6.0,1.0,9.274,1,1
94eelp0pp8qqvw5m8idc2j4d,8,0,a53,0,6.0,0.0,14.933,1,1
94eelp0pp8qqvw5m8idc2j4d,9,0,a55,1,3.0,0.0,10.808,1,1
9hsvszaomxjb0eoacd14b298,1,0,a11,4,4.0,1.0,4.208,1,1
9hsvszaomxjb0eoacd14b298,2,0,a24,4,5.0,0.0,2.53,1,1
9hsvszaomxjb0eoacd14b298,3,0,a28,7,2.0,0.0,5.496,1,1
9hsvszaomxjb0eoacd14b298,4,0,a36,1,3.0,0.0,4.862,1,1
9hsvszaomxjb0eoacd14b298,5,0,a43,4,4.0,1.0,8.3,1,1
9hsvszaomxjb0eoacd14b298,6,0,a48,5,7.0,0.0,10.383,1,1
9hsvszaomxjb0eoacd14b298,7,0,a49,6,6.0,1.0,8.912,1,1
9hsvszaomxjb0eoacd14b298,8,0,a53,0,0.0,1.0,5.912,1,1
9hsvszaomxjb0eoacd14b298,9,0,a55,1,3.0,0.0,10.322,1,1
9zo50uk19qyyqmp6yi39cefp,1,0,a11,4,0.0,0.0,9.597,1,1
9zo50uk19qyyqmp6yi39cefp,2,0,a24,4,4.0,1.0,10.226,1,1
9zo50uk19qyyqmp6yi39cefp,3,0,a28,7,7.0,1.0,10.117,1,1
9zo50uk19qyyqmp6yi39cefp,4,0,a36,1,2.0,0.0,9.816,1,1
9zo50uk19qyyqmp6yi39cefp,5,0,a43,4,4.0,1.0,14.423,1,1
9zo50uk19qyyqmp6yi39cefp,6,0,a48,5,,,,1,1
9zo50uk19qyyqmp6yi39cefp,7,0,a49,6,6.0,1.0,9.446,1,1
9zo50uk19qyyqmp6yi39cefp,8,0,a53,0,0.0,1.0,18.508,1,1
9zo50uk19qyyqmp6yi39cefp,9,0,a55,1,7.0,0.0,12.718,1,1
a32c519ucykm66nvssho0vl3,1,0,a11,4,4.0,1.0,6.166,1,1
a32c519ucykm66nvssho0vl3,2,0,a24,4,4.0,1.0,8.703,1,1
a32c519ucykm66nvssho0vl3,3,0,a28,7,7.0,1.0,4.742,1,1
a32c519ucykm66nvssho0vl3,4,0,a36,1,1.0,1.0,8.929,1,1
a32c519ucykm66nvssho0vl3,5,0,a43,4,4.0,1.0,9.665,1,1
a32c519ucykm66nvssho0vl3,6,0,a48,5,1.0,0.0,21.207,1,1
a32c519ucykm66nvssho0vl3,7,0,a49,6,6.0,1.0,5.259,1,1
a32c519ucykm66nvssho0vl3,8,0,a53,0,0.0,1.0,5.151,1,1
a32c519ucykm66nvssho0vl3,9,0,a55,1,2.0,0.0,25.838,1,1
aeq1yi8hv8fy7go18umdhp47,1,0,a11,4,4.0,1.0,5.462,1,1
aeq1yi8hv8fy7go18umdhp47,2,0,a24,4,3.0,0.0,7.773,1,1
aeq1yi8hv8fy7go18umdhp47,3,0,a28,7,7.0,1.0,16.935,1,1
aeq1yi8hv8fy7go18umdhp47,4,0,a36,1,0.0,0.0,23.791,1,1
aeq1yi8hv8fy7go18umdhp47,5,0,a43,4,1.0,0.0,16.533,1,1
aeq1yi8hv8fy7go18umdhp47,6,0,a48,5,3.0,0.0,29.133,1,1
aeq1yi8hv8fy7go18umdhp47,7,0,a49,6,6.0,1.0,6.008,1,1
aeq1yi8hv8fy7go18umdhp47,8,0,a53,0,6.0,0.0,18.097,1,1
aeq1yi8hv8fy7go18umdhp47,9,0,a55,1,3.0,0.0,11.15,1,1
afd7rd12x41eookteow1j5za,1,0,a11,4,4.0,1.0,8.413,1,1
afd7rd12x41eookteow1j5za,2,0,a24,4,4.0,1.0,9.668,1,1
afd7rd12x41eookteow1j5za,3,0,a28,7,3.0,0.0,8.023,1,1
afd7rd12x41eookteow1j5za,4,0,a36,1,2.0,0.0,9.018,1,1
afd7rd12x41eookteow1j5za,5,0,a43,4,4.0,1.0,8.253,1,1
afd7rd12x41eookteow1j5za,6,0,a48,5,7.0,0.0,18.43,1,1
afd7rd12x41eookteow1j5za,7,0,a49,6,6.0,1.0,7.008,1,1
afd7rd12x41eookteow1j5za,8,0,a53,0,0.0,1.0,10.343,1,1
afd7rd12x41eookteow1j5za,9,0,a55,1,1.0,1.0,20.914,1,1
afgea25b7gmlvxullrl8gzk0,1,0,a11,4,5.0,0.0,15.142,1,1
afgea25b7gmlvxullrl8gzk0,2,0,a24,4,5.0,0.0,9.343,1,1
afgea25b7gmlvxullrl8gzk0,3,0,a28,7,3.0,0.0,12.052,1,1
afgea25b7gmlvxullrl8gzk0,4,0,a36,1,2.0,0.0,15.682,1,1
afgea25b7gmlvxullrl8gzk0,5,0,a43,4,4.0,1.0,26.694,1,1
afgea25b7gmlvxullrl8gzk0,6,0,a48,5,7.0,0.0,20.613,1,1
afgea25b7gmlvxullrl8gzk0,7,0,a49,6,2.0,0.0,5.209,1,1
afgea25b7gmlvxullrl8gzk0,8,0,a53,0,0.0,1.0,11.247,1,1
afgea25b7gmlvxullrl8gzk0,9,0,a55,1,3.0,0.0,21.445,1,1
ahycnzw10njzehibn7ro90vk,1,0,a11,4,5.0,0.0,9.14,1,1
ahycnzw10njzehibn7ro90vk,2,0,a24,4,2.0,0.0,11.261,1,1
ahycnzw10njzehibn7ro90vk,3,0,a28,7,2.0,0.0,15.327,1,1
ahycnzw10njzehibn7ro90vk,4,0,a36,1,0.0,0.0,16.169,1,1
ahycnzw10njzehibn7ro90vk,5,0,a43,4,7.0,0.0,17.264,1,1
ahycnzw10njzehibn7ro90vk,6,0,a48,5,1.0,0.0,13.315,1,1
ahycnzw10njzehibn7ro90vk,7,0,a49,6,6.0,1.0,17.468,1,1
ahycnzw10njzehibn7ro90vk,8,0,a53,0,1.0,0.0,10.153,1,1
ahycnzw10njzehibn7ro90vk,9,0,a55,1,6.0,0.0,19.936,1,1
aii2v7bghwx8rk4qw6ympn6x,1,0,a11,4,4.0,1.0,20.205,1,1
aii2v7bghwx8rk4qw6ympn6x,2,0,a24,4,5.0,0.0,23.077,1,1
aii2v7bghwx8rk4qw6ympn6x,3,0,a28,7,7.0,1.0,20.561,1,1
aii2v7bghwx8rk4qw6ympn6x,4,0,a36,1,1.0,1.0,28.27,1,1
aii2v7bghwx8rk4qw6ympn6x,5,0,a43,4,7.0,0.0,19.715,1,1
aii2v7bghwx8rk4qw6ympn6x,6,0,a48,5,7.0,0.0,18.724,1,1
aii2v7bghwx8rk4qw6ympn6x,7,0,a49,6,6.0,1.0,7.615,1,1
aii2v7bghwx8rk4qw6ympn6x,8,0,a53,0,2.0,0.0,23.827,1,1
aii2v7bghwx8rk4qw6ympn6x,9,0,a55,1,6.0,0.0,16.736,1,1
ajsq17i968mo0zwikw0s5vem,1,0,a11,4,4.0,1.0,5.292,1,1
ajsq17i968mo0zwikw0s5vem,2,0,a24,4,4.0,1.0,6.788,1,1
ajsq17i968mo0zwikw0s5vem,3,0,a28,7,7.0,1.0,1.877,1,1
ajsq17i968mo0zwikw0s5vem,4,0,a36,1,1.0,1.0,15.265,1,1
ajsq17i968mo0zwikw0s5vem,5,0,a43,4,4.0,1.0,5.063,1,1
ajsq17i968mo0zwikw0s5vem,6,0,a48,5,4.0,0.0,20.995,1,1
ajsq17i968mo0zwikw0s5vem,7,0,a49,6,6.0,1.0,2.527,1,1
ajsq17i968mo0zwikw0s5vem,8,0,a53,0,0.0,1.0,11.743,1,1
ajsq17i968mo0zwikw0s5vem,9,0,a55,1,7.0,0.0,25.521,1,1
alz3tjqa0rrqp211jgtvxgh5,1,0,a11,4,0.0,0.0,5.853,1,1
alz3tjqa0rrqp211jgtvxgh5,2,0,a24,4,2.0,0.0,6.437,1,1
alz3tjqa0rrqp211jgtvxgh5,3,0,a28,7,7.0,1.0,11.978,1,1
alz3tjqa0rrqp211jgtvxgh5,4,0,a36,1,2.0,0.0,12.691,1,1
alz3tjqa0rrqp211jgtvxgh5,5,0,a43,4,7.0,0.0,11.766,1,1
alz3tjqa0rrqp211jgtvxgh5,6,0,a48,5,6.0,0.0,19.121,1,1
alz3tjqa0rrqp211jgtvxgh5,7,0,a49,6,2.0,0.0,13.225,1,1
alz3tjqa0rrqp211jgtvxgh5,8,0,a53,0,0.0,1.0,8.25,1,1
alz3tjqa0rrqp211jgtvxgh5,9,0,a55,1,1.0,1.0,22.942,1,1
an7g4j7tcmxxgj6pxm05030c,1,0,a11,4,4.0,1.0,7.788,1,1
an7g4j7tcmxxgj6pxm05030c,2,0,a24,4,3.0,0.0,9.514,1,1
an7g4j7tcmxxgj6pxm05030c,3,0,a28,7,7.0,1.0,7.857,1,1
an7g4j7tcmxxgj6pxm05030c,4,0,a36,1,2.0,0.0,27.994,1,1
an7g4j7tcmxxgj6pxm05030c,5,0,a43,4,2.0,0.0,15.554,1,1
an7g4j7tcmxxgj6pxm05030c,6,0,a48,5,3.0,0.0,11.499,1,1
an7g4j7tcmxxgj6pxm05030c,7,0,a49,6,0.0,0.0,5.898,1,1
an7g4j7tcmxxgj6pxm05030c,8,0,a53,0,6.0,0.0,12.059,1,1
an7g4j7tcmxxgj6pxm05030c,9,0,a55,1,6.0,0.0,10.922,1,1
aomby36yyzapoy9ebgwnr4al,1,0,a11,4,4.0,1.0,17.596,1,1
aomby36yyzapoy9ebgwnr4al,2,0,a24,4,4.0,1.0,20.119,1,1
aomby36yyzapoy9ebgwnr4al,3,0,a28,7,7.0,1.0,11.838,1,1
aomby36yyzapoy9ebgwnr4al,4,0,a36,1,5.0,0.0,15.35,1,1
aomby36yyzapoy9ebgwnr4al,5,0,a43,4,4.0,1.0,22.335,1,1
aomby36yyzapoy9ebgwnr4al,6,0,a48,5,5.0,1.0,8.892,1,1
aomby36yyzapoy9ebgwnr4al,7,0,a49,6,6.0,1.0,7.52,1,1
aomby36yyzapoy9ebgwnr4al,8,0,a53,0,0.0,1.0,9.666,1,1
aomby36yyzapoy9ebgwnr4al,9,0,a55,1,,,,1,1
aw258af9vtwq8t3au7y5qxbr,1,0,a11,4,5.0,0.0,9.019,1,1
aw258af9vtwq8t3au7y5qxbr,2,0,a24,4,2.0,0.0,16.621,1,1
aw258af9vtwq8t3au7y5qxbr,3,0,a28,7,3.0,0.0,11.61,1,1
aw258af9vtwq8t3au7y5qxbr,4,0,a36,1,2.0,0.0,15.537,1,1
aw258af9vtwq8t3au7y5qxbr,5,0,a43,4,7.0,0.0,12.315,1,1
aw258af9vtwq8t3au7y5qxbr,6,0,a48,5,1.0,0.0,11.78,1,1
aw258af9vtwq8t3au7y5qxbr,7,0,a49,6,6.0,1.0,13.05,1,1
aw258af9vtwq8t3au7y5qxbr,8,0,a53,0,6.0,0.0,8.117,1,1
aw258af9vtwq8t3au7y5qxbr,9,0,a55,1,6.0,0.0,11.595,1,1
awfny4s3uw5ezdbdwrnhcn60,1,0,a11,4,4.0,1.0,10.674,1,1
awfny4s3uw5ezdbdwrnhcn60,2,0,a24,4,4.0,1.0,13.97,1,1
awfny4s3uw5ezdbdwrnhcn60,3,0,a28,7,7.0,1.0,7.936,1,1
awfny4s3uw5ezdbdwrnhcn60,4,0,a36,1,1.0,1.0,12.016,1,1
awfny4s3uw5ezdbdwrnhcn60,5,0,a43,4,4.0,1.0,12.967,1,1
awfny4s3uw5ezdbdwrnhcn60,6,0,a48,5,5.0,1.0,18.372,1,1
awfny4s3uw5ezdbdwrnhcn60,7,0,a49,6,6.0,1.0,6.181,1,1
awfny4s3uw5ezdbdwrnhcn60,8,0,a53,0,0.0,1.0,7.829,1,1
awfny4s3uw5ezdbdwrnhcn60,9,0,a55,1,1.0,1.0,11.478,1,1
awx02s9vof2epln0wqoj4l78,1,0,a11,4,4.0,1.0,12.125,1,1
awx02s9vof2epln0wqoj4l78,2,0,a24,4,0.0,0.0,8.422,1,1
awx02s9vof2epln0wqoj4l78,3,0,a28,7,7.0,1.0,8.69,1,1
awx02s9vof2epln0wqoj4l78,4,0,a36,1,4.0,0.0,14.013,1,1
awx02s9vof2epln0wqoj4l78,5,0,a43,4,7.0,0.0,15.872,1,1
awx02s9vof2epln0wqoj4l78,6,0,a48,5,7.0,0.0,23.181,1,1
awx02s9vof2epln0wqoj4l78,7,0,a49,6,6.0,1.0,5.644,1,1
awx02s9vof2epln0wqoj4l78,8,0,a53,0,0.0,1.0,11.999,1,1
awx02s9vof2epln0wqoj4l78,9,0,a55,1,7.0,0.0,23.215,1,1
ax1tm9qbu1megp0e0ldo3syn,1,0,a11,4,4.0,1.0,21.082,1,1
ax1tm9qbu1megp0e0ldo3syn,2,0,a24,4,4.0,1.0,11.718,1,1
ax1tm9qbu1megp0e0ldo3syn,3,0,a28,7,2.0,0.0,24.939,1,1
ax1tm9qbu1megp0e0ldo3syn,4,0,a36,1,3.0,0.0,27.21,1,1
ax1tm9qbu1megp0e0ldo3syn,5,0,a43,4,4.0,1.0,15.752,1,1
ax1tm9qbu1megp0e0ldo3syn,6,0,a48,5,4.0,0.0,25.516,1,1
ax1tm9qbu1megp0e0ldo3syn,7,0,a49,6,6.0,1.0,12.929,1,1
ax1tm9qbu1megp0e0ldo3syn,8,0,a53,0,0.0,1.0,15.834,1,1
ax1tm9qbu1megp0e0ldo3syn,9,0,a55,1,3.0,0.0,16.001,1,1
b68nnjx1sm4gexhnm4a10rj5,1,0,a11,4,3.0,0.0,21.376,1,1
b68nnjx1sm4gexhnm4a10rj5,2,0,a24,4,4.0,1.0,11.77,1,1
b68nnjx1sm4gexhnm4a10rj5,3,0,a28,7,7.0,1.0,13.344,1,1
b68nnjx1sm4gexhnm4a10rj5,4,0,a36,1,4.0,0.0,23.581,1,1
b68nnjx1sm4gexhnm4a10rj5,5,0,a43,4,1.0,0.0,6.915,1,1
b68nnjx1sm4gexhnm4a10rj5,6,0,a48,5,3.0,0.0,20.973,1,1
b68nnjx1sm4gexhnm4a10rj5,7,0,a49,6,2.0,0.0,11.7,1,1
b68nnjx1sm4gexhnm4a10rj5,8,0,a53,0,6.0,0.0,5.889,1,1
b68nnjx1sm4gexhnm4a10rj5,9,0,a55,1,6.0,0.0,8.632,1,1
b6jr10qni8srzudm7sowcqvr,1,0,a11,4,4.0,1.0,10.526,1,1
b6jr10qni8srzudm7sowcqvr,2,0,a24,4,1.0,0.0,6.113,1,1
b6jr10qni8srzudm7sowcqvr,3,0,a28,7,7.0,1.0,10.86,1,1
b6jr10qni8srzudm7sowcqvr,4,0,a36,1,3.0,0.0,6.035,1,1
b6jr10qni8srzudm7sowcqvr,5,0,a43,4,3.0,0.0,14.561,1,1
b6jr10qni8srzudm7sowcqvr,6,0,a48,5,0.0,0.0,18.532,1,1
b6jr10qni8srzudm7sowcqvr,7,0,a49,6,6.0,1.0,17.084,1,1
b6jr10qni8srzudm7sowcqvr,8,0,a53,0,0.0,1.0,7.689,1,1
b6jr10qni8srzudm7sowcqvr,9,0,a55,1,2.0,0.0,17.727,1,1
b9i3t5h6w8h4t87mev7wkf60,1,0,a11,4,4.0,1.0,14.852,1,1
b9i3t5h6w8h4t87mev7wkf60,2,0,a24,4,4.0,1.0,13.603,1,1
b9i3t5h6w8h4t87mev7wkf60,3,0,a28,7,7.0,1.0,13.656,1,1
b9i3t5h6w8h4t87mev7wkf60,4,0,a36,1,3.0,0.0,8.598,1,1
b9i3t5h6w8h4t87mev7wkf60,5,0,a43,4,4.0,1.0,9.792,1,1
b9i3t5h6w8h4t87mev7wkf60,6,0,a48,5,7.0,0.0,17.371,1,1
b9i3t5h6w8h4t87mev7wkf60,7,0,a49,6,6.0,1.0,6.629,1,1
b9i3t5h6w8h4t87mev7wkf60,8,0,a53,0,0.0,1.0,5.287,1,1
b9i3t5h6w8h4t87mev7wkf60,9,0,a55,1,,,,1,1
baqqswpisi5wsieyq9vsb1gq,1,0,a11,4,4.0,1.0,5.58,1,1
baqqswpisi5wsieyq9vsb1gq,2,0,a24,4,4.0,1.0,8.985,1,1
baqqswpisi5wsieyq9vsb1gq,3,0,a28,7,7.0,1.0,4.713,1,1
baqqswpisi5wsieyq9vsb1gq,4,0,a36,1,1.0,1.0,8.171,1,1
baqqswpisi5wsieyq9vsb1gq,5,0,a43,4,4.0,1.0,9.22,1,1
baqqswpisi5wsieyq9vsb1gq,6,0,a48,5,7.0,0.0,23.189,1,1
baqqswpisi5wsieyq9vsb1gq,7,0,a49,6,6.0,1.0,5.256,1,1
baqqswpisi5wsieyq9vsb1gq,8,0,a53,0,0.0,1.0,12.63,1,1
baqqswpisi5wsieyq9vsb1gq,9,0,a55,1,7.0,0.0,20.078,1,1
bb2z7hz1upxzjfiuruz6smww,1,0,a11,4,4.0,1.0,14.416,1,1
bb2z7hz1upxzjfiuruz6smww,2,0,a24,4,4.0,1.0,7.388,1,1
bb2z7hz1upxzjfiuruz6smww,3,0,a28,7,7.0,1.0,10.158,1,1
bb2z7hz1upxzjfiuruz6smww,4,0,a36,1,2.0,0.0,8.512,1,1
bb2z7hz1upxzjfiuruz6smww,5,0,a43,4,4.0,1.0,10.137,1,1
bb2z7hz1upxzjfiuruz6smww,6,0,a48,5,7.0,0.0,28.981,1,1
bb2z7hz1upxzjfiuruz6smww,7,0,a49,6,2.0,0.0,5.723,1,1
bb2z7hz1upxzjfiuruz6smww,8,0,a53,0,0.0,1.0,5.207,1,1
bb2z7hz1upxzjfiuruz6smww,9,0,a55,1,2.0,0.0,11.51,1,1
bty7i1o6yhmgcqppi4ylusep,1,0,a11,4,4.0,1.0,5.443,1,1
bty7i1o6yhmgcqppi4ylusep,2,0,a24,4,4.0,1.0,9.659,1,1
bty7i1o6yhmgcqppi4ylusep,3,0,a28,7,0.0,0.0,15.276,1,1
bty7i1o6yhmgcqppi4ylusep,4,0,a36,1,2.0,0.0,11.518,1,1
bty7i1o6yhmgcqppi4ylusep,5,0,a43,4,4.0,1.0,17.071,1,1
bty7i1o6yhmgcqppi4ylusep,6,0,a48,5,6.0,0.0,19.72,1,1
bty7i1o6yhmgcqppi4ylusep,7,0,a49,6,6.0,1.0,10.566,1,1
bty7i1o6yhmgcqppi4ylusep,8,0,a53,0,6.0,0.0,9.245,1,1
bty7i1o6yhmgcqppi4ylusep,9,0,a55,1,3.0,0.0,12.157,1,1
bw27yfvy3uezhxazd68qex4g,1,0,a11,4,4.0,1.0,9.429,1,1
bw27yfvy3uezhxazd68qex4g,2,0,a24,4,4.0,1.0,5.364,1,1
bw27yfvy3uezhxazd68qex4g,3,0,a28,7,7.0,1.0,8.34,1,1
bw27yfvy3uezhxazd68qex4g,4,0,a36,1,0.0,0.0,21.668,1,1
bw27yfvy3uezhxazd68qex4g,5,0,a43,4,4.0,1.0,10.156,1,1
bw27yfvy3uezhxazd68qex4g,6,0,a48,5,4.0,0.0,26.869,1,1
bw27yfvy3uezhxazd68qex4g,7,0,a49,6,6.0,1.0,6.172,1,1
bw27yfvy3uezhxazd68qex4g,8,0,a53,0,0.0,1.0,6.788,1,1
bw27yfvy3uezhxazd68qex4g,9,0,a55,1,1.0,1.0,28.276,1,1
c1jv3qc7y6mj3wp75ff9zlk9,1,0,a11,4,4.0,1.0,11.054,1,1
c1jv3qc7y6mj3wp75ff9zlk9,2,0,a24,4,4.0,1.0,11.45,1,1
c1jv3qc7y6mj3wp75ff9zlk9,3,0,a28,7,7.0,1.0,13.143,1,1
c1jv3qc7y6mj3wp75ff9zlk9,4,0,a36,1,1.0,1.0,12.295,1,1
c1jv3qc7y6mj3wp75ff9zlk9,5,0,a43,4,4.0,1.0,11.978,1,1
c1jv3qc7y6mj3wp75ff9zlk9,6,0,a48,5,5.0,1.0,17.223,1,1
c1jv3qc7y6mj3wp75ff9zlk9,7,0,a49,6,6.0,1.0,6.804,1,1
c1jv3qc7y6mj3wp75ff9zlk9,8,0,a53,0,0.0,1.0,6.757,1,1
c1jv3qc7y6mj3wp75ff9zlk9,9,0,a55,1,5.0,0.0,14.14,1,1
c4o4f5g09r0v9i8zyr5j5rgc,1,0,a11,4,1.0,0.0,8.72,1,1
c4o4f5g09r0v9i8zyr5j5rgc,2,0,a24,4,4.0,1.0,3.887,1,1
c4o4f5g09r0v9i8zyr5j5rgc,3,0,a28,7,7.0,1.0,9.63,1,1
c4o4f5g09r0v9i8zyr5j5rgc,4,0,a36,1,2.0,0.0,4.39,1,1
c4o4f5g09r0v9i8zyr5j5rgc,5,0,a43,4,1.0,0.0,6.826,1,1
c4o4f5g09r0v9i8zyr5j5rgc,6,0,a48,5,6.0,0.0,14.276,1,1
c4o4f5g09r0v9i8zyr5j5rgc,7,0,a49,6,2.0,0.0,6.229,1,1
c4o4f5g09r0v9i8zyr5j5rgc,8,0,a53,0,0.0,1.0,3.861,1,1
c4o4f5g09r0v9i8zyr5j5rgc,9,0,a55,1,2.0,0.0,8.185,1,1
c7yvnh0gmttoa729ctftpcib,1,0,a11,4,5.0,0.0,9.855,1,1
c7yvnh0gmttoa729ctftpcib,2,0,a24,4,5.0,0.0,6.862,1,1
c7yvnh0gmttoa729ctftpcib,3,0,a28,7,3.0,0.0,20.87,1,1
c7yvnh0gmttoa729ctftpcib,4,0,a36,1,2.0,0.0,11.622,1,1
c7yvnh0gmttoa729ctftpcib,5,0,a43,4,1.0,0.0,15.516,1,1
c7yvnh0gmttoa729ctftpcib,6,0,a48,5,7.0,0.0,22.861,1,1
c7yvnh0gmttoa729ctftpcib,7,0,a49,6,6.0,1.0,13.335,1,1
c7yvnh0gmttoa729ctftpcib,8,0,a53,0,0.0,1.0,7.469,1,1
c7yvnh0gmttoa729ctftpcib,9,0,a55,1,6.0,0.0,22.235,1,1
cap01ux40n58mzg4ju8oeu18,1,0,a11,4,0.0,0.0,5.094,1,1
cap01ux40n58mzg4ju8oeu18,2,0,a24,4,3.0,0.0,6.216,1,1
cap01ux40n58mzg4ju8oeu18,3,0,a28,7,7.0,1.0,11.862,1,1
cap01ux40n58mzg4ju8oeu18,4,0,a36,1,5.0,0.0,10.747,1,1
cap01ux40n58mzg4ju8oeu18,5,0,a43,4,0.0,0.0,12.389,1,1
cap01ux40n58mzg4ju8oeu18,6,0,a48,5,4.0,0.0,14.924,1,1
cap01ux40n58mzg4ju8oeu18,7,0,a49,6,0.0,0.0,11.809,1,1
cap01ux40n58mzg4ju8oeu18,8,0,a53,0,6.0,0.0,6.9,1,1
cap01ux40n58mzg4ju8oeu18,9,0,a55,1,3.0,0.0,7.984,1,1
cqia3vauoedoih7xwb1gw2g3,1,0,a11,4,4.0,1.0,12.063,1,1
cqia3vauoedoih7xwb1gw2g3,2,0,a24,4,5.0,0.0,8.178,1,1
cqia3vauoedoih7xwb1gw2g3,3,0,a28,7,7.0,1.0,7.744,1,1
cqia3vauoedoih7xwb1gw2g3,4,0,a36,1,3.0,0.0,13.848,1,1
cqia3vauoedoih7xwb1gw2g3,5,0,a43,4,4.0,1.0,28.031,1,1
cqia3vauoedoih7xwb1gw2g3,6,0,a48,5,7.0,0.0,10.215,1,1
cqia3vauoedoih7xwb1gw2g3,7,0,a49,6,6.0,1.0,4.12,1,1
cqia3vauoedoih7xwb1gw2g3,8,0,a53,0,6.0,0.0,20.211,1,1
cqia3vauoedoih7xwb1gw2g3,9,0,a55,1,6.0,0.0,9.855,1,1
crqlzmexgooegvbpkzejrvx6,1,0,a11,4,4.0,1.0,13.592,1,1
crqlzmexgooegvbpkzejrvx6,2,0,a24,4,4.0,1.0,4.624,1,1
crqlzmexgooegvbpkzejrvx6,3,0,a28,7,7.0,1.0,9.222,1,1
crqlzmexgooegvbpkzejrvx6,4,0,a36,1,1.0,1.0,14.366,1,1
crqlzmexgooegvbpkzejrvx6,5,0,a43,4,4.0,1.0,22.934,1,1
crqlzmexgooegvbpkzejrvx6,6,0,a48,5,5.0,1.0,20.771,1,1
crqlzmexgooegvbpkzejrvx6,7,0,a49,6,6.0,1.0,8.221,1,1
crqlzmexgooegvbpkzejrvx6,8,0,a53,0,0.0,1.0,7.394,1,1
crqlzmexgooegvbpkzejrvx6,9,0,a55,1,2.0,0.0,26.774,1,1
da0q2ichxe1e8jbvszg1ejyt,1,0,a11,4,4.0,1.0,11.732,1,1
da0q2ichxe1e8jbvszg1ejyt,2,0,a24,4,4.0,1.0,8.196,1,1
da0q2ichxe1e8jbvszg1ejyt,3,0,a28,7,7.0,1.0,7.81,1,1
da0q2ichxe1e8jbvszg1ejyt,4,0,a36,1,2.0,0.0,15.941,1,1
da0q2ichxe1e8jbvszg1ejyt,5,0,a43,4,7.0,0.0,22.08,1,1
da0q2ichxe1e8jbvszg1ejyt,6,0,a48,5,6.0,0.0,18.58,1,1
da0q2ichxe1e8jbvszg1ejyt,7,0,a49,6,6.0,1.0,7.692,1,1
da0q2ichxe1e8jbvszg1ejyt,8,0,a53,0,6.0,0.0,12.441,1,1
da0q2ichxe1e8jbvszg1ejyt,9,0,a55,1,6.0,0.0,18.129,1,1
dfnabbnmc2pwmspwsfdq2xji,1,0,a11,4,4.0,1.0,5.873,1,1
dfnabbnmc2pwmspwsfdq2xji,2,0,a24,4,4.0,1.0,16.958,1,1
dfnabbnmc2pwmspwsfdq2xji,3,0,a28,7,7.0,1.0,7.159,1,1
dfnabbnmc2pwmspwsfdq2xji,4,0,a36,1,2.0,0.0,26.471,1,1
dfnabbnmc2pwmspwsfdq2xji,5,0,a43,4,1.0,0.0,16.072,1,1
dfnabbnmc2pwmspwsfdq2xji,6,0,a48,5,7.0,0.0,14.12,1,1
dfnabbnmc2pwmspwsfdq2xji,7,0,a49,6,6.0,1.0,6.625,1,1
dfnabbnmc2pwmspwsfdq2xji,8,0,a53,0,0.0,1.0,12.355,1,1
dfnabbnmc2pwmspwsfdq2xji,9,0,a55,1,2.0,0.0,20.882,1,1
dj781uuehgkxwwijo6tefwa8,1,0,a11,4,5.0,0.0,13.665,1,1
dj781uuehgkxwwijo6tefwa8,2,0,a24,4,5.0,0.0,11.559,1,1
dj781uuehgkxwwijo6tefwa8,3,0,a28,7,7.0,1.0,10.424,1,1
dj781uuehgkxwwijo6tefwa8,4,0,a36,1,1.0,1.0,17.432,1,1
dj781uuehgkxwwijo6tefwa8,5,0,a43,4,7.0,0.0,10.306,1,1
dj781uuehgkxwwijo6tefwa8,6,0,a48,5,7.0,0.0,9.621,1,1
dj781uuehgkxwwijo6tefwa8,7,0,a49,6,2.0,0.0,8.132,1,1
dj781uuehgkxwwijo6tefwa8,8,0,a53,0,6.0,0.0,12.774,1,1
dj781uuehgkxwwijo6tefwa8,9,0,a55,1,3.0,0.0,10.343,1,1
dspkx2xbh3cpx44c0v4qa6y0,1,0,a11,4,5.0,0.0,14.467,1,1
dspkx2xbh3cpx44c0v4qa6y0,2,0,a24,4,3.0,0.0,20.074,1,1
dspkx2xbh3cpx44c0v4qa6y0,3,0,a28,7,4.0,0.0,12.168,1,1
dspkx2xbh3cpx44c0v4qa6y0,4,0,a36,1,2.0,0.0,16.136,1,1
dspkx2xbh3cpx44c0v4qa6y0,5,0,a43,4,4.0,1.0,21.222,1,1
dspkx2xbh3cpx44c0v4qa6y0,6,0,a48,5,7.0,0.0,21.003,1,1
dspkx2xbh3cpx44c0v4qa6y0,7,0,a49,6,6.0,1.0,19.243,1,1
dspkx2xbh3cpx44c0v4qa6y0,8,0,a53,0,0.0,1.0,26.199,1,1
dspkx2xbh3cpx44c0v4qa6y0,9,0,a55,1,6.0,0.0,28.877,1,1
dvqj09fytin8iw59rk479cjz,1,0,a11,4,0.0,0.0,14.915,1,1
dvqj09fytin8iw59rk479cjz,2,0,a24,4,4.0,1.0,6.435,1,1
dvqj09fytin8iw59rk479cjz,3,0,a28,7,7.0,1.0,11.77,1,1
dvqj09fytin8iw59rk479cjz,4,0,a36,1,3.0,0.0,7.396,1,1
dvqj09fytin8iw59rk479cjz,5,0,a43,4,4.0,1.0,18.618,1,1
dvqj09fytin8iw59rk479cjz,6,0,a48,5,,,,1,1
dvqj09fytin8iw59rk479cjz,7,0,a49,6,6.0,1.0,4.813,1,1
dvqj09fytin8iw59rk479cjz,8,0,a53,0,0.0,1.0,11.828,1,1
dvqj09fytin8iw59rk479cjz,9,0,a55,1,,,,1,1
e1ii2tvy80pmaiow49crhru6,1,0,a11,4,4.0,1.0,5.925,1,1
e1ii2tvy80pmaiow49crhru6,2,0,a24,4,5.0,0.0,5.93,1,1
e1ii2tvy80pmaiow49crhru6,3,0,a28,7,7.0,1.0,7.448,1,1
e1ii2tvy80pmaiow49crhru6,4,0,a36,1,7.0,0.0,6.311,1,1
e1ii2tvy80pmaiow49crhru6,5,0,a43,4,0.0,0.0,5.02,1,1
e1ii2tvy80pmaiow49crhru6,6,0,a48,5,6.0,0.0,9.375,1,1
e1ii2tvy80pmaiow49crhru6,7,0,a49,6,3.0,0.0,8.074,1,1
e1ii2tvy80pmaiow49crhru6,8,0,a53,0,6.0,0.0,9.549,1,1
e1ii2tvy80pmaiow49crhru6,9,0,a55,1,6.0,0.0,7.454,1,1
e854ijbie24xoiq80up57hwv,1,0,a11,4,4.0,1.0,26.439,1,1
e854ijbie24xoiq80up57hwv,2,0,a24,4,2.0,0.0,29.517,1,1
e854ijbie24xoiq80up57hwv,3,0,a28,7,7.0,1.0,23.245,1,1
e854ijbie24xoiq80up57hwv,4,0,a36,1,2.0,0.0,27.54,1,1
e854ijbie24xoiq80up57hwv,5,0,a43,4,6.0,0.0,18.105,1,1
e854ijbie24xoiq80up57hwv,6,0,a48,5,2.0,0.0,13.181,1,1
e854ijbie24xoiq80up57hwv,7,0,a49,6,2.0,0.0,16.266,1,1
e854ijbie24xoiq80up57hwv,8,0,a53,0,1.0,0.0,7.86,1,1
e854ijbie24xoiq80up57hwv,9,0,a55,1,6.0,0.0,5.456,1,1
ec5r53g62hrnaa02i89x2ccw,1,0,a11,4,0.0,0.0,6.413,1,1
ec5r53g62hrnaa02i89x2ccw,2,0,a24,4,4.0,1.0,5.967,1,1
ec5r53g62hrnaa02i89x2ccw,3,0,a28,7,7.0,1.0,4.551,1,1
ec5r53g62hrnaa02i89x2ccw,4,0,a36,1,2.0,0.0,10.978,1,1
ec5r53g62hrnaa02i89x2ccw,5,0,a43,4,7.0,0.0,9.753,1,1
ec5r53g62hrnaa02i89x2ccw,6,0,a48,5,6.0,0.0,9.069,1,1
ec5r53g62hrnaa02i89x2ccw,7,0,a49,6,6.0,1.0,7.376,1,1
ec5r53g62hrnaa02i89x2ccw,8,0,a53,0,0.0,1.0,10.515,1,1
ec5r53g62hrnaa02i89x2ccw,9,0,a55,1,5.0,0.0,13.833,1,1
ecbe5olpesrei31k79vx5wtk,1,0,a11,4,1.0,0.0,9.364,1,1
ecbe5olpesrei31k79vx5wtk,2,0,a24,4,0.0,0.0,8.608,1,1
ecbe5olpesrei31k79vx5wtk,3,0,a28,7,0.0,0.0,9.21,1,1
ecbe5olpesrei31k79vx5wtk,4,0,a36,1,4.0,0.0,17.711,1,1
ecbe5olpesrei31k79vx5wtk,5,0,a43,4,7.0,0.0,13.867,1,1
ecbe5olpesrei31k79vx5wtk,6,0,a48,5,3.0,0.0,7.966,1,1
ecbe5olpesrei31k79vx5wtk,7,0,a49,6,2.0,0.0,10.799,1,1
ecbe5olpesrei31k79vx5wtk,8,0,a53,0,5.0,0.0,7.749,1,1
ecbe5olpesrei31k79vx5wtk,9,0,a55,1,2.0,0.0,14.256,1,1
eklkvb3drfoma5wi1gdwqgov,1,0,a11,4,5.0,0.0,3.485,1,1
eklkvb3drfoma5wi1gdwqgov,2,0,a24,4,4.0,1.0,6.54,1,1
eklkvb3drfoma5wi1gdwqgov,3,0,a28,7,7.0,1.0,7.725,1,1
eklkvb3drfoma5wi1gdwqgov,4,0,a36,1,1.0,1.0,9.14,1,1
eklkvb3drfoma5wi1gdwqgov,5,0,a43,4,4.0,1.0,9.85,1,1
eklkvb3drfoma5wi1gdwqgov,6,0,a48,5,6.0,0.0,8.132,1,1
eklkvb3drfoma5wi1gdwqgov,7,0,a49,6,6.0,1.0,4.139,1,1
eklkvb3drfoma5wi1gdwqgov,8,0,a53,0,0.0,1.0,7.03,1,1
eklkvb3drfoma5wi1gdwqgov,9,0,a55,1,4.0,0.0,18.044,1,1
eo3m497004l7zuguau5ft7do,1,0,a11,4,1.0,0.0,11.413,1,1
eo3m497004l7zuguau5ft7do,2,0,a24,4,4.0,1.0,8.732,1,1
eo3m497004l7zuguau5ft7do,3,0,a28,7,7.0,1.0,18.713,1,1
eo3m497004l7zuguau5ft7do,4,0,a36,1,2.0,0.0,22.723,1,1
eo3m497004l7zuguau5ft7do,5,0,a43,4,,,,1,1
eo3m497004l7zuguau5ft7do,6,0,a48,5,3.0,0.0,19.682,1,1
eo3m497004l7zuguau5ft7do,7,0,a49,6,6.0,1.0,6.356,1,1
eo3m497004l7zuguau5ft7do,8,0,a53,0,0.0,1.0,12.665,1,1
eo3m497004l7zuguau5ft7do,9,0,a55,1,5.0,0.0,15.026,1,1
et8t9h2087q5gscpy8jjgtjg,1,0,a11,4,4.0,1.0,9.446,1,1
et8t9h2087q5gscpy8jjgtjg,2,0,a24,4,4.0,1.0,10.815,1,1
et8t9h2087q5gscpy8jjgtjg,3,0,a28,7,7.0,1.0,5.261,1,1
et8t9h2087q5gscpy8jjgtjg,4,0,a36,1,1.0,1.0,14.77,1,1
et8t9h2087q5gscpy8jjgtjg,5,0,a43,4,0.0,0.0,20.056,1,1
et8t9h2087q5gscpy8jjgtjg,6,0,a48,5,7.0,0.0,16.61,1,1
et8t9h2087q5gscpy8jjgtjg,7,0,a49,6,6.0,1.0,5.317,1,1
et8t9h2087q5gscpy8jjgtjg,8,0,a53,0,0.0,1.0,6.797,1,1
et8t9h2087q5gscpy8jjgtjg,9,0,a55,1,2.0,0.0,17.537,1,1
ez84xfqt36vnp0lus2x7sgbq,1,0,a11,4,3.0,0.0,1.994,1,1
ez84xfqt36vnp0lus2x7sgbq,2,0,a24,4,0.0,0.0,0.295,1,1
ez84xfqt36vnp0lus2x7sgbq,3,0,a28,7,1.0,0.0,4.314,1,1
ez84xfqt36vnp0lus2x7sgbq,4,0,a36,1,7.0,0.0,0.078,1,1
ez84xfqt36vnp0lus2x7sgbq,5,0,a43,4,7.0,0.0,2.485,1,1
ez84xfqt36vnp0lus2x7sgbq,6,0,a48,5,4.0,0.0,2.908,1,1
ez84xfqt36vnp0lus2x7sgbq,7,0,a49,6,4.0,0.0,0.727,1,1
ez84xfqt36vnp0lus2x7sgbq,8,0,a53,0,0.0,1.0,2.311,1,1
ez84xfqt36vnp0lus2x7sgbq,9,0,a55,1,6.0,0.0,1.243,1,1
ez86kdk75ukxurlokymeh8sg,1,0,a11,4,4.0,1.0,10.742,1,1
ez86kdk75ukxurlokymeh8sg,2,0,a24,4,4.0,1.0,11.638,1,1
ez86kdk75ukxurlokymeh8sg,3,0,a28,7,3.0,0.0,10.675,1,1
ez86kdk75ukxurlokymeh8sg,4,0,a36,1,1.0,1.0,15.615,1,1
ez86kdk75ukxurlokymeh8sg,5,0,a43,4,4.0,1.0,10.11,1,1
ez86kdk75ukxurlokymeh8sg,6,0,a48,5,7.0,0.0,17.226,1,1
ez86kdk75ukxurlokymeh8sg,7,0,a49,6,6.0,1.0,5.31,1,1
ez86kdk75ukxurlokymeh8sg,8,0,a53,0,0.0,1.0,8.109,1,1
ez86kdk75ukxurlokymeh8sg,9,0,a55,1,1.0,1.0,17.099,1,1
ezf5yq8gp3ua51ebt2gl9sxc,1,0,a11,4,0.0,0.0,28.438,1,1
ezf5yq8gp3ua51ebt2gl9sxc,2,0,a24,4,4.0,1.0,20.543,1,1
ezf5yq8gp3ua51ebt2gl9sxc,3,0,a28,7,7.0,1.0,9.425,1,1
ezf5yq8gp3ua51ebt2gl9sxc,4,0,a36,1,2.0,0.0,14.106,1,1
ezf5yq8gp3ua51ebt2gl9sxc,5,0,a43,4,,,,1,1
ezf5yq8gp3ua51ebt2gl9sxc,6,0,a48,5,3.0,0.0,29.15,1,1
ezf5yq8gp3ua51ebt2gl9sxc,7,0,a49,6,6.0,1.0,14.214,1,1
ezf5yq8gp3ua51ebt2gl9sxc,8,0,a53,0,0.0,1.0,11.747,1,1
ezf5yq8gp3ua51ebt2gl9sxc,9,0,a55,1,5.0,0.0,16.932,1,1
f6s09vbxixvtd25z9f2ix8qr,1,0,a11,4,4.0,1.0,21.23,1,1
f6s09vbxixvtd25z9f2ix8qr,2,0,a24,4,4.0,1.0,13.734,1,1
f6s09vbxixvtd25z9f2ix8qr,3,0,a28,7,7.0,1.0,7.741,1,1
f6s09vbxixvtd25z9f2ix8qr,4,0,a36,1,,,,1,1
f6s09vbxixvtd25z9f2ix8qr,5,0,a43,4,4.0,1.0,14.761,1,1
f6s09vbxixvtd25z9f2ix8qr,6,0,a48,5,0.0,0.0,10.981,1,1
f6s09vbxixvtd25z9f2ix8qr,7,0,a49,6,6.0,1.0,6.615,1,1
f6s09vbxixvtd25z9f2ix8qr,8,0,a53,0,0.0,1.0,12.791,1,1
f6s09vbxixvtd25z9f2ix8qr,9,0,a55,1,7.0,0.0,23.738,1,1
fb0rytq3buebezn7ffbmn8v2,1,0,a11,4,0.0,0.0,10.048,1,1
fb0rytq3buebezn7ffbmn8v2,2,0,a24,4,3.0,0.0,17.873,1,1
fb0rytq3buebezn7ffbmn8v2,3,0,a28,7,7.0,1.0,11.536,1,1
fb0rytq3buebezn7ffbmn8v2,4,0,a36,1,4.0,0.0,13.508,1,1
fb0rytq3buebezn7ffbmn8v2,5,0,a43,4,2.0,0.0,9.371,1,1
fb0rytq3buebezn7ffbmn8v2,6,0,a48,5,6.0,0.0,5.729,1,1
fb0rytq3buebezn7ffbmn8v2,7,0,a49,6,6.0,1.0,10.144,1,1
fb0rytq3buebezn7ffbmn8v2,8,0,a53,0,3.0,0.0,9.128,1,1
fb0rytq3buebezn7ffbmn8v2,9,0,a55,1,7.0,0.0,2.894,1,1
fb67m4brmkxwrdg4lpfjinvl,1,0,a11,4,4.0,1.0,9.08,1,1
fb67m4brmkxwrdg4lpfjinvl,2,0,a24,4,4.0,1.0,8.319,1,1
fb67m4brmkxwrdg4lpfjinvl,3,0,a28,7,3.0,0.0,15.302,1,1
fb67m4brmkxwrdg4lpfjinvl,4,0,a36,1,2.0,0.0,18.097,1,1
fb67m4brmkxwrdg4lpfjinvl,5,0,a43,4,4.0,1.0,11.551,1,1
fb67m4brmkxwrdg4lpfjinvl,6,0,a48,5,7.0,0.0,16.735,1,1
fb67m4brmkxwrdg4lpfjinvl,7,0,a49,6,6.0,1.0,11.497,1,1
fb67m4brmkxwrdg4lpfjinvl,8,0,a53,0,0.0,1.0,3.633,1,1
fb67m4brmkxwrdg4lpfjinvl,9,0,a55,1,0.0,0.0,14.961,1,1
fblalqm8ekbn86ek9ucawcw5,1,0,a11,4,2.0,0.0,11.476,1,1
fblalqm8ekbn86ek9ucawcw5,2,0,a24,4,4.0,1.0,15.369,1,1
fblalqm8ekbn86ek9ucawcw5,3,0,a28,7,7.0,1.0,17.909,1,1
fblalqm8ekbn86ek9ucawcw5,4,0,a36,1,5.0,0.0,23.677,1,1
fblalqm8ekbn86ek9ucawcw5,5,0,a43,4,7.0,0.0,28.698,1,1
fblalqm8ekbn86ek9ucawcw5,6,0,a48,5,6.0,0.0,15.72,1,1
fblalqm8ekbn86ek9ucawcw5,7,0,a49,6,6.0,1.0,10.974,1,1
fblalqm8ekbn86ek9ucawcw5,8,0,a53,0,6.0,0.0,10.354,1,1
fblalqm8ekbn86ek9ucawcw5,9,0,a55,1,3.0,0.0,6.346,1,1
filpish9ql35jh6pt5v7nh2u,1,0,a11,4,4.0,1.0,16.508,1,1
filpish9ql35jh6pt5v7nh2u,2,0,a24,4,4.0,1.0,19.994,1,1
filpish9ql35jh6pt5v7nh2u,3,0,a28,7,7.0,1.0,27.007,1,1
filpish9ql35jh6pt5v7nh2u,4,0,a36,1,2.0,0.0,25.632,1,1
filpish9ql35jh6pt5v7nh2u,5,0,a43,4,4.0,1.0,27.676,1,1
filpish9ql35jh6pt5v7nh2u,6,0,a48,5,6.0,0.0,20.646,1,1
filpish9ql35jh6pt5v7nh2u,7,0,a49,6,6.0,1.0,14.268,1,1
filpish9ql35jh6pt5v7nh2u,8,0,a53,0,3.0,0.0,27.816,1,1
filpish9ql35jh6pt5v7nh2u,9,0,a55,1,6.0,0.0,18.13,1,1
fishivz7s7flxyz0uwcmal8f,1,0,a11,4,5.0,0.0,5.142,1,1
fishivz7s7flxyz0uwcmal8f,2,0,a24,4,4.0,1.0,5.896,1,1
fishivz7s7flxyz0uwcmal8f,3,0,a28,7,7.0,1.0,10.478,1,1
fishivz7s7flxyz0uwcmal8f,4,0,a36,1,3.0,0.0,15.362,1,1
fishivz7s7flxyz0uwcmal8f,5,0,a43,4,4.0,1.0,17.128,1,1
fishivz7s7flxyz0uwcmal8f,6,0,a48,5,5.0,1.0,21.598,1,1
fishivz7s7flxyz0uwcmal8f,7,0,a49,6,6.0,1.0,10.497,1,1
fishivz7s7flxyz0uwcmal8f,8,0,a53,0,0.0,1.0,12.781,1,1
fishivz7s7flxyz0uwcmal8f,9,0,a55,1,0.0,0.0,16.947,1,1
fl19rbidmu7i2bc6zc102jxr,1,0,a11,4,4.0,1.0,28.209,1,1
fl19rbidmu7i2bc6zc102jxr,2,0,a24,4,5.0,0.0,28.029,1,1
fl19rbidmu7i2bc6zc102jxr,3,0,a28,7,7.0,1.0,16.331,1,1
fl19rbidmu7i2bc6zc102jxr,4,0,a36,1,2.0,0.0,27.144,1,1
fl19rbidmu7i2bc6zc102jxr,5,0,a43,4,4.0,1.0,12.915,1,1
fl19rbidmu7i2bc6zc102jxr,6,0,a48,5,6.0,0.0,21.634,1,1
fl19rbidmu7i2bc6zc102jxr,7,0,a49,6,6.0,1.0,10.798,1,1
fl19rbidmu7i2bc6zc102jxr,8,0,a53,0,2.0,0.0,19.375,1,1
fl19rbidmu7i2bc6zc102jxr,9,0,a55,1,,,,1,1
fms3gph3mlhwri13ufyejpqr,1,0,a11,4,5.0,0.0,12.625,1,1
fms3gph3mlhwri13ufyejpqr,2,0,a24,4,2.0,0.0,20.706,1,1
fms3gph3mlhwri13ufyejpqr,3,0,a28,7,7.0,1.0,7.073,1,1
fms3gph3mlhwri13ufyejpqr,4,0,a36,1,2.0,0.0,8.927,1,1
fms3gph3mlhwri13ufyejpqr,5,0,a43,4,2.0,0.0,14.243,1,1
fms3gph3mlhwri13ufyejpqr,6,0,a48,5,1.0,0.0,14.059,1,1
fms3gph3mlhwri13ufyejpqr,7,0,a49,6,0.0,0.0,4.574,1,1
fms3gph3mlhwri13ufyejpqr,8,0,a53,0,6.0,0.0,4.729,1,1
fms3gph3mlhwri13ufyejpqr,9,0,a55,1,4.0,0.0,6.526,1,1
fnngm53jwkjmg05cp77iz5dq,1,0,a11,4,5.0,0.0,12.582,1,1
fnngm53jwkjmg05cp77iz5dq,2,0,a24,4,0.0,0.0,14.481,1,1
fnngm53jwkjmg05cp77iz5dq,3,0,a28,7,7.0,1.0,15.179,1,1
fnngm53jwkjmg05cp77iz5dq,4,0,a36,1,2.0,0.0,11.632,1,1
fnngm53jwkjmg05cp77iz5dq,5,0,a43,4,4.0,1.0,23.313,1,1
fnngm53jwkjmg05cp77iz5dq,6,0,a48,5,,,,1,1
fnngm53jwkjmg05cp77iz5dq,7,0,a49,6,6.0,1.0,8.641,1,1
fnngm53jwkjmg05cp77iz5dq,8,0,a53,0,3.0,0.0,10.695,1,1
fnngm53jwkjmg05cp77iz5dq,9,0,a55,1,0.0,0.0,9.105,1,1
g1e5yc160807oo8razz7wngf,1,0,a11,4,5.0,0.0,6.193,1,1
g1e5yc160807oo8razz7wngf,2,0,a24,4,4.0,1.0,10.919,1,1
g1e5yc160807oo8razz7wngf,3,0,a28,7,2.0,0.0,12.325,1,1
g1e5yc160807oo8razz7wngf,4,0,a36,1,2.0,0.0,15.631,1,1
g1e5yc160807oo8razz7wngf,5,0,a43,4,3.0,0.0,22.404,1,1
g1e5yc160807oo8razz7wngf,6,0,a48,5,3.0,0.0,19.056,1,1
g1e5yc160807oo8razz7wngf,7,0,a49,6,6.0,1.0,22.615,1,1
g1e5yc160807oo8razz7wngf,8,0,a53,0,1.0,0.0,22.376,1,1
g1e5yc160807oo8razz7wngf,9,0,a55,1,,,,1,1
g1v1o71frqbqlxwp6go5909e,1,0,a11,4,4.0,1.0,24.353,1,1
g1v1o71frqbqlxwp6go5909e,2,0,a24,4,4.0,1.0,5.959,1,1
g1v1o71frqbqlxwp6go5909e,3,0,a28,7,3.0,0.0,8.385,1,1
g1v1o71frqbqlxwp6go5909e,4,0,a36,1,,,,1,1
g1v1o71frqbqlxwp6go5909e,5,0,a43,4,3.0,0.0,19.146,1,1
g1v1o71frqbqlxwp6go5909e,6,0,a48,5,3.0,0.0,28.293,1,1
g1v1o71frqbqlxwp6go5909e,7,0,a49,6,2.0,0.0,13.366,1,1
g1v1o71frqbqlxwp6go5909e,8,0,a53,0,0.0,1.0,7.9,1,1
g1v1o71frqbqlxwp6go5909e,9,0,a55,1,,,,1,1
g2aowwr4299elpmv3fgi6d2b,1,0,a11,4,4.0,1.0,15.59,1,1
g2aowwr4299elpmv3fgi6d2b,2,0,a24,4,4.0,1.0,15.569,1,1
g2aowwr4299elpmv3fgi6d2b,3,0,a28,7,7.0,1.0,8.063,1,1
g2aowwr4299elpmv3fgi6d2b,4,0,a36,1,1.0,1.0,23.038,1,1
g2aowwr4299elpmv3fgi6d2b,5,0,a43,4,1.0,0.0,29.462,1,1
g2aowwr4299elpmv3fgi6d2b,6,0,a48,5,5.0,1.0,29.061,1,1
g2aowwr4299elpmv3fgi6d2b,7,0,a49,6,6.0,1.0,11.227,1,1
g2aowwr4299elpmv3fgi6d2b,8,0,a53,0,0.0,1.0,27.824,1,1
g2aowwr4299elpmv3fgi6d2b,9,0,a55,1,1.0,1.0,22.787,1,1
g3098a94zjxdtggnmmuezzzg,1,0,a11,4,5.0,0.0,7.476,1,1
g3098a94zjxdtggnmmuezzzg,2,0,a24,4,4.0,1.0,8.395,1,1
g3098a94zjxdtggnmmuezzzg,3,0,a28,7,2.0,0.0,7.994,1,1
g3098a94zjxdtggnmmuezzzg,4,0,a36,1,1.0,1.0,22.376,1,1
g3098a94zjxdtggnmmuezzzg,5,0,a43,4,7.0,0.0,12.774,1,1
g3098a94zjxdtggnmmuezzzg,6,0,a48,5,6.0,0.0,13.011,1,1
g3098a94zjxdtggnmmuezzzg,7,0,a49,6,6.0,1.0,4.932,1,1
g3098a94zjxdtggnmmuezzzg,8,0,a53,0,0.0,1.0,5.893,1,1
g3098a94zjxdtggnmmuezzzg,9,0,a55,1,6.0,0.0,11.447,1,1
g5rrtq9xjudp4qjpnfoyqjap,1,0,a11,4,5.0,0.0,6.139,1,1
g5rrtq9xjudp4qjpnfoyqjap,2,0,a24,4,4.0,1.0,12.837,1,1
g5rrtq9xjudp4qjpnfoyqjap,3,0,a28,7,3.0,0.0,26.85,1,1
g5rrtq9xjudp4qjpnfoyqjap,4,0,a36,1,2.0,0.0,21.371,1,1
g5rrtq9xjudp4qjpnfoyqjap,5,0,a43,4,4.0,1.0,16.517,1,1
g5rrtq9xjudp4qjpnfoyqjap,6,0,a48,5,0.0,0.0,12.501,1,1
g5rrtq9xjudp4qjpnfoyqjap,7,0,a49,6,4.0,0.0,20.001,1,1
g5rrtq9xjudp4qjpnfoyqjap,8,0,a53,0,6.0,0.0,28.108,1,1
g5rrtq9xjudp4qjpnfoyqjap,9,0,a55,1,3.0,0.0,10.09,1,1
gaj1uv7txy96f5wag76g6ha2,1,0,a11,4,5.0,0.0,14.49,1,1
gaj1uv7txy96f5wag76g6ha2,2,0,a24,4,4.0,1.0,9.978,1,1
gaj1uv7txy96f5wag76g6ha2,3,0,a28,7,2.0,0.0,15.677,1,1
gaj1uv7txy96f5wag76g6ha2,4,0,a36,1,2.0,0.0,17.112,1,1
gaj1uv7txy96f5wag76g6ha2,5,0,a43,4,4.0,1.0,13.647,1,1
gaj1uv7txy96f5wag76g6ha2,6,0,a48,5,6.0,0.0,12.334,1,1
gaj1uv7txy96f5wag76g6ha2,7,0,a49,6,6.0,1.0,12.484,1,1
gaj1uv7txy96f5wag76g6ha2,8,0,a53,0,6.0,0.0,10.958,1,1
gaj1uv7txy96f5wag76g6ha2,9,0,a55,1,6.0,0.0,11.885,1,1
gc2bs8b4oz65jpgdoz8i39yc,1,0,a11,4,4.0,1.0,16.027,1,1
gc2bs8b4oz65jpgdoz8i39yc,2,0,a24,4,4.0,1.0,10.326,1,1
gc2bs8b4oz65jpgdoz8i39yc,3,0,a28,7,7.0,1.0,8.535,1,1
gc2bs8b4oz65jpgdoz8i39yc,4,0,a36,1,1.0,1.0,17.568,1,1
gc2bs8b4oz65jpgdoz8i39yc,5,0,a43,4,4.0,1.0,20.878,1,1
gc2bs8b4oz65jpgdoz8i39yc,6,0,a48,5,1.0,0.0,19.676,1,1
gc2bs8b4oz65jpgdoz8i39yc,7,0,a49,6,6.0,1.0,7.707,1,1
gc2bs8b4oz65jpgdoz8i39yc,8,0,a53,0,0.0,1.0,11.496,1,1
gc2bs8b4oz65jpgdoz8i39yc,9,0,a55,1,1.0,1.0,20.05,1,1
gc3ak2zjimpdgnnfdh05d0gp,1,0,a11,4,0.0,0.0,13.274,1,1
gc3ak2zjimpdgnnfdh05d0gp,2,0,a24,4,3.0,0.0,20.776,1,1
gc3ak2zjimpdgnnfdh05d0gp,3,0,a28,7,7.0,1.0,11.835,1,1
gc3ak2zjimpdgnnfdh05d0gp,4,0,a36,1,5.0,0.0,18.691,1,1
gc3ak2zjimpdgnnfdh05d0gp,5,0,a43,4,4.0,1.0,7.951,1,1
gc3ak2zjimpdgnnfdh05d0gp,6,0,a48,5,4.0,0.0,18.774,1,1
gc3ak2zjimpdgnnfdh05d0gp,7,0,a49,6,6.0,1.0,11.498,1,1
gc3ak2zjimpdgnnfdh05d0gp,8,0,a53,0,0.0,1.0,9.7,1,1
gc3ak2zjimpdgnnfdh05d0gp,9,0,a55,1,5.0,0.0,28.8,1,1
gciy1qegljqbjgihgoar4mhd,1,0,a11,4,0.0,0.0,11.559,1,1
gciy1qegljqbjgihgoar4mhd,2,0,a24,4,3.0,0.0,13.345,1,1
gciy1qegljqbjgihgoar4mhd,3,0,a28,7,7.0,1.0,14.22,1,1
gciy1qegljqbjgihgoar4mhd,4,0,a36,1,3.0,0.0,11.72,1,1
gciy1qegljqbjgihgoar4mhd,5,0,a43,4,4.0,1.0,13.322,1,1
gciy1qegljqbjgihgoar4mhd,6,0,a48,5,3.0,0.0,18.042,1,1
gciy1qegljqbjgihgoar4mhd,7,0,a49,6,6.0,1.0,9.281,1,1
gciy1qegljqbjgihgoar4mhd,8,0,a53,0,5.0,0.0,17.693,1,1
gciy1qegljqbjgihgoar4mhd,9,0,a55,1,6.0,0.0,14.629,1,1
gf4q6erbz729401c5hhfj0av,1,0,a11,4,4.0,1.0,14.074,1,1
gf4q6erbz729401c5hhfj0av,2,0,a24,4,4.0,1.0,17.84,1,1
gf4q6erbz729401c5hhfj0av,3,0,a28,7,7.0,1.0,18.478,1,1
gf4q6erbz729401c5hhfj0av,4,0,a36,1,2.0,0.0,13.864,1,1
gf4q6erbz729401c5hhfj0av,5,0,a43,4,4.0,1.0,18.095,1,1
gf4q6erbz729401c5hhfj0av,6,0,a48,5,,,,1,1
gf4q6erbz729401c5hhfj0av,7,0,a49,6,6.0,1.0,11.823,1,1
gf4q6erbz729401c5hhfj0av,8,0,a53,0,,,,1,1
gf4q6erbz729401c5hhfj0av,9,0,a55,1,6.0,0.0,12.446,1,1
ggyvrvi3bbqb169jgykznz8a,1,0,a11,4,5.0,0.0,10.913,1,1
ggyvrvi3bbqb169jgykznz8a,2,0,a24,4,4.0,1.0,8.86,1,1
ggyvrvi3bbqb169jgykznz8a,3,0,a28,7,7.0,1.0,11.554,1,1
ggyvrvi3bbqb169jgykznz8a,4,0,a36,1,1.0,1.0,19.642,1,1
ggyvrvi3bbqb169jgykznz8a,5,0,a43,4,4.0,1.0,15.784,1,1
ggyvrvi3bbqb169jgykznz8a,6,0,a48,5,3.0,0.0,17.319,1,1
ggyvrvi3bbqb169jgykznz8a,7,0,a49,6,6.0,1.0,11.78,1,1
ggyvrvi3bbqb169jgykznz8a,8,0,a53,0,0.0,1.0,9.795,1,1
ggyvrvi3bbqb169jgykznz8a,9,0,a55,1,1.0,1.0,20.688,1,1
gly4jkoqlz0kq4b8u68j5qpk,1,0,a11,4,4.0,1.0,17.629,1,1
gly4jkoqlz0kq4b8u68j5qpk,2,0,a24,4,4.0,1.0,13.605,1,1
gly4jkoqlz0kq4b8u68j5qpk,3,0,a28,7,7.0,1.0,10.182,1,1
gly4jkoqlz0kq4b8u68j5qpk,4,0,a36,1,1.0,1.0,28.734,1,1
gly4jkoqlz0kq4b8u68j5qpk,5,0,a43,4,4.0,1.0,20.829,1,1
gly4jkoqlz0kq4b8u68j5qpk,6,0,a48,5,5.0,1.0,25.465,1,1
gly4jkoqlz0kq4b8u68j5qpk,7,0,a49,6,6.0,1.0,9.541,1,1
gly4jkoqlz0kq4b8u68j5qpk,8,0,a53,0,0.0,1.0,23.166,1,1
gly4jkoqlz0kq4b8u68j5qpk,9,0,a55,1,1.0,1.0,26.862,1,1
gmmw6xrz7y5ci4sf0m49cj6m,1,0,a11,4,4.0,1.0,8.478,1,1
gmmw6xrz7y5ci4sf0m49cj6m,2,0,a24,4,4.0,1.0,6.115,1,1
gmmw6xrz7y5ci4sf0m49cj6m,3,0,a28,7,7.0,1.0,7.348,1,1
gmmw6xrz7y5ci4sf0m49cj6m,4,0,a36,1,2.0,0.0,15.091,1,1
gmmw6xrz7y5ci4sf0m49cj6m,5,0,a43,4,4.0,1.0,13.743,1,1
gmmw6xrz7y5ci4sf0m49cj6m,6,0,a48,5,4.0,0.0,16.415,1,1
gmmw6xrz7y5ci4sf0m49cj6m,7,0,a49,6,6.0,1.0,6.466,1,1
gmmw6xrz7y5ci4sf0m49cj6m,8,0,a53,0,6.0,0.0,11.038,1,1
gmmw6xrz7y5ci4sf0m49cj6m,9,0,a55,1,2.0,0.0,18.765,1,1
grbb8sgf9emi9ptt4i6y7tuc,1,0,a11,4,0.0,0.0,9.289,1,1
grbb8sgf9emi9ptt4i6y7tuc,2,0,a24,4,4.0,1.0,20.24,1,1
grbb8sgf9emi9ptt4i6y7tuc,3,0,a28,7,7.0,1.0,17.338,1,1
grbb8sgf9emi9ptt4i6y7tuc,4,0,a36,1,2.0,0.0,25.35,1,1
grbb8sgf9emi9ptt4i6y7tuc,5,0,a43,4,4.0,1.0,20.864,1,1
grbb8sgf9emi9ptt4i6y7tuc,6,0,a48,5,3.0,0.0,20.777,1,1
grbb8sgf9emi9ptt4i6y7tuc,7,0,a49,6,6.0,1.0,10.318,1,1
grbb8sgf9emi9ptt4i6y7tuc,8,0,a53,0,0.0,1.0,9.565,1,1
grbb8sgf9emi9ptt4i6y7tuc,9,0,a55,1,1.0,1.0,28.743,1,1
gv6ko6refc5ib2xws47nro3t,1,0,a11,4,4.0,1.0,16.897,1,1
gv6ko6refc5ib2xws47nro3t,2,0,a24,4,4.0,1.0,25.456,1,1
gv6ko6refc5ib2xws47nro3t,3,0,a28,7,7.0,1.0,13.574,1,1
gv6ko6refc5ib2xws47nro3t,4,0,a36,1,2.0,0.0,21.263,1,1
gv6ko6refc5ib2xws47nro3t,5,0,a43,4,4.0,1.0,17.503,1,1
gv6ko6refc5ib2xws47nro3t,6,0,a48,5,7.0,0.0,22.872,1,1
gv6ko6refc5ib2xws47nro3t,7,0,a49,6,6.0,1.0,8.206,1,1
gv6ko6refc5ib2xws47nro3t,8,0,a53,0,0.0,1.0,8.87,1,1
gv6ko6refc5ib2xws47nro3t,9,0,a55,1,5.0,0.0,16.294,1,1
gv7gzt63bmwg5ysb80d31kvu,1,0,a11,4,4.0,1.0,14.152,1,1
gv7gzt63bmwg5ysb80d31kvu,2,0,a24,4,4.0,1.0,13.624,1,1
gv7gzt63bmwg5ysb80d31kvu,3,0,a28,7,7.0,1.0,7.209,1,1
gv7gzt63bmwg5ysb80d31kvu,4,0,a36,1,3.0,0.0,16.464,1,1
gv7gzt63bmwg5ysb80d31kvu,5,0,a43,4,,,,1,1
gv7gzt63bmwg5ysb80d31kvu,6,0,a48,5,6.0,0.0,27.617,1,1
gv7gzt63bmwg5ysb80d31kvu,7,0,a49,6,3.0,0.0,25.916,1,1
gv7gzt63bmwg5ysb80d31kvu,8,0,a53,0,0.0,1.0,21.207,1,1
gv7gzt63bmwg5ysb80d31kvu,9,0,a55,1,6.0,0.0,26.464,1,1
gv9w2zk5m944frokuu1h1c9e,1,0,a11,4,3.0,0.0,7.518,1,1
gv9w2zk5m944frokuu1h1c9e,2,0,a24,4,4.0,1.0,24.425,1,1
gv9w2zk5m944frokuu1h1c9e,3,0,a28,7,7.0,1.0,12.934,1,1
gv9w2zk5m944frokuu1h1c9e,4,0,a36,1,5.0,0.0,14.005,1,1
gv9w2zk5m944frokuu1h1c9e,5,0,a43,4,4.0,1.0,13.395,1,1
gv9w2zk5m944frokuu1h1c9e,6,0,a48,5,7.0,0.0,19.115,1,1
gv9w2zk5m944frokuu1h1c9e,7,0,a49,6,6.0,1.0,19.288,1,1
gv9w2zk5m944frokuu1h1c9e,8,0,a53,0,0.0,1.0,15.161,1,1
gv9w2zk5m944frokuu1h1c9e,9,0,a55,1,7.0,0.0,21.726,1,1
gwzoucgynhdyvrjmwqijabfk,1,0,a11,4,4.0,1.0,9.548,1,1
gwzoucgynhdyvrjmwqijabfk,2,0,a24,4,4.0,1.0,6.585,1,1
gwzoucgynhdyvrjmwqijabfk,3,0,a28,7,7.0,1.0,9.13,1,1
gwzoucgynhdyvrjmwqijabfk,4,0,a36,1,1.0,1.0,10.986,1,1
gwzoucgynhdyvrjmwqijabfk,5,0,a43,4,4.0,1.0,15.572,1,1
gwzoucgynhdyvrjmwqijabfk,6,0,a48,5,6.0,0.0,17.126,1,1
gwzoucgynhdyvrjmwqijabfk,7,0,a49,6,6.0,1.0,9.117,1,1
gwzoucgynhdyvrjmwqijabfk,8,0,a53,0,0.0,1.0,10.225,1,1
gwzoucgynhdyvrjmwqijabfk,9,0,a55,1,2.0,0.0,26.106,1,1
gxgzl5qie9j9u9oilewjvj4b,1,0,a11,4,4.0,1.0,28.385,1,1
gxgzl5qie9j9u9oilewjvj4b,2,0,a24,4,4.0,1.0,12.185,1,1
gxgzl5qie9j9u9oilewjvj4b,3,0,a28,7,7.0,1.0,14.37,1,1
gxgzl5qie9j9u9oilewjvj4b,4,0,a36,1,7.0,0.0,29.442,1,1
gxgzl5qie9j9u9oilewjvj4b,5,0,a43,4,2.0,0.0,19.04,1,1
gxgzl5qie9j9u9oilewjvj4b,6,0,a48,5,,,,1,1
gxgzl5qie9j9u9oilewjvj4b,7,0,a49,6,6.0,1.0,10.919,1,1
gxgzl5qie9j9u9oilewjvj4b,8,0,a53,0,6.0,0.0,26.597,1,1
gxgzl5qie9j9u9oilewjvj4b,9,0,a55,1,7.0,0.0,25.173,1,1
h00g4wj4ncwtytcsji1pqz6x,1,0,a11,4,5.0,0.0,22.47,1,1
h00g4wj4ncwtytcsji1pqz6x,2,0,a24,4,4.0,1.0,10.452,1,1
h00g4wj4ncwtytcsji1pqz6x,3,0,a28,7,7.0,1.0,11.42,1,1
h00g4wj4ncwtytcsji1pqz6x,4,0,a36,1,2.0,0.0,17.414,1,1
h00g4wj4ncwtytcsji1pqz6x,5,0,a43,4,4.0,1.0,16.266,1,1
h00g4wj4ncwtytcsji1pqz6x,6,0,a48,5,3.0,0.0,29.618,1,1
h00g4wj4ncwtytcsji1pqz6x,7,0,a49,6,6.0,1.0,11.114,1,1
h00g4wj4ncwtytcsji1pqz6x,8,0,a53,0,0.0,1.0,7.546,1,1
h00g4wj4ncwtytcsji1pqz6x,9,0,a55,1,2.0,0.0,17.799,1,1
h22aja3akugvsmidkp2dtftu,1,0,a11,4,4.0,1.0,18.511,1,1
h22aja3akugvsmidkp2dtftu,2,0,a24,4,4.0,1.0,10.075,1,1
h22aja3akugvsmidkp2dtftu,3,0,a28,7,7.0,1.0,9.139,1,1
h22aja3akugvsmidkp2dtftu,4,0,a36,1,2.0,0.0,15.302,1,1
h22aja3akugvsmidkp2dtftu,5,0,a43,4,1.0,0.0,8.25,1,1
h22aja3akugvsmidkp2dtftu,6,0,a48,5,1.0,0.0,5.763,1,1
h22aja3akugvsmidkp2dtftu,7,0,a49,6,2.0,0.0,4.316,1,1
h22aja3akugvsmidkp2dtftu,8,0,a53,0,0.0,1.0,5.067,1,1
h22aja3akugvsmidkp2dtftu,9,0,a55,1,5.0,0.0,11.507,1,1
h5jhdu1ff2ot0tin33bri246,1,0,a11,4,3.0,0.0,17.434,1,1
h5jhdu1ff2ot0tin33bri246,2,0,a24,4,1.0,0.0,17.034,1,1
h5jhdu1ff2ot0tin33bri246,3,0,a28,7,1.0,0.0,12.975,1,1
h5jhdu1ff2ot0tin33bri246,4,0,a36,1,2.0,0.0,17.835,1,1
h5jhdu1ff2ot0tin33bri246,5,0,a43,4,4.0,1.0,24.756,1,1
h5jhdu1ff2ot0tin33bri246,6,0,a48,5,1.0,0.0,18.324,1,1
h5jhdu1ff2ot0tin33bri246,7,0,a49,6,4.0,0.0,14.849,1,1
h5jhdu1ff2ot0tin33bri246,8,0,a53,0,3.0,0.0,8.442,1,1
h5jhdu1ff2ot0tin33bri246,9,0,a55,1,3.0,0.0,23.442,1,1
h6bidx3zegdoyzi5sxb1d5k7,1,0,a11,4,4.0,1.0,16.099,1,1
h6bidx3zegdoyzi5sxb1d5k7,2,0,a24,4,4.0,1.0,16.238,1,1
h6bidx3zegdoyzi5sxb1d5k7,3,0,a28,7,7.0,1.0,10.113,1,1
h6bidx3zegdoyzi5sxb1d5k7,4,0,a36,1,2.0,0.0,13.562,1,1
h6bidx3zegdoyzi5sxb1d5k7,5,0,a43,4,1.0,0.0,17.26,1,1
h6bidx3zegdoyzi5sxb1d5k7,6,0,a48,5,7.0,0.0,21.696,1,1
h6bidx3zegdoyzi5sxb1d5k7,7,0,a49,6,6.0,1.0,10.004,1,1
h6bidx3zegdoyzi5sxb1d5k7,8,0,a53,0,0.0,1.0,7.098,1,1
h6bidx3zegdoyzi5sxb1d5k7,9,0,a55,1,5.0,0.0,21.604,1,1
h7rw0a4yfvjsklgix7vl48tm,1,0,a11,4,0.0,0.0,3.708,1,1
h7rw0a4yfvjsklgix7vl48tm,2,0,a24,4,4.0,1.0,6.734,1,1
h7rw0a4yfvjsklgix7vl48tm,3,0,a28,7,7.0,1.0,5.251,1,1
h7rw0a4yfvjsklgix7vl48tm,4,0,a36,1,0.0,0.0,7.716,1,1
h7rw0a4yfvjsklgix7vl48tm,5,0,a43,4,4.0,1.0,8.964,1,1
h7rw0a4yfvjsklgix7vl48tm,6,0,a48,5,1.0,0.0,11.514,1,1
h7rw0a4yfvjsklgix7vl48tm,7,0,a49,6,2.0,0.0,7.5,1,1
h7rw0a4yfvjsklgix7vl48tm,8,0,a53,0,0.0,1.0,6.212,1,1
h7rw0a4yfvjsklgix7vl48tm,9,0,a55,1,3.0,0.0,7.722,1,1
h99mtl5clp3limd912h6nngb,1,0,a11,4,4.0,1.0,17.543,1,1
h99mtl5clp3limd912h6nngb,2,0,a24,4,0.0,0.0,4.659,1,1
h99mtl5clp3limd912h6nngb,3,0,a28,7,7.0,1.0,10.893,1,1
h99mtl5clp3limd912h6nngb,4,0,a36,1,7.0,0.0,2.263,1,1
h99mtl5clp3limd912h6nngb,5,0,a43,4,3.0,0.0,10.957,1,1
h99mtl5clp3limd912h6nngb,6,0,a48,5,6.0,0.0,9.494,1,1
h99mtl5clp3limd912h6nngb,7,0,a49,6,5.0,0.0,6.899,1,1
h99mtl5clp3limd912h6nngb,8,0,a53,0,0.0,1.0,6.769,1,1
h99mtl5clp3limd912h6nngb,9,0,a55,1,2.0,0.0,11.198,1,1
haznhjmmxqn1xlucpw8dkk1r,1,0,a11,4,4.0,1.0,13.972,1,1
haznhjmmxqn1xlucpw8dkk1r,2,0,a24,4,3.0,0.0,11.611,1,1
haznhjmmxqn1xlucpw8dkk1r,3,0,a28,7,3.0,0.0,17.662,1,1
haznhjmmxqn1xlucpw8dkk1r,4,0,a36,1,2.0,0.0,19.542,1,1
haznhjmmxqn1xlucpw8dkk1r,5,0,a43,4,4.0,1.0,19.346,1,1
haznhjmmxqn1xlucpw8dkk1r,6,0,a48,5,6.0,0.0,13.8,1,1
haznhjmmxqn1xlucpw8dkk1r,7,0,a49,6,6.0,1.0,10.565,1,1
haznhjmmxqn1xlucpw8dkk1r,8,0,a53,0,0.0,1.0,22.175,1,1
haznhjmmxqn1xlucpw8dkk1r,9,0,a55,1,2.0,0.0,22.29,1,1
hc0j2vlj96l2wd0hnwehbixe,1,0,a11,4,4.0,1.0,9.79,1,1
hc0j2vlj96l2wd0hnwehbixe,2,0,a24,4,4.0,1.0,8.914,1,1
hc0j2vlj96l2wd0hnwehbixe,3,0,a28,7,7.0,1.0,18.27,1,1
hc0j2vlj96l2wd0hnwehbixe,4,0,a36,1,2.0,0.0,13.325,1,1
hc0j2vlj96l2wd0hnwehbixe,5,0,a43,4,4.0,1.0,17.807,1,1
hc0j2vlj96l2wd0hnwehbixe,6,0,a48,5,7.0,0.0,18.555,1,1
hc0j2vlj96l2wd0hnwehbixe,7,0,a49,6,6.0,1.0,10.587,1,1
hc0j2vlj96l2wd0hnwehbixe,8,0,a53,0,0.0,1.0,10.416,1,1
hc0j2vlj96l2wd0hnwehbixe,9,0,a55,1,5.0,0.0,27.688,1,1
hgsx72ijykyf39piyzftbk7q,1,0,a11,4,4.0,1.0,24.539,1,1
hgsx72ijykyf39piyzftbk7q,2,0,a24,4,4.0,1.0,16.332,1,1
hgsx72ijykyf39piyzftbk7q,3,0,a28,7,7.0,1.0,10.953,1,1
hgsx72ijykyf39piyzftbk7q,4,0,a36,1,2.0,0.0,17.352,1,1
hgsx72ijykyf39piyzftbk7q,5,0,a43,4,4.0,1.0,26.939,1,1
hgsx72ijykyf39piyzftbk7q,6,0,a48,5,0.0,0.0,19.659,1,1
hgsx72ijykyf39piyzftbk7q,7,0,a49,6,2.0,0.0,9.044,1,1
hgsx72ijykyf39piyzftbk7q,8,0,a53,0,0.0,1.0,11.438,1,1
hgsx72ijykyf39piyzftbk7q,9,0,a55,1,,,,1,1
hjb7kmo4kl85hemfxaglbfl1,1,0,a11,4,4.0,1.0,12.536,1,1
hjb7kmo4kl85hemfxaglbfl1,2,0,a24,4,5.0,0.0,14.663,1,1
hjb7kmo4kl85hemfxaglbfl1,3,0,a28,7,7.0,1.0,15.178,1,1
hjb7kmo4kl85hemfxaglbfl1,4,0,a36,1,4.0,0.0,27.813,1,1
hjb7kmo4kl85hemfxaglbfl1,5,0,a43,4,4.0,1.0,17.589,1,1
hjb7kmo4kl85hemfxaglbfl1,6,0,a48,5,7.0,0.0,23.72,1,1
hjb7kmo4kl85hemfxaglbfl1,7,0,a49,6,6.0,1.0,9.944,1,1
hjb7kmo4kl85hemfxaglbfl1,8,0,a53,0,5.0,0.0,13.511,1,1
hjb7kmo4kl85hemfxaglbfl1,9,0,a55,1,2.0,0.0,24.247,1,1
hm4qoss3qm7y3uidxvglvlqu,1,0,a11,4,4.0,1.0,12.632,1,1
hm4qoss3qm7y3uidxvglvlqu,2,0,a24,4,4.0,1.0,27.572,1,1
hm4qoss3qm7y3uidxvglvlqu,3,0,a28,7,7.0,1.0,5.58,1,1
hm4qoss3qm7y3uidxvglvlqu,4,0,a36,1,1.0,1.0,28.578,1,1
hm4qoss3qm7y3uidxvglvlqu,5,0,a43,4,4.0,1.0,8.103,1,1
hm4qoss3qm7y3uidxvglvlqu,6,0,a48,5,5.0,1.0,17.018,1,1
hm4qoss3qm7y3uidxvglvlqu,7,0,a49,6,6.0,1.0,5.947,1,1
hm4qoss3qm7y3uidxvglvlqu,8,0,a53,0,0.0,1.0,5.198,1,1
hm4qoss3qm7y3uidxvglvlqu,9,0,a55,1,5.0,0.0,10.612,1,1
hpngt9k8gi5q4p6b5elevwrq,1,0,a11,4,0.0,0.0,12.426,1,1
hpngt9k8gi5q4p6b5elevwrq,2,0,a24,4,3.0,0.0,18.538,1,1
hpngt9k8gi5q4p6b5elevwrq,3,0,a28,7,7.0,1.0,13.851,1,1
hpngt9k8gi5q4p6b5elevwrq,4,0,a36,1,1.0,1.0,17.204,1,1
hpngt9k8gi5q4p6b5elevwrq,5,0,a43,4,4.0,1.0,20.927,1,1
hpngt9k8gi5q4p6b5elevwrq,6,0,a48,5,4.0,0.0,17.772,1,1
hpngt9k8gi5q4p6b5elevwrq,7,0,a49,6,6.0,1.0,5.882,1,1
hpngt9k8gi5q4p6b5elevwrq,8,0,a53,0,0.0,1.0,6.776,1,1
hpngt9k8gi5q4p6b5elevwrq,9,0,a55,1,,,,1,1
htwrg7tobxmg598uk9pecjth,1,0,a11,4,4.0,1.0,8.291,1,1
htwrg7tobxmg598uk9pecjth,2,0,a24,4,4.0,1.0,8.275,1,1
htwrg7tobxmg598uk9pecjth,3,0,a28,7,7.0,1.0,8.758,1,1
htwrg7tobxmg598uk9pecjth,4,0,a36,1,3.0,0.0,25.714,1,1
htwrg7tobxmg598uk9pecjth,5,0,a43,4,4.0,1.0,15.769,1,1
htwrg7tobxmg598uk9pecjth,6,0,a48,5,6.0,0.0,23.624,1,1
htwrg7tobxmg598uk9pecjth,7,0,a49,6,6.0,1.0,6.26,1,1
htwrg7tobxmg598uk9pecjth,8,0,a53,0,0.0,1.0,13.363,1,1
htwrg7tobxmg598uk9pecjth,9,0,a55,1,0.0,0.0,21.984,1,1
i3tv4mxnss4w9am9026zyk89,1,0,a11,4,0.0,0.0,10.12,1,1
i3tv4mxnss4w9am9026zyk89,2,0,a24,4,4.0,1.0,10.033,1,1
i3tv4mxnss4w9am9026zyk89,3,0,a28,7,3.0,0.0,9.705,1,1
i3tv4mxnss4w9am9026zyk89,4,0,a36,1,4.0,0.0,11.082,1,1
i3tv4mxnss4w9am9026zyk89,5,0,a43,4,7.0,0.0,8.929,1,1
i3tv4mxnss4w9am9026zyk89,6,0,a48,5,6.0,0.0,9.665,1,1
i3tv4mxnss4w9am9026zyk89,7,0,a49,6,3.0,0.0,6.311,1,1
i3tv4mxnss4w9am9026zyk89,8,0,a53,0,2.0,0.0,6.934,1,1
i3tv4mxnss4w9am9026zyk89,9,0,a55,1,7.0,0.0,10.149,1,1
i4i2br8uz4iehgrz2igp3mkm,1,0,a11,4,4.0,1.0,7.429,1,1
i4i2br8uz4iehgrz2igp3mkm,2,0,a24,4,4.0,1.0,14.745,1,1
i4i2br8uz4iehgrz2igp3mkm,3,0,a28,7,7.0,1.0,4.542,1,1
i4i2br8uz4iehgrz2igp3mkm,4,0,a36,1,,,,1,1
i4i2br8uz4iehgrz2igp3mkm,5,0,a43,4,,,,1,1
i4i2br8uz4iehgrz2igp3mkm,6,0,a48,5,3.0,0.0,17.926,1,1
i4i2br8uz4iehgrz2igp3mkm,7,0,a49,6,2.0,0.0,2.017,1,1
i4i2br8uz4iehgrz2igp3mkm,8,0,a53,0,5.0,0.0,6.149,1,1
i4i2br8uz4iehgrz2igp3mkm,9,0,a55,1,5.0,0.0,3.492,1,1
igqe3pjen3kvr9spbnlll1vf,1,0,a11,4,5.0,0.0,4.134,1,1
igqe3pjen3kvr9spbnlll1vf,2,0,a24,4,5.0,0.0,4.543,1,1
igqe3pjen3kvr9spbnlll1vf,3,0,a28,7,7.0,1.0,2.091,1,1
igqe3pjen3kvr9spbnlll1vf,4,0,a36,1,2.0,0.0,3.22,1,1
igqe3pjen3kvr9spbnlll1vf,5,0,a43,4,2.0,0.0,5.069,1,1
igqe3pjen3kvr9spbnlll1vf,6,0,a48,5,4.0,0.0,2.524,1,1
igqe3pjen3kvr9spbnlll1vf,7,0,a49,6,2.0,0.0,3.223,1,1
igqe3pjen3kvr9spbnlll1vf,8,0,a53,0,1.0,0.0,2.746,1,1
igqe3pjen3kvr9spbnlll1vf,9,0,a55,1,6.0,0.0,3.058,1,1
ikvgkcgq9ef8hw0yq7cyv7c7,1,0,a11,4,5.0,0.0,6.692,1,1
ikvgkcgq9ef8hw0yq7cyv7c7,2,0,a24,4,3.0,0.0,8.712,1,1
ikvgkcgq9ef8hw0yq7cyv7c7,3,0,a28,7,7.0,1.0,4.837,1,1
ikvgkcgq9ef8hw0yq7cyv7c7,4,0,a36,1,1.0,1.0,3.998,1,1
ikvgkcgq9ef8hw0yq7cyv7c7,5,0,a43,4,4.0,1.0,3.741,1,1
ikvgkcgq9ef8hw0yq7cyv7c7,6,0,a48,5,7.0,0.0,6.569,1,1
ikvgkcgq9ef8hw0yq7cyv7c7,7,0,a49,6,0.0,0.0,2.436,1,1
ikvgkcgq9ef8hw0yq7cyv7c7,8,0,a53,0,6.0,0.0,3.23,1,1
ikvgkcgq9ef8hw0yq7cyv7c7,9,0,a55,1,3.0,0.0,2.47,1,1
ilj0bmqvrwcltvh7pay8rk81,1,0,a11,4,5.0,0.0,5.263,1,1
ilj0bmqvrwcltvh7pay8rk81,2,0,a24,4,5.0,0.0,4.691,1,1
ilj0bmqvrwcltvh7pay8rk81,3,0,a28,7,6.0,0.0,19.457,1,1
ilj0bmqvrwcltvh7pay8rk81,4,0,a36,1,1.0,1.0,6.994,1,1
ilj0bmqvrwcltvh7pay8rk81,5,0,a43,4,4.0,1.0,4.882,1,1
ilj0bmqvrwcltvh7pay8rk81,6,0,a48,5,3.0,0.0,5.802,1,1
ilj0bmqvrwcltvh7pay8rk81,7,0,a49,6,2.0,0.0,5.842,1,1
ilj0bmqvrwcltvh7pay8rk81,8,0,a53,0,3.0,0.0,5.851,1,1
ilj0bmqvrwcltvh7pay8rk81,9,0,a55,1,7.0,0.0,5.01,1,1
im4arqymfru7xtcy9atdvih9,1,0,a11,4,5.0,0.0,6.084,1,1
im4arqymfru7xtcy9atdvih9,2,0,a24,4,4.0,1.0,9.61,1,1
im4arqymfru7xtcy9atdvih9,3,0,a28,7,7.0,1.0,6.399,1,1
im4arqymfru7xtcy9atdvih9,4,0,a36,1,2.0,0.0,11.702,1,1
im4arqymfru7xtcy9atdvih9,5,0,a43,4,4.0,1.0,10.387,1,1
im4arqymfru7xtcy9atdvih9,6,0,a48,5,7.0,0.0,10.352,1,1
im4arqymfru7xtcy9atdvih9,7,0,a49,6,6.0,1.0,12.43,1,1
im4arqymfru7xtcy9atdvih9,8,0,a53,0,0.0,1.0,9.961,1,1
im4arqymfru7xtcy9atdvih9,9,0,a55,1,6.0,0.0,17.997,1,1
ipol3ev4ysztpajt8e1aro7z,1,0,a11,4,0.0,0.0,8.793,1,1
ipol3ev4ysztpajt8e1aro7z,2,0,a24,4,4.0,1.0,9.332,1,1
ipol3ev4ysztpajt8e1aro7z,3,0,a28,7,7.0,1.0,7.458,1,1
ipol3ev4ysztpajt8e1aro7z,4,0,a36,1,1.0,1.0,25.593,1,1
ipol3ev4ysztpajt8e1aro7z,5,0,a43,4,4.0,1.0,14.299,1,1
ipol3ev4ysztpajt8e1aro7z,6,0,a48,5,3.0,0.0,11.263,1,1
ipol3ev4ysztpajt8e1aro7z,7,0,a49,6,6.0,1.0,9.156,1,1
ipol3ev4ysztpajt8e1aro7z,8,0,a53,0,5.0,0.0,29.746,1,1
ipol3ev4ysztpajt8e1aro7z,9,0,a55,1,6.0,0.0,5.02,1,1
j7nudmrhh8jr3vmuiv13cits,1,0,a11,4,4.0,1.0,25.062,1,1
j7nudmrhh8jr3vmuiv13cits,2,0,a24,4,4.0,1.0,29.194,1,1
j7nudmrhh8jr3vmuiv13cits,3,0,a28,7,7.0,1.0,6.267,1,1
j7nudmrhh8jr3vmuiv13cits,4,0,a36,1,1.0,1.0,18.007,1,1
j7nudmrhh8jr3vmuiv13cits,5,0,a43,4,4.0,1.0,26.139,1,1
j7nudmrhh8jr3vmuiv13cits,6,0,a48,5,3.0,0.0,19.766,1,1
j7nudmrhh8jr3vmuiv13cits,7,0,a49,6,6.0,1.0,10.282,1,1
j7nudmrhh8jr3vmuiv13cits,8,0,a53,0,0.0,1.0,15.563,1,1
j7nudmrhh8jr3vmuiv13cits,9,0,a55,1,,,,1,1
j8blkaltm7cas4xw4p2u0hqj,1,0,a11,4,4.0,1.0,17.26,1,1
j8blkaltm7cas4xw4p2u0hqj,2,0,a24,4,4.0,1.0,18.248,1,1
j8blkaltm7cas4xw4p2u0hqj,3,0,a28,7,7.0,1.0,20.353,1,1
j8blkaltm7cas4xw4p2u0hqj,4,0,a36,1,1.0,1.0,23.937,1,1
j8blkaltm7cas4xw4p2u0hqj,5,0,a43,4,,,,1,1
j8blkaltm7cas4xw4p2u0hqj,6,0,a48,5,6.0,0.0,27.474,1,1
j8blkaltm7cas4xw4p2u0hqj,7,0,a49,6,6.0,1.0,16.247,1,1
j8blkaltm7cas4xw4p2u0hqj,8,0,a53,0,0.0,1.0,10.715,1,1
j8blkaltm7cas4xw4p2u0hqj,9,0,a55,1,7.0,0.0,29.054,1,1
j9lhbfelj1evzv86x3mwa7dh,1,0,a11,4,4.0,1.0,6.876,1,1
j9lhbfelj1evzv86x3mwa7dh,2,0,a24,4,4.0,1.0,7.324,1,1
j9lhbfelj1evzv86x3mwa7dh,3,0,a28,7,7.0,1.0,8.082,1,1
j9lhbfelj1evzv86x3mwa7dh,4,0,a36,1,0.0,0.0,24.396,1,1
j9lhbfelj1evzv86x3mwa7dh,5,0,a43,4,4.0,1.0,9.136,1,1
j9lhbfelj1evzv86x3mwa7dh,6,0,a48,5,4.0,0.0,11.084,1,1
j9lhbfelj1evzv86x3mwa7dh,7,0,a49,6,6.0,1.0,5.032,1,1
j9lhbfelj1evzv86x3mwa7dh,8,0,a53,0,0.0,1.0,9.985,1,1
j9lhbfelj1evzv86x3mwa7dh,9,0,a55,1,1.0,1.0,13.537,1,1
jc00osz129fet9u08nzxr9ju,1,0,a11,4,4.0,1.0,19.924,1,1
jc00osz129fet9u08nzxr9ju,2,0,a24,4,4.0,1.0,6.173,1,1
jc00osz129fet9u08nzxr9ju,3,0,a28,7,7.0,1.0,3.78,1,1
jc00osz129fet9u08nzxr9ju,4,0,a36,1,1.0,1.0,13.91,1,1
jc00osz129fet9u08nzxr9ju,5,0,a43,4,4.0,1.0,5.871,1,1
jc00osz129fet9u08nzxr9ju,6,0,a48,5,5.0,1.0,5.725,1,1
jc00osz129fet9u08nzxr9ju,7,0,a49,6,6.0,1.0,7.909,1,1
jc00osz129fet9u08nzxr9ju,8,0,a53,0,0.0,1.0,2.183,1,1
jc00osz129fet9u08nzxr9ju,9,0,a55,1,5.0,0.0,10.788,1,1
jdwb6guky3ejuz9m57drf580,1,0,a11,4,4.0,1.0,16.807,1,1
jdwb6guky3ejuz9m57drf580,2,0,a24,4,4.0,1.0,20.013,1,1
jdwb6guky3ejuz9m57drf580,3,0,a28,7,7.0,1.0,14.429,1,1
jdwb6guky3ejuz9m57drf580,4,0,a36,1,2.0,0.0,17.94,1,1
jdwb6guky3ejuz9m57drf580,5,0,a43,4,4.0,1.0,28.532,1,1
jdwb6guky3ejuz9m57drf580,6,0,a48,5,6.0,0.0,25.028,1,1
jdwb6guky3ejuz9m57drf580,7,0,a49,6,6.0,1.0,20.66,1,1
jdwb6guky3ejuz9m57drf580,8,0,a53,0,6.0,0.0,29.627,1,1
jdwb6guky3ejuz9m57drf580,9,0,a55,1,4.0,0.0,17.3,1,1
je72u24wtptsy4uscginpiuv,1,0,a11,4,4.0,1.0,23.558,1,1
je72u24wtptsy4uscginpiuv,2,0,a24,4,4.0,1.0,13.199,1,1
je72u24wtptsy4uscginpiuv,3,0,a28,7,7.0,1.0,14.693,1,1
je72u24wtptsy4uscginpiuv,4,0,a36,1,1.0,1.0,27.524,1,1
je72u24wtptsy4uscginpiuv,5,0,a43,4,4.0,1.0,26.211,1,1
je72u24wtptsy4uscginpiuv,6,0,a48,5,7.0,0.0,22.637,1,1
je72u24wtptsy4uscginpiuv,7,0,a49,6,6.0,1.0,14.429,1,1
je72u24wtptsy4uscginpiuv,8,0,a53,0,0.0,1.0,8.612,1,1
je72u24wtptsy4uscginpiuv,9,0,a55,1,,,,1,1
jfnustpz5mwn1zdumdt1n16t,1,0,a11,4,4.0,1.0,16.134,1,1
jfnustpz5mwn1zdumdt1n16t,2,0,a24,4,4.0,1.0,9.343,1,1
jfnustpz5mwn1zdumdt1n16t,3,0,a28,7,7.0,1.0,14.004,1,1
jfnustpz5mwn1zdumdt1n16t,4,0,a36,1,2.0,0.0,25.67,1,1
jfnustpz5mwn1zdumdt1n16t,5,0,a43,4,4.0,1.0,14.826,1,1
jfnustpz5mwn1zdumdt1n16t,6,0,a48,5,7.0,0.0,11.008,1,1
jfnustpz5mwn1zdumdt1n16t,7,0,a49,6,6.0,1.0,7.501,1,1
jfnustpz5mwn1zdumdt1n16t,8,0,a53,0,0.0,1.0,10.993,1,1
jfnustpz5mwn1zdumdt1n16t,9,0,a55,1,2.0,0.0,21.557,1,1
jg0cd7rbywgowbhf13g0wxpj,1,0,a11,4,0.0,0.0,23.899,1,1
jg0cd7rbywgowbhf13g0wxpj,2,0,a24,4,4.0,1.0,14.916,1,1
jg0cd7rbywgowbhf13g0wxpj,3,0,a28,7,7.0,1.0,12.46,1,1
jg0cd7rbywgowbhf13g0wxpj,4,0,a36,1,2.0,0.0,28.822,1,1
jg0cd7rbywgowbhf13g0wxpj,5,0,a43,4,4.0,1.0,19.611,1,1
jg0cd7rbywgowbhf13g0wxpj,6,0,a48,5,6.0,0.0,20.788,1,1
jg0cd7rbywgowbhf13g0wxpj,7,0,a49,6,6.0,1.0,17.252,1,1
jg0cd7rbywgowbhf13g0wxpj,8,0,a53,0,0.0,1.0,10.794,1,1
jg0cd7rbywgowbhf13g0wxpj,9,0,a55,1,,,,1,1
jho1fi5vba22h8lrmdpe652e,1,0,a11,4,2.0,0.0,12.525,1,1
jho1fi5vba22h8lrmdpe652e,2,0,a24,4,4.0,1.0,7.658,1,1
jho1fi5vba22h8lrmdpe652e,3,0,a28,7,7.0,1.0,9.01,1,1
jho1fi5vba22h8lrmdpe652e,4,0,a36,1,2.0,0.0,11.741,1,1
jho1fi5vba22h8lrmdpe652e,5,0,a43,4,3.0,0.0,26.307,1,1
jho1fi5vba22h8lrmdpe652e,6,0,a48,5,4.0,0.0,11.625,1,1
jho1fi5vba22h8lrmdpe652e,7,0,a49,6,4.0,0.0,13.248,1,1
jho1fi5vba22h8lrmdpe652e,8,0,a53,0,0.0,1.0,16.72,1,1
jho1fi5vba22h8lrmdpe652e,9,0,a55,1,6.0,0.0,11.677,1,1
jkd5gd4heonle0fnxbkvuoz9,1,0,a11,4,4.0,1.0,8.27,1,1
jkd5gd4heonle0fnxbkvuoz9,2,0,a24,4,4.0,1.0,10.831,1,1
jkd5gd4heonle0fnxbkvuoz9,3,0,a28,7,7.0,1.0,7.574,1,1
jkd5gd4heonle0fnxbkvuoz9,4,0,a36,1,1.0,1.0,12.677,1,1
jkd5gd4heonle0fnxbkvuoz9,5,0,a43,4,4.0,1.0,12.484,1,1
jkd5gd4heonle0fnxbkvuoz9,6,0,a48,5,5.0,1.0,15.862,1,1
jkd5gd4heonle0fnxbkvuoz9,7,0,a49,6,6.0,1.0,6.929,1,1
jkd5gd4heonle0fnxbkvuoz9,8,0,a53,0,0.0,1.0,6.781,1,1
jkd5gd4heonle0fnxbkvuoz9,9,0,a55,1,1.0,1.0,10.507,1,1
jkgzeyy7518r4xtw7angl2rv,1,0,a11,4,4.0,1.0,9.156,1,1
jkgzeyy7518r4xtw7angl2rv,2,0,a24,4,5.0,0.0,17.692,1,1
jkgzeyy7518r4xtw7angl2rv,3,0,a28,7,7.0,1.0,14.485,1,1
jkgzeyy7518r4xtw7angl2rv,4,0,a36,1,2.0,0.0,15.244,1,1
jkgzeyy7518r4xtw7angl2rv,5,0,a43,4,3.0,0.0,12.54,1,1
jkgzeyy7518r4xtw7angl2rv,6,0,a48,5,3.0,0.0,25.059,1,1
jkgzeyy7518r4xtw7angl2rv,7,0,a49,6,4.0,0.0,17.25,1,1
jkgzeyy7518r4xtw7angl2rv,8,0,a53,0,6.0,0.0,11.768,1,1
jkgzeyy7518r4xtw7angl2rv,9,0,a55,1,6.0,0.0,13.44,1,1
joxp8z4kf59ulpt7ku9ddo0d,1,0,a11,4,4.0,1.0,11.387,1,1
joxp8z4kf59ulpt7ku9ddo0d,2,0,a24,4,2.0,0.0,21.498,1,1
joxp8z4kf59ulpt7ku9ddo0d,3,0,a28,7,7.0,1.0,13.656,1,1
joxp8z4kf59ulpt7ku9ddo0d,4,0,a36,1,1.0,1.0,23.711,1,1
joxp8z4kf59ulpt7ku9ddo0d,5,0,a43,4,4.0,1.0,18.834,1,1
joxp8z4kf59ulpt7ku9ddo0d,6,0,a48,5,5.0,1.0,24.852,1,1
joxp8z4kf59ulpt7ku9ddo0d,7,0,a49,6,6.0,1.0,8.51,1,1
joxp8z4kf59ulpt7ku9ddo0d,8,0,a53,0,0.0,1.0,8.76,1,1
joxp8z4kf59ulpt7ku9ddo0d,9,0,a55,1,6.0,0.0,18.33,1,1
jw0ux2ur1vhu8f4v642valoo,1,0,a11,4,4.0,1.0,10.568,1,1
jw0ux2ur1vhu8f4v642valoo,2,0,a24,4,4.0,1.0,7.658,1,1
jw0ux2ur1vhu8f4v642valoo,3,0,a28,7,2.0,0.0,11.88,1,1
jw0ux2ur1vhu8f4v642valoo,4,0,a36,1,2.0,0.0,13.479,1,1
jw0ux2ur1vhu8f4v642valoo,5,0,a43,4,6.0,0.0,17.111,1,1
jw0ux2ur1vhu8f4v642valoo,6,0,a48,5,7.0,0.0,14.071,1,1
jw0ux2ur1vhu8f4v642valoo,7,0,a49,6,6.0,1.0,9.173,1,1
jw0ux2ur1vhu8f4v642valoo,8,0,a53,0,0.0,1.0,11.818,1,1
jw0ux2ur1vhu8f4v642valoo,9,0,a55,1,2.0,0.0,11.054,1,1
jx537kpc5wmy6f5vwvwwg75o,1,0,a11,4,1.0,0.0,6.417,1,1
jx537kpc5wmy6f5vwvwwg75o,2,0,a24,4,4.0,1.0,12.5,1,1
jx537kpc5wmy6f5vwvwwg75o,3,0,a28,7,3.0,0.0,13.812,1,1
jx537kpc5wmy6f5vwvwwg75o,4,0,a36,1,0.0,0.0,21.396,1,1
jx537kpc5wmy6f5vwvwwg75o,5,0,a43,4,4.0,1.0,18.216,1,1
jx537kpc5wmy6f5vwvwwg75o,6,0,a48,5,2.0,0.0,26.22,1,1
jx537kpc5wmy6f5vwvwwg75o,7,0,a49,6,6.0,1.0,8.723,1,1
jx537kpc5wmy6f5vwvwwg75o,8,0,a53,0,0.0,1.0,13.147,1,1
jx537kpc5wmy6f5vwvwwg75o,9,0,a55,1,7.0,0.0,19.904,1,1
jze1o9p5ancsm2lvymeu1sc9,1,0,a11,4,4.0,1.0,11.545,1,1
jze1o9p5ancsm2lvymeu1sc9,2,0,a24,4,5.0,0.0,8.374,1,1
jze1o9p5ancsm2lvymeu1sc9,3,0,a28,7,7.0,1.0,11.745,1,1
jze1o9p5ancsm2lvymeu1sc9,4,0,a36,1,3.0,0.0,13.97,1,1
jze1o9p5ancsm2lvymeu1sc9,5,0,a43,4,0.0,0.0,6.392,1,1
jze1o9p5ancsm2lvymeu1sc9,6,0,a48,5,1.0,0.0,5.61,1,1
jze1o9p5ancsm2lvymeu1sc9,7,0,a49,6,6.0,1.0,5.64,1,1
jze1o9p5ancsm2lvymeu1sc9,8,0,a53,0,1.0,0.0,2.964,1,1
jze1o9p5ancsm2lvymeu1sc9,9,0,a55,1,7.0,0.0,4.631,1,1
k3fhhflvqceu7q4s1tyog5ql,1,0,a11,4,2.0,0.0,7.49,1,1
k3fhhflvqceu7q4s1tyog5ql,2,0,a24,4,4.0,1.0,5.874,1,1
k3fhhflvqceu7q4s1tyog5ql,3,0,a28,7,3.0,0.0,7.21,1,1
k3fhhflvqceu7q4s1tyog5ql,4,0,a36,1,3.0,0.0,1.921,1,1
k3fhhflvqceu7q4s1tyog5ql,5,0,a43,4,4.0,1.0,4.714,1,1
k3fhhflvqceu7q4s1tyog5ql,6,0,a48,5,6.0,0.0,2.967,1,1
k3fhhflvqceu7q4s1tyog5ql,7,0,a49,6,6.0,1.0,6.314,1,1
k3fhhflvqceu7q4s1tyog5ql,8,0,a53,0,6.0,0.0,3.17,1,1
k3fhhflvqceu7q4s1tyog5ql,9,0,a55,1,6.0,0.0,3.876,1,1
kcarbqn1ruufo9vqsevtbo88,1,0,a11,4,5.0,0.0,6.912,1,1
kcarbqn1ruufo9vqsevtbo88,2,0,a24,4,5.0,0.0,6.301,1,1
kcarbqn1ruufo9vqsevtbo88,3,0,a28,7,7.0,1.0,6.483,1,1
kcarbqn1ruufo9vqsevtbo88,4,0,a36,1,3.0,0.0,10.625,1,1
kcarbqn1ruufo9vqsevtbo88,5,0,a43,4,3.0,0.0,8.049,1,1
kcarbqn1ruufo9vqsevtbo88,6,0,a48,5,3.0,0.0,3.267,1,1
kcarbqn1ruufo9vqsevtbo88,7,0,a49,6,0.0,0.0,7.427,1,1
kcarbqn1ruufo9vqsevtbo88,8,0,a53,0,4.0,0.0,11.674,1,1
kcarbqn1ruufo9vqsevtbo88,9,0,a55,1,2.0,0.0,5.0,1,1
kjsecjw0hq26f59qi3eyssb7,1,0,a11,4,4.0,1.0,12.345,1,1
kjsecjw0hq26f59qi3eyssb7,2,0,a24,4,5.0,0.0,12.248,1,1
kjsecjw0hq26f59qi3eyssb7,3,0,a28,7,7.0,1.0,16.016,1,1
kjsecjw0hq26f59qi3eyssb7,4,0,a36,1,1.0,1.0,13.358,1,1
kjsecjw0hq26f59qi3eyssb7,5,0,a43,4,4.0,1.0,14.208,1,1
kjsecjw0hq26f59qi3eyssb7,6,0,a48,5,7.0,0.0,11.562,1,1
kjsecjw0hq26f59qi3eyssb7,7,0,a49,6,6.0,1.0,6.844,1,1
kjsecjw0hq26f59qi3eyssb7,8,0,a53,0,3.0,0.0,18.763,1,1
kjsecjw0hq26f59qi3eyssb7,9,0,a55,1,6.0,0.0,11.856,1,1
km4ivxg6leral0b6k19o050j,1,0,a11,4,0.0,0.0,4.992,1,1
km4ivxg6leral0b6k19o050j,2,0,a24,4,5.0,0.0,5.004,1,1
km4ivxg6leral0b6k19o050j,3,0,a28,7,2.0,0.0,6.03,1,1
km4ivxg6leral0b6k19o050j,4,0,a36,1,5.0,0.0,2.496,1,1
km4ivxg6leral0b6k19o050j,5,0,a43,4,6.0,0.0,3.753,1,1
km4ivxg6leral0b6k19o050j,6,0,a48,5,1.0,0.0,0.304,1,1
km4ivxg6leral0b6k19o050j,7,0,a49,6,0.0,0.0,2.11,1,1
km4ivxg6leral0b6k19o050j,8,0,a53,0,6.0,0.0,2.376,1,1
km4ivxg6leral0b6k19o050j,9,0,a55,1,3.0,0.0,2.412,1,1
kmhyew6r00dc1mz47iav81m9,1,0,a11,4,5.0,0.0,5.753,1,1
kmhyew6r00dc1mz47iav81m9,2,0,a24,4,4.0,1.0,5.608,1,1
kmhyew6r00dc1mz47iav81m9,3,0,a28,7,2.0,0.0,14.589,1,1
kmhyew6r00dc1mz47iav81m9,4,0,a36,1,2.0,0.0,11.082,1,1
kmhyew6r00dc1mz47iav81m9,5,0,a43,4,4.0,1.0,11.568,1,1
kmhyew6r00dc1mz47iav81m9,6,0,a48,5,4.0,0.0,26.893,1,1
kmhyew6r00dc1mz47iav81m9,7,0,a49,6,6.0,1.0,7.901,1,1
kmhyew6r00dc1mz47iav81m9,8,0,a53,0,0.0,1.0,23.833,1,1
kmhyew6r00dc1mz47iav81m9,9,0,a55,1,2.0,0.0,27.7,1,1
kqjet56zfz0tasfaf96l5vcy,1,0,a11,4,5.0,0.0,6.892,1,1
kqjet56zfz0tasfaf96l5vcy,2,0,a24,4,4.0,1.0,12.686,1,1
kqjet56zfz0tasfaf96l5vcy,3,0,a28,7,7.0,1.0,20.931,1,1
kqjet56zfz0tasfaf96l5vcy,4,0,a36,1,2.0,0.0,18.362,1,1
kqjet56zfz0tasfaf96l5vcy,5,0,a43,4,4.0,1.0,12.972,1,1
kqjet56zfz0tasfaf96l5vcy,6,0,a48,5,6.0,0.0,19.066,1,1
kqjet56zfz0tasfaf96l5vcy,7,0,a49,6,6.0,1.0,7.629,1,1
kqjet56zfz0tasfaf96l5vcy,8,0,a53,0,0.0,1.0,23.296,1,1
kqjet56zfz0tasfaf96l5vcy,9,0,a55,1,3.0,0.0,8.625,1,1
ky1jetc6td0zxtnbmbd00536,1,0,a11,4,5.0,0.0,10.107,1,1
ky1jetc6td0zxtnbmbd00536,2,0,a24,4,5.0,0.0,17.192,1,1
ky1jetc6td0zxtnbmbd00536,3,0,a28,7,7.0,1.0,12.31,1,1
ky1jetc6td0zxtnbmbd00536,4,0,a36,1,2.0,0.0,15.515,1,1
ky1jetc6td0zxtnbmbd00536,5,0,a43,4,6.0,0.0,21.815,1,1
ky1jetc6td0zxtnbmbd00536,6,0,a48,5,6.0,0.0,14.367,1,1
ky1jetc6td0zxtnbmbd00536,7,0,a49,6,6.0,1.0,15.159,1,1
ky1jetc6td0zxtnbmbd00536,8,0,a53,0,1.0,0.0,14.749,1,1
ky1jetc6td0zxtnbmbd00536,9,0,a55,1,6.0,0.0,8.664,1,1
kz6dl2tsecd3ybkc72y9d10v,1,0,a11,4,4.0,1.0,12.197,1,1
kz6dl2tsecd3ybkc72y9d10v,2,0,a24,4,4.0,1.0,17.541,1,1
kz6dl2tsecd3ybkc72y9d10v,3,0,a28,7,7.0,1.0,7.762,1,1
kz6dl2tsecd3ybkc72y9d10v,4,0,a36,1,0.0,0.0,29.256,1,1
kz6dl2tsecd3ybkc72y9d10v,5,0,a43,4,4.0,1.0,12.176,1,1
kz6dl2tsecd3ybkc72y9d10v,6,0,a48,5,6.0,0.0,28.817,1,1
kz6dl2tsecd3ybkc72y9d10v,7,0,a49,6,6.0,1.0,10.574,1,1
kz6dl2tsecd3ybkc72y9d10v,8,0,a53,0,5.0,0.0,18.149,1,1
kz6dl2tsecd3ybkc72y9d10v,9,0,a55,1,4.0,0.0,29.33,1,1
lfu7fvf6cf1wviz2amzawytp,1,0,a11,4,4.0,1.0,15.414,1,1
lfu7fvf6cf1wviz2amzawytp,2,0,a24,4,4.0,1.0,20.528,1,1
lfu7fvf6cf1wviz2amzawytp,3,0,a28,7,7.0,1.0,8.634,1,1
lfu7fvf6cf1wviz2amzawytp,4,0,a36,1,2.0,0.0,24.178,1,1
lfu7fvf6cf1wviz2amzawytp,5,0,a43,4,4.0,1.0,25.134,1,1
lfu7fvf6cf1wviz2amzawytp,6,0,a48,5,6.0,0.0,15.295,1,1
lfu7fvf6cf1wviz2amzawytp,7,0,a49,6,2.0,0.0,11.056,1,1
lfu7fvf6cf1wviz2amzawytp,8,0,a53,0,6.0,0.0,16.094,1,1
lfu7fvf6cf1wviz2amzawytp,9,0,a55,1,2.0,0.0,14.677,1,1
lhg28uti4c7gdl61yiekaao9,1,0,a11,4,4.0,1.0,8.814,1,1
lhg28uti4c7gdl61yiekaao9,2,0,a24,4,4.0,1.0,4.234,1,1
lhg28uti4c7gdl61yiekaao9,3,0,a28,7,7.0,1.0,5.785,1,1
lhg28uti4c7gdl61yiekaao9,4,0,a36,1,1.0,1.0,7.237,1,1
lhg28uti4c7gdl61yiekaao9,5,0,a43,4,4.0,1.0,6.502,1,1
lhg28uti4c7gdl61yiekaao9,6,0,a48,5,7.0,0.0,9.133,1,1
lhg28uti4c7gdl61yiekaao9,7,0,a49,6,6.0,1.0,3.848,1,1
lhg28uti4c7gdl61yiekaao9,8,0,a53,0,0.0,1.0,4.115,1,1
lhg28uti4c7gdl61yiekaao9,9,0,a55,1,1.0,1.0,14.588,1,1
li42e5o71571pmqt15zj6b8u,1,0,a11,4,4.0,1.0,20.333,1,1
li42e5o71571pmqt15zj6b8u,2,0,a24,4,2.0,0.0,28.168,1,1
li42e5o71571pmqt15zj6b8u,3,0,a28,7,2.0,0.0,29.572,1,1
li42e5o71571pmqt15zj6b8u,4,0,a36,1,1.0,1.0,29.96,1,1
li42e5o71571pmqt15zj6b8u,5,0,a43,4,4.0,1.0,27.161,1,1
li42e5o71571pmqt15zj6b8u,6,0,a48,5,5.0,1.0,27.232,1,1
li42e5o71571pmqt15zj6b8u,7,0,a49,6,6.0,1.0,27.791,1,1
li42e5o71571pmqt15zj6b8u,8,0,a53,0,6.0,0.0,23.659,1,1
li42e5o71571pmqt15zj6b8u,9,0,a55,1,3.0,0.0,22.944,1,1
lq3npw6ylkbf9wil9y59lq95,1,0,a11,4,4.0,1.0,11.591,1,1
lq3npw6ylkbf9wil9y59lq95,2,0,a24,4,4.0,1.0,14.259,1,1
lq3npw6ylkbf9wil9y59lq95,3,0,a28,7,7.0,1.0,29.052,1,1
lq3npw6ylkbf9wil9y59lq95,4,0,a36,1,1.0,1.0,17.181,1,1
lq3npw6ylkbf9wil9y59lq95,5,0,a43,4,4.0,1.0,16.32,1,1
lq3npw6ylkbf9wil9y59lq95,6,0,a48,5,6.0,0.0,24.423,1,1
lq3npw6ylkbf9wil9y59lq95,7,0,a49,6,6.0,1.0,7.414,1,1
lq3npw6ylkbf9wil9y59lq95,8,0,a53,0,0.0,1.0,12.044,1,1
lq3npw6ylkbf9wil9y59lq95,9,0,a55,1,,,,1,1
lqxle79jdmekt3mn47pgml1l,1,0,a11,4,5.0,0.0,7.475,1,1
lqxle79jdmekt3mn47pgml1l,2,0,a24,4,4.0,1.0,19.189,1,1
lqxle79jdmekt3mn47pgml1l,3,0,a28,7,7.0,1.0,8.223,1,1
lqxle79jdmekt3mn47pgml1l,4,0,a36,1,1.0,1.0,28.674,1,1
lqxle79jdmekt3mn47pgml1l,5,0,a43,4,4.0,1.0,25.355,1,1
lqxle79jdmekt3mn47pgml1l,6,0,a48,5,,,,1,1
lqxle79jdmekt3mn47pgml1l,7,0,a49,6,6.0,1.0,10.983,1,1
lqxle79jdmekt3mn47pgml1l,8,0,a53,0,0.0,1.0,26.179,1,1
lqxle79jdmekt3mn47pgml1l,9,0,a55,1,1.0,1.0,27.588,1,1
lsff902dmym0gmbnwnmfes04,1,0,a11,4,4.0,1.0,9.454,1,1
lsff902dmym0gmbnwnmfes04,2,0,a24,4,0.0,0.0,9.059,1,1
lsff902dmym0gmbnwnmfes04,3,0,a28,7,7.0,1.0,6.173,1,1
lsff902dmym0gmbnwnmfes04,4,0,a36,1,2.0,0.0,18.969,1,1
lsff902dmym0gmbnwnmfes04,5,0,a43,4,4.0,1.0,13.111,1,1
lsff902dmym0gmbnwnmfes04,6,0,a48,5,7.0,0.0,18.044,1,1
lsff902dmym0gmbnwnmfes04,7,0,a49,6,6.0,1.0,6.134,1,1
lsff902dmym0gmbnwnmfes04,8,0,a53,0,0.0,1.0,6.508,1,1
lsff902dmym0gmbnwnmfes04,9,0,a55,1,2.0,0.0,13.071,1,1
lxezbys957okmt3fp08670ar,1,0,a11,4,0.0,0.0,4.832,1,1
lxezbys957okmt3fp08670ar,2,0,a24,4,4.0,1.0,9.04,1,1
lxezbys957okmt3fp08670ar,3,0,a28,7,7.0,1.0,11.41,1,1
lxezbys957okmt3fp08670ar,4,0,a36,1,2.0,0.0,8.622,1,1
lxezbys957okmt3fp08670ar,5,0,a43,4,4.0,1.0,7.627,1,1
lxezbys957okmt3fp08670ar,6,0,a48,5,3.0,0.0,7.198,1,1
lxezbys957okmt3fp08670ar,7,0,a49,6,6.0,1.0,6.865,1,1
lxezbys957okmt3fp08670ar,8,0,a53,0,6.0,0.0,4.203,1,1
lxezbys957okmt3fp08670ar,9,0,a55,1,6.0,0.0,7.242,1,1
m2chuo3qlcksi02y65llex5t,1,0,a11,4,4.0,1.0,8.347,1,1
m2chuo3qlcksi02y65llex5t,2,0,a24,4,4.0,1.0,8.449,1,1
m2chuo3qlcksi02y65llex5t,3,0,a28,7,7.0,1.0,9.008,1,1
m2chuo3qlcksi02y65llex5t,4,0,a36,1,2.0,0.0,13.647,1,1
