[{"success":true,"timeout":false,"failed_images":[],"failed_audio":[],"failed_video":[],"trial_type":"preload","trial_index":0,"time_elapsed":20688,"internal_node_id":"0.0-0.0","experiment":"calibration","task_version":"1.0","jspsych_version":"6.3.1"},{"success":true,"trial_type":"fullscreen","trial_index":1,"time_elapsed":64613,"internal_node_id":"0.0-1.0","experiment":"calibration","task_version":"1.0","jspsych_version":"6.3.1"},{"view_history":[{"page_index":0,"viewing_time":1589},{"page_index":1,"viewing_time":757},{"page_index":2,"viewing_time":915}],"rt":3261,"trial_type":"instructions","trial_index":2,"time_elapsed":67882,"internal_node_id":"0.0-3.0","experiment":"calibration","task_version":"1.0","jspsych_version":"6.3.1"},{"puzzle":"../static/img/practice/pt1_M1.png","item_order":[0,1,3,2],"correct":0,"choice":0,"accuracy":1,"rt":3172,"screen_resolution":[768,1366],"minimum_resolution":1,"item_set":"practice","trial_type":"mars","trial_index":3,"time_elapsed":73063,"internal_node_id":"0.0-4.0-0.0","experiment":"calibration","task_version":"1.0","jspsych_version":"6.3.1"},{"puzzle":"../static/img/practice/pt2_M1.png","item_order":[3,2,1,0],"correct":0,"choice":0,"accuracy":1,"rt":2069,"screen_resolution":[768,1366],"minimum_resolution":1,"item_set":"practice","trial_type":"mars","trial_index":4,"time_elapsed":77158,"internal_node_id":"0.0-5.0-0.0","experiment":"calibration","task_version":"1.0","jspsych_version":"6.3.1"},{"puzzle":"../static/img/practice/pt3_M1.png","item_order":[1,0,3,2],"correct":0,"choice":0,"accuracy":1,"rt":1646,"screen_resolution":[768,1366],"minimum_resolution":1,"item_set":"practice","trial_type":"mars","trial_index":5,"time_elapsed":80813,"internal_node_id":"0.0-6.0-0.0","experiment":"calibration","task_version":"1.0","jspsych_version":"6.3.1"},{"view_history":[{"page_index":0,"viewing_time":1053},{"page_index":1,"viewing_time":1048}],"rt":2102,"trial_type":"instructions","trial_index":6,"time_elapsed":82916,"internal_node_id":"0.0-7.0","experiment":"calibration","task_version":"1.0","jspsych_version":"6.3.1"},{"rt":null,"stimulus":"<div style=\"font-size:24px;\">Loading puzzle:<br>1 / 16</div>","response":null,"trial_type":"html-keyboard-response","trial_index":7,"time_elapsed":84133,"internal_node_id":"0.0-8.0-1.0","experiment":"calibration","task_version":"1.0","jspsych_version":"6.3.1"},{"puzzle":"../static/img/is3/tf3/tf3_28_M_ss1.jpeg","item_order":[1,0,3,2],"correct":0,"choice":1,"accuracy":0,"rt":4545,"screen_resolution":[768,1366],"minimum_resolution":1,"item_set":3,"item":28,"test_form":3,"distractor":"pd","trial_type":"mars","trial_index":8,"time_elapsed":88682,"internal_node_id":"0.0-8.0-2.0","experiment":"calibration","task_version":"1.0","jspsych_version":"6.3.1","browser_interactions":0},{"rt":null,"stimulus":"<div style=\"font-size:24px;\">Loading puzzle:<br>2 / 16</div>","response":null,"trial_type":"html-keyboard-response","trial_index":9,"time_elapsed":89885,"internal_node_id":"0.0-9.0-1.0","experiment":"calibration","task_version":"1.0","jspsych_version":"6.3.1"},{"puzzle":"../static/img/is3/tf3/tf3_6_M_ss3.jpeg","item_order":[2,3,0,1],"correct":0,"choice":1,"accuracy":0,"rt":10149,"screen_resolution":[768,1366],"minimum_resolution":1,"item_set":3,"item":6,"test_form":3,"distractor":"md","trial_type":"mars","trial_index":10,"time_elapsed":100037,"internal_node_id":"0.0-9.0-2.0","experiment":"calibration","task_version":"1.0","jspsych_version":"6.3.1","browser_interactions":0},{"rt":null,"stimulus":"<div style=\"font-size:24px;\">Loading puzzle:<br>3 / 16</div>","response":null,"trial_type":"html-keyboard-response","trial_index":11,"time_elapsed":101243,"internal_node_id":"0.0-10.0-1.0","experiment":"calibration","task_version":"1.0","jspsych_version":"6.3.1"},{"puzzle":"../static/img/is3/tf3/tf3_49_M_ss1.jpeg","item_order":[2,1,3,0],"correct":0,"choice":2,"accuracy":0,"rt":4893,"screen_resolution":[768,1366],"minimum_resolution":1,"item_set":3,"item":49,"test_form":3,"distractor":"md","trial_type":"mars","trial_index":12,"time_elapsed":106140,"internal_node_id":"0.0-10.0-2.0","experiment":"calibration","task_version":"1.0","jspsych_version":"6.3.1","browser_interactions":0},{"rt":null,"stimulus":"<div style=\"font-size:24px;\">Loading puzzle:<br>4 / 16</div>","response":null,"trial_type":"html-keyboard-response","trial_index":13,"time_elapsed":107344,"internal_node_id":"0.0-11.0-1.0","experiment":"calibration","task_version":"1.0","jspsych_version":"6.3.1"},{"puzzle":"../static/img/is3/tf3/tf3_70_M_ss1.jpeg","item_order":[0,2,1,3],"correct":0,"choice":0,"accuracy":1,"rt":7516,"screen_resolution":[768,1366],"minimum_resolution":1,"item_set":3,"item":70,"test_form":3,"distractor":"pd","trial_type":"mars","trial_index":14,"time_elapsed":114863,"internal_node_id":"0.0-11.0-2.0","experiment":"calibration","task_version":"1.0","jspsych_version":"6.3.1","browser_interactions":0},{"rt":null,"stimulus":"<div style=\"font-size:24px;\">Loading puzzle:<br>5 / 16</div>","response":null,"trial_type":"html-keyboard-response","trial_index":15,"time_elapsed":116075,"internal_node_id":"0.0-12.0-1.0","experiment":"calibration","task_version":"1.0","jspsych_version":"6.3.1"},{"puzzle":"../static/img/is3/tf3/tf3_11_M_ss2.jpeg","item_order":[3,2,1,0],"correct":0,"choice":0,"accuracy":1,"rt":11051,"screen_resolution":[768,1366],"minimum_resolution":1,"item_set":3,"item":11,"test_form":3,"distractor":"pd","trial_type":"mars","trial_index":16,"time_elapsed":127130,"internal_node_id":"0.0-12.0-2.0","experiment":"calibration","task_version":"1.0","jspsych_version":"6.3.1","browser_interactions":0},{"rt":null,"stimulus":"<div style=\"font-size:24px;\">Loading puzzle:<br>6 / 16</div>","response":null,"trial_type":"html-keyboard-response","trial_index":17,"time_elapsed":128344,"internal_node_id":"0.0-13.0-1.0","experiment":"calibration","task_version":"1.0","jspsych_version":"6.3.1"},{"puzzle":"../static/img/is3/tf3/tf3_31_M_ss1.jpeg","item_order":[2,1,0,3],"correct":0,"choice":3,"accuracy":0,"rt":5513,"screen_resolution":[768,1366],"minimum_resolution":1,"item_set":3,"item":31,"test_form":3,"distractor":"pd","trial_type":"mars","trial_index":18,"time_elapsed":133858,"internal_node_id":"0.0-13.0-2.0","experiment":"calibration","task_version":"1.0","jspsych_version":"6.3.1","browser_interactions":0},{"rt":null,"stimulus":"<div style=\"font-size:24px;\">Loading puzzle:<br>7 / 16</div>","response":null,"trial_type":"html-keyboard-response","trial_index":19,"time_elapsed":135076,"internal_node_id":"0.0-14.0-1.0","experiment":"calibration","task_version":"1.0","jspsych_version":"6.3.1"},{"puzzle":"../static/img/is3/tf3/tf3_58_M_ss1.jpeg","item_order":[1,2,3,0],"correct":0,"choice":1,"accuracy":0,"rt":14409,"screen_resolution":[768,1366],"minimum_resolution":1,"item_set":3,"item":58,"test_form":3,"distractor":"md","trial_type":"mars","trial_index":20,"time_elapsed":149487,"internal_node_id":"0.0-14.0-2.0","experiment":"calibration","task_version":"1.0","jspsych_version":"6.3.1","browser_interactions":0},{"rt":null,"stimulus":"<div style=\"font-size:24px;\">Loading puzzle:<br>8 / 16</div>","response":null,"trial_type":"html-keyboard-response","trial_index":21,"time_elapsed":150700,"internal_node_id":"0.0-15.0-1.0","experiment":"calibration","task_version":"1.0","jspsych_version":"6.3.1"},{"puzzle":"../static/img/is3/tf3/tf3_16_M_ss1.jpeg","item_order":[0,1,2,3],"correct":0,"choice":1,"accuracy":0,"rt":2434,"screen_resolution":[768,1366],"minimum_resolution":1,"item_set":3,"item":16,"test_form":3,"distractor":"pd","trial_type":"mars","trial_index":22,"time_elapsed":153137,"internal_node_id":"0.0-15.0-2.0","experiment":"calibration","task_version":"1.0","jspsych_version":"6.3.1","browser_interactions":0},{"rt":null,"stimulus":"<div style=\"font-size:24px;\">Loading puzzle:<br>9 / 16</div>","response":null,"trial_type":"html-keyboard-response","trial_index":23,"time_elapsed":154344,"internal_node_id":"0.0-16.0-1.0","experiment":"calibration","task_version":"1.0","jspsych_version":"6.3.1"},{"puzzle":"../static/img/is3/tf3/tf3_60_M_ss3.jpeg","item_order":[0,1,3,2],"correct":0,"choice":3,"accuracy":0,"rt":2165,"screen_resolution":[768,1366],"minimum_resolution":1,"item_set":3,"item":60,"test_form":3,"distractor":"pd","trial_type":"mars","trial_index":24,"time_elapsed":156511,"internal_node_id":"0.0-16.0-2.0","experiment":"calibration","task_version":"1.0","jspsych_version":"6.3.1","browser_interactions":0},{"rt":null,"stimulus":"<div style=\"font-size:24px;\">Loading puzzle:<br>10 / 16</div>","response":null,"trial_type":"html-keyboard-response","trial_index":25,"time_elapsed":157715,"internal_node_id":"0.0-17.0-1.0","experiment":"calibration","task_version":"1.0","jspsych_version":"6.3.1"},{"puzzle":"../static/img/is3/tf3/tf3_42_M_ss3.jpeg","item_order":[1,2,3,0],"correct":0,"choice":2,"accuracy":0,"rt":8605,"screen_resolution":[768,1366],"minimum_resolution":1,"item_set":3,"item":42,"test_form":3,"distractor":"pd","trial_type":"mars","trial_index":26,"time_elapsed":166323,"internal_node_id":"0.0-17.0-2.0","experiment":"calibration","task_version":"1.0","jspsych_version":"6.3.1","browser_interactions":0},{"rt":null,"stimulus":"<div style=\"font-size:24px;\">Loading puzzle:<br>11 / 16</div>","response":null,"trial_type":"html-keyboard-response","trial_index":27,"time_elapsed":167533,"internal_node_id":"0.0-18.0-1.0","experiment":"calibration","task_version":"1.0","jspsych_version":"6.3.1"},{"puzzle":"../static/img/is3/tf3/tf3_14_M_ss2.jpeg","item_order":[0,2,1,3],"correct":0,"choice":1,"accuracy":0,"rt":2700,"screen_resolution":[768,1366],"minimum_resolution":1,"item_set":3,"item":14,"test_form":3,"distractor":"md","trial_type":"mars","trial_index":28,"time_elapsed":170235,"internal_node_id":"0.0-18.0-2.0","experiment":"calibration","task_version":"1.0","jspsych_version":"6.3.1","browser_interactions":0},{"rt":null,"stimulus":"<div style=\"font-size:24px;\">Loading puzzle:<br>12 / 16</div>","response":null,"trial_type":"html-keyboard-response","trial_index":29,"time_elapsed":171444,"internal_node_id":"0.0-19.0-1.0","experiment":"calibration","task_version":"1.0","jspsych_version":"6.3.1"},{"puzzle":"../static/img/is3/tf3/tf3_74_M_ss2.jpeg","item_order":[0,3,2,1],"correct":0,"choice":3,"accuracy":0,"rt":2486,"screen_resolution":[768,1366],"minimum_resolution":1,"item_set":3,"item":74,"test_form":3,"distractor":"pd","trial_type":"mars","trial_index":30,"time_elapsed":173932,"internal_node_id":"0.0-19.0-2.0","experiment":"calibration","task_version":"1.0","jspsych_version":"6.3.1","browser_interactions":0},{"rt":null,"stimulus":"<div style=\"font-size:24px;\">Loading puzzle:<br>13 / 16</div>","response":null,"trial_type":"html-keyboard-response","trial_index":31,"time_elapsed":175144,"internal_node_id":"0.0-20.0-1.0","experiment":"calibration","task_version":"1.0","jspsych_version":"6.3.1"},{"puzzle":"../static/img/is3/tf3/tf3_36_M_ss3.jpeg","item_order":[0,1,2,3],"correct":0,"choice":2,"accuracy":0,"rt":3826,"screen_resolution":[768,1366],"minimum_resolution":1,"item_set":3,"item":36,"test_form":3,"distractor":"md","trial_type":"mars","trial_index":32,"time_elapsed":178972,"internal_node_id":"0.0-20.0-2.0","experiment":"calibration","task_version":"1.0","jspsych_version":"6.3.1","browser_interactions":0},{"rt":null,"stimulus":"<div style=\"font-size:24px;\">Loading puzzle:<br>14 / 16</div>","response":null,"trial_type":"html-keyboard-response","trial_index":33,"time_elapsed":180174,"internal_node_id":"0.0-21.0-1.0","experiment":"calibration","task_version":"1.0","jspsych_version":"6.3.1"},{"puzzle":"../static/img/is3/tf3/tf3_54_M_ss3.jpeg","item_order":[3,1,0,2],"correct":0,"choice":3,"accuracy":0,"rt":6573,"screen_resolution":[768,1366],"minimum_resolution":1,"item_set":3,"item":54,"test_form":3,"distractor":"md","trial_type":"mars","trial_index":34,"time_elapsed":186749,"internal_node_id":"0.0-21.0-2.0","experiment":"calibration","task_version":"1.0","jspsych_version":"6.3.1","browser_interactions":0},{"rt":null,"stimulus":"<div style=\"font-size:24px;\">Loading puzzle:<br>15 / 16</div>","response":null,"trial_type":"html-keyboard-response","trial_index":35,"time_elapsed":187953,"internal_node_id":"0.0-22.0-1.0","experiment":"calibration","task_version":"1.0","jspsych_version":"6.3.1"},{"puzzle":"../static/img/is3/tf3/tf3_29_M_ss2.jpeg","item_order":[3,0,2,1],"correct":0,"choice":1,"accuracy":0,"rt":4772,"screen_resolution":[768,1366],"minimum_resolution":1,"item_set":3,"item":29,"test_form":3,"distractor":"md","trial_type":"mars","trial_index":36,"time_elapsed":192729,"internal_node_id":"0.0-22.0-2.0","experiment":"calibration","task_version":"1.0","jspsych_version":"6.3.1","browser_interactions":0},{"rt":null,"stimulus":"<div style=\"font-size:24px;\">Loading puzzle:<br>16 / 16</div>","response":null,"trial_type":"html-keyboard-response","trial_index":37,"time_elapsed":193947,"internal_node_id":"0.0-23.0-1.0","experiment":"calibration","task_version":"1.0","jspsych_version":"6.3.1"},{"puzzle":"../static/img/is3/tf3/tf3_66_M_ss3.jpeg","item_order":[1,0,3,2],"correct":0,"choice":2,"accuracy":0,"rt":8364,"screen_resolution":[768,1366],"minimum_resolution":1,"item_set":3,"item":66,"test_form":3,"distractor":"md","trial_type":"mars","trial_index":38,"time_elapsed":202313,"internal_node_id":"0.0-23.0-2.0","experiment":"calibration","task_version":"1.0","jspsych_version":"6.3.1","browser_interactions":0},{"value":[4,0,0],"trial_type":"call-function","trial_index":39,"time_elapsed":202315,"internal_node_id":"0.0-24.0","experiment":"calibration","task_version":"1.0","jspsych_version":"6.3.1"},{"view_history":[{"page_index":0,"viewing_time":3278}],"rt":3278,"trial_type":"instructions","trial_index":40,"time_elapsed":205593,"internal_node_id":"0.0-25.0","experiment":"calibration","task_version":"1.0","jspsych_version":"6.3.1"},{"rt":22451,"responses":{"age":"39","gender-categorical":"Male","gender-free-response":"","ethnicity":"Not Hispanic or Latino","race":["White"],"education":"Master degree or higher","free-response":"good study"},"trial_type":"survey-demo","trial_index":41,"time_elapsed":228059,"internal_node_id":"0.0-26.0","experiment":"calibration","task_version":"1.0","jspsych_version":"6.3.1","interactions":"[{\"event\":\"focus\",\"trial\":0,\"time\":1731},{\"event\":\"blur\",\"trial\":0,\"time\":6090},{\"event\":\"focus\",\"trial\":1,\"time\":21048},{\"event\":\"blur\",\"trial\":1,\"time\":22540},{\"event\":\"focus\",\"trial\":1,\"time\":62540},{\"event\":\"fullscreenenter\",\"trial\":1,\"time\":63839},{\"event\":\"fullscreenexit\",\"trial\":41,\"time\":213529}]"}]