[{"success":true,"timeout":false,"failed_images":[],"failed_audio":[],"failed_video":[],"trial_type":"preload","trial_index":0,"time_elapsed":19155,"internal_node_id":"0.0-0.0","experiment":"calibration","task_version":"1.0","jspsych_version":"6.3.1"},{"success":true,"trial_type":"fullscreen","trial_index":1,"time_elapsed":22125,"internal_node_id":"0.0-1.0","experiment":"calibration","task_version":"1.0","jspsych_version":"6.3.1"},{"view_history":[{"page_index":0,"viewing_time":8538},{"page_index":1,"viewing_time":4688},{"page_index":2,"viewing_time":3520}],"rt":16747,"trial_type":"instructions","trial_index":2,"time_elapsed":38876,"internal_node_id":"0.0-3.0","experiment":"calibration","task_version":"1.0","jspsych_version":"6.3.1"},{"puzzle":"../static/img/practice/pt1_M1.png","item_order":[2,1,3,0],"correct":0,"choice":0,"accuracy":1,"rt":2583,"screen_resolution":[1080,1920],"minimum_resolution":1,"item_set":"practice","trial_type":"mars","trial_index":3,"time_elapsed":43463,"internal_node_id":"0.0-4.0-0.0","experiment":"calibration","task_version":"1.0","jspsych_version":"6.3.1"},{"puzzle":"../static/img/practice/pt2_M1.png","item_order":[2,0,1,3],"correct":0,"choice":0,"accuracy":1,"rt":1719,"screen_resolution":[1080,1920],"minimum_resolution":1,"item_set":"practice","trial_type":"mars","trial_index":4,"time_elapsed":47189,"internal_node_id":"0.0-5.0-0.0","experiment":"calibration","task_version":"1.0","jspsych_version":"6.3.1"},{"puzzle":"../static/img/practice/pt3_M1.png","item_order":[3,2,1,0],"correct":0,"choice":0,"accuracy":1,"rt":1262,"screen_resolution":[1080,1920],"minimum_resolution":1,"item_set":"practice","trial_type":"mars","trial_index":5,"time_elapsed":50453,"internal_node_id":"0.0-6.0-0.0","experiment":"calibration","task_version":"1.0","jspsych_version":"6.3.1"},{"view_history":[{"page_index":0,"viewing_time":925},{"page_index":1,"viewing_time":5383}],"rt":6308,"trial_type":"instructions","trial_index":6,"time_elapsed":56764,"internal_node_id":"0.0-7.0","experiment":"calibration","task_version":"1.0","jspsych_version":"6.3.1"},{"rt":null,"stimulus":"<div style=\"font-size:24px;\">Loading puzzle:<br>1 / 16</div>","response":null,"trial_type":"html-keyboard-response","trial_index":7,"time_elapsed":57971,"internal_node_id":"0.0-8.0-1.0","experiment":"calibration","task_version":"1.0","jspsych_version":"6.3.1"},{"puzzle":"../static/img/is3/tf3/tf3_39_M_ss3.jpeg","item_order":[3,1,0,2],"correct":0,"choice":0,"accuracy":1,"rt":27775,"screen_resolution":[1080,1920],"minimum_resolution":1,"item_set":3,"item":39,"test_form":3,"distractor":"pd","trial_type":"mars","trial_index":8,"time_elapsed":85749,"internal_node_id":"0.0-8.0-2.0","experiment":"calibration","task_version":"1.0","jspsych_version":"6.3.1","browser_interactions":0},{"rt":null,"stimulus":"<div style=\"font-size:24px;\">Loading puzzle:<br>2 / 16</div>","response":null,"trial_type":"html-keyboard-response","trial_index":9,"time_elapsed":86952,"internal_node_id":"0.0-9.0-1.0","experiment":"calibration","task_version":"1.0","jspsych_version":"6.3.1"},{"puzzle":"../static/img/is3/tf3/tf3_20_M_ss2.jpeg","item_order":[0,1,2,3],"correct":0,"choice":0,"accuracy":1,"rt":21435,"screen_resolution":[1080,1920],"minimum_resolution":1,"item_set":3,"item":20,"test_form":3,"distractor":"pd","trial_type":"mars","trial_index":10,"time_elapsed":108390,"internal_node_id":"0.0-9.0-2.0","experiment":"calibration","task_version":"1.0","jspsych_version":"6.3.1","browser_interactions":0},{"rt":null,"stimulus":"<div style=\"font-size:24px;\">Loading puzzle:<br>3 / 16</div>","response":null,"trial_type":"html-keyboard-response","trial_index":11,"time_elapsed":109591,"internal_node_id":"0.0-10.0-1.0","experiment":"calibration","task_version":"1.0","jspsych_version":"6.3.1"},{"puzzle":"../static/img/is3/tf2/tf2_65_M_ss3.jpeg","item_order":[2,1,3,0],"correct":0,"choice":0,"accuracy":1,"rt":23293,"screen_resolution":[1080,1920],"minimum_resolution":1,"item_set":3,"item":65,"test_form":2,"distractor":"md","trial_type":"mars","trial_index":12,"time_elapsed":132885,"internal_node_id":"0.0-10.0-2.0","experiment":"calibration","task_version":"1.0","jspsych_version":"6.3.1","browser_interactions":0},{"rt":null,"stimulus":"<div style=\"font-size:24px;\">Loading puzzle:<br>4 / 16</div>","response":null,"trial_type":"html-keyboard-response","trial_index":13,"time_elapsed":134087,"internal_node_id":"0.0-11.0-1.0","experiment":"calibration","task_version":"1.0","jspsych_version":"6.3.1"},{"puzzle":"../static/img/is3/tf1/tf1_61_M_ss3.jpeg","item_order":[0,1,3,2],"correct":0,"choice":0,"accuracy":1,"rt":20122,"screen_resolution":[1080,1920],"minimum_resolution":1,"item_set":3,"item":61,"test_form":1,"distractor":"pd","trial_type":"mars","trial_index":14,"time_elapsed":154213,"internal_node_id":"0.0-11.0-2.0","experiment":"calibration","task_version":"1.0","jspsych_version":"6.3.1","browser_interactions":0},{"rt":null,"stimulus":"<div style=\"font-size:24px;\">Loading puzzle:<br>5 / 16</div>","response":null,"trial_type":"html-keyboard-response","trial_index":15,"time_elapsed":155414,"internal_node_id":"0.0-12.0-1.0","experiment":"calibration","task_version":"1.0","jspsych_version":"6.3.1"},{"puzzle":"../static/img/is3/tf1/tf1_18_M_ss2.jpeg","item_order":[1,0,2,3],"correct":0,"choice":0,"accuracy":1,"rt":21742,"screen_resolution":[1080,1920],"minimum_resolution":1,"item_set":3,"item":18,"test_form":1,"distractor":"pd","trial_type":"mars","trial_index":16,"time_elapsed":177157,"internal_node_id":"0.0-12.0-2.0","experiment":"calibration","task_version":"1.0","jspsych_version":"6.3.1","browser_interactions":0},{"rt":null,"stimulus":"<div style=\"font-size:24px;\">Loading puzzle:<br>6 / 16</div>","response":null,"trial_type":"html-keyboard-response","trial_index":17,"time_elapsed":178358,"internal_node_id":"0.0-13.0-1.0","experiment":"calibration","task_version":"1.0","jspsych_version":"6.3.1"},{"puzzle":"../static/img/is3/tf2/tf2_27_M_ss1.jpeg","item_order":[0,2,3,1],"correct":0,"choice":0,"accuracy":1,"rt":13189,"screen_resolution":[1080,1920],"minimum_resolution":1,"item_set":3,"item":27,"test_form":2,"distractor":"pd","trial_type":"mars","trial_index":18,"time_elapsed":191549,"internal_node_id":"0.0-13.0-2.0","experiment":"calibration","task_version":"1.0","jspsych_version":"6.3.1","browser_interactions":0},{"rt":null,"stimulus":"<div style=\"font-size:24px;\">Loading puzzle:<br>7 / 16</div>","response":null,"trial_type":"html-keyboard-response","trial_index":19,"time_elapsed":192751,"internal_node_id":"0.0-14.0-1.0","experiment":"calibration","task_version":"1.0","jspsych_version":"6.3.1"},{"puzzle":"../static/img/is3/tf2/tf2_77_M_ss3.jpeg","item_order":[3,0,1,2],"correct":0,"choice":0,"accuracy":1,"rt":16187,"screen_resolution":[1080,1920],"minimum_resolution":1,"item_set":3,"item":77,"test_form":2,"distractor":"md","trial_type":"mars","trial_index":20,"time_elapsed":208940,"internal_node_id":"0.0-14.0-2.0","experiment":"calibration","task_version":"1.0","jspsych_version":"6.3.1","browser_interactions":0},{"rt":null,"stimulus":"<div style=\"font-size:24px;\">Loading puzzle:<br>8 / 16</div>","response":null,"trial_type":"html-keyboard-response","trial_index":21,"time_elapsed":210142,"internal_node_id":"0.0-15.0-1.0","experiment":"calibration","task_version":"1.0","jspsych_version":"6.3.1"},{"puzzle":"../static/img/is3/tf2/tf2_56_M_ss3.jpeg","item_order":[1,3,0,2],"correct":0,"choice":0,"accuracy":1,"rt":25108,"screen_resolution":[1080,1920],"minimum_resolution":1,"item_set":3,"item":56,"test_form":2,"distractor":"md","trial_type":"mars","trial_index":22,"time_elapsed":235254,"internal_node_id":"0.0-15.0-2.0","experiment":"calibration","task_version":"1.0","jspsych_version":"6.3.1","browser_interactions":2},{"rt":null,"stimulus":"<div style=\"font-size:24px;\">Loading puzzle:<br>9 / 16</div>","response":null,"trial_type":"html-keyboard-response","trial_index":23,"time_elapsed":236455,"internal_node_id":"0.0-16.0-1.0","experiment":"calibration","task_version":"1.0","jspsych_version":"6.3.1"},{"puzzle":"../static/img/is3/tf1/tf1_79_M_ss3.jpeg","item_order":[2,0,1,3],"correct":0,"choice":null,"accuracy":null,"rt":null,"screen_resolution":[1080,1920],"minimum_resolution":1,"item_set":3,"item":79,"test_form":1,"distractor":"md","trial_type":"mars","trial_index":24,"time_elapsed":266457,"internal_node_id":"0.0-16.0-2.0","experiment":"calibration","task_version":"1.0","jspsych_version":"6.3.1","browser_interactions":0},{"rt":null,"stimulus":"<div style=\"font-size:24px;\">Loading puzzle:<br>10 / 16</div>","response":null,"trial_type":"html-keyboard-response","trial_index":25,"time_elapsed":267664,"internal_node_id":"0.0-17.0-1.0","experiment":"calibration","task_version":"1.0","jspsych_version":"6.3.1"},{"puzzle":"../static/img/is3/tf3/tf3_42_M_ss3.jpeg","item_order":[1,0,2,3],"correct":0,"choice":0,"accuracy":1,"rt":19414,"screen_resolution":[1080,1920],"minimum_resolution":1,"item_set":3,"item":42,"test_form":3,"distractor":"pd","trial_type":"mars","trial_index":26,"time_elapsed":287085,"internal_node_id":"0.0-17.0-2.0","experiment":"calibration","task_version":"1.0","jspsych_version":"6.3.1","browser_interactions":0},{"rt":null,"stimulus":"<div style=\"font-size:24px;\">Loading puzzle:<br>11 / 16</div>","response":null,"trial_type":"html-keyboard-response","trial_index":27,"time_elapsed":288286,"internal_node_id":"0.0-18.0-1.0","experiment":"calibration","task_version":"1.0","jspsych_version":"6.3.1"},{"puzzle":"../static/img/is3/tf2/tf2_67_M_ss2.jpeg","item_order":[3,2,0,1],"correct":0,"choice":0,"accuracy":1,"rt":20499,"screen_resolution":[1080,1920],"minimum_resolution":1,"item_set":3,"item":67,"test_form":2,"distractor":"md","trial_type":"mars","trial_index":28,"time_elapsed":308789,"internal_node_id":"0.0-18.0-2.0","experiment":"calibration","task_version":"1.0","jspsych_version":"6.3.1","browser_interactions":0},{"rt":null,"stimulus":"<div style=\"font-size:24px;\">Loading puzzle:<br>12 / 16</div>","response":null,"trial_type":"html-keyboard-response","trial_index":29,"time_elapsed":309992,"internal_node_id":"0.0-19.0-1.0","experiment":"calibration","task_version":"1.0","jspsych_version":"6.3.1"},{"puzzle":"../static/img/is3/tf1/tf1_52_M_ss3.jpeg","item_order":[3,2,1,0],"correct":0,"choice":0,"accuracy":1,"rt":27516,"screen_resolution":[1080,1920],"minimum_resolution":1,"item_set":3,"item":52,"test_form":1,"distractor":"md","trial_type":"mars","trial_index":30,"time_elapsed":337509,"internal_node_id":"0.0-19.0-2.0","experiment":"calibration","task_version":"1.0","jspsych_version":"6.3.1","browser_interactions":0},{"rt":null,"stimulus":"<div style=\"font-size:24px;\">Loading puzzle:<br>13 / 16</div>","response":null,"trial_type":"html-keyboard-response","trial_index":31,"time_elapsed":338711,"internal_node_id":"0.0-20.0-1.0","experiment":"calibration","task_version":"1.0","jspsych_version":"6.3.1"},{"puzzle":"../static/img/is3/tf3/tf3_64_M_ss1.jpeg","item_order":[1,3,2,0],"correct":0,"choice":0,"accuracy":1,"rt":23667,"screen_resolution":[1080,1920],"minimum_resolution":1,"item_set":3,"item":64,"test_form":3,"distractor":"pd","trial_type":"mars","trial_index":32,"time_elapsed":362380,"internal_node_id":"0.0-20.0-2.0","experiment":"calibration","task_version":"1.0","jspsych_version":"6.3.1","browser_interactions":0},{"rt":null,"stimulus":"<div style=\"font-size:24px;\">Loading puzzle:<br>14 / 16</div>","response":null,"trial_type":"html-keyboard-response","trial_index":33,"time_elapsed":363582,"internal_node_id":"0.0-21.0-1.0","experiment":"calibration","task_version":"1.0","jspsych_version":"6.3.1"},{"puzzle":"../static/img/is3/tf2/tf2_44_M_ss3.jpeg","item_order":[3,1,2,0],"correct":0,"choice":0,"accuracy":1,"rt":25864,"screen_resolution":[1080,1920],"minimum_resolution":1,"item_set":3,"item":44,"test_form":2,"distractor":"pd","trial_type":"mars","trial_index":34,"time_elapsed":389453,"internal_node_id":"0.0-21.0-2.0","experiment":"calibration","task_version":"1.0","jspsych_version":"6.3.1","browser_interactions":0},{"rt":null,"stimulus":"<div style=\"font-size:24px;\">Loading puzzle:<br>15 / 16</div>","response":null,"trial_type":"html-keyboard-response","trial_index":35,"time_elapsed":390656,"internal_node_id":"0.0-22.0-1.0","experiment":"calibration","task_version":"1.0","jspsych_version":"6.3.1"},{"puzzle":"../static/img/is3/tf1/tf1_45_M_ss2.jpeg","item_order":[3,0,1,2],"correct":0,"choice":0,"accuracy":1,"rt":17977,"screen_resolution":[1080,1920],"minimum_resolution":1,"item_set":3,"item":45,"test_form":1,"distractor":"pd","trial_type":"mars","trial_index":36,"time_elapsed":408636,"internal_node_id":"0.0-22.0-2.0","experiment":"calibration","task_version":"1.0","jspsych_version":"6.3.1","browser_interactions":0},{"rt":null,"stimulus":"<div style=\"font-size:24px;\">Loading puzzle:<br>16 / 16</div>","response":null,"trial_type":"html-keyboard-response","trial_index":37,"time_elapsed":409837,"internal_node_id":"0.0-23.0-1.0","experiment":"calibration","task_version":"1.0","jspsych_version":"6.3.1"},{"puzzle":"../static/img/is3/tf1/tf1_24_M_ss2.jpeg","item_order":[0,1,2,3],"correct":0,"choice":0,"accuracy":1,"rt":14837,"screen_resolution":[1080,1920],"minimum_resolution":1,"item_set":3,"item":24,"test_form":1,"distractor":"pd","trial_type":"mars","trial_index":38,"time_elapsed":424676,"internal_node_id":"0.0-23.0-2.0","experiment":"calibration","task_version":"1.0","jspsych_version":"6.3.1","browser_interactions":0},{"value":[0,1,0],"trial_type":"call-function","trial_index":39,"time_elapsed":424677,"internal_node_id":"0.0-24.0","experiment":"calibration","task_version":"1.0","jspsych_version":"6.3.1"},{"view_history":[{"page_index":0,"viewing_time":2854}],"rt":2855,"trial_type":"instructions","trial_index":40,"time_elapsed":427531,"internal_node_id":"0.0-25.0","experiment":"calibration","task_version":"1.0","jspsych_version":"6.3.1"},{"rt":21527,"responses":{"age":"33","gender-categorical":"Male","gender-free-response":"","ethnicity":"Not Hispanic or Latino","race":["White"],"education":"Master degree or higher","free-response":"My brain on fire"},"trial_type":"survey-demo","trial_index":41,"time_elapsed":449064,"internal_node_id":"0.0-26.0","experiment":"calibration","task_version":"1.0","jspsych_version":"6.3.1","interactions":"[{\"event\":\"fullscreenenter\",\"trial\":1,\"time\":21348},{\"event\":\"blur\",\"trial\":22,\"time\":211991},{\"event\":\"focus\",\"trial\":22,\"time\":213170}]"}]