[{"success":true,"timeout":false,"failed_images":[],"failed_audio":[],"failed_video":[],"trial_type":"preload","trial_index":0,"time_elapsed":20647,"internal_node_id":"0.0-0.0","experiment":"calibration","task_version":"1.0","jspsych_version":"6.3.1"},{"success":true,"trial_type":"fullscreen","trial_index":1,"time_elapsed":119053,"internal_node_id":"0.0-1.0","experiment":"calibration","task_version":"1.0","jspsych_version":"6.3.1"},{"view_history":[{"page_index":0,"viewing_time":2868},{"page_index":1,"viewing_time":1128},{"page_index":2,"viewing_time":928}],"rt":4924,"trial_type":"instructions","trial_index":2,"time_elapsed":124001,"internal_node_id":"0.0-3.0","experiment":"calibration","task_version":"1.0","jspsych_version":"6.3.1"},{"puzzle":"../static/img/practice/pt1_M1.png","item_order":[0,1,3,2],"correct":0,"choice":0,"accuracy":1,"rt":7921,"screen_resolution":[768,1366],"minimum_resolution":1,"item_set":"practice","trial_type":"mars","trial_index":3,"time_elapsed":134010,"internal_node_id":"0.0-4.0-0.0","experiment":"calibration","task_version":"1.0","jspsych_version":"6.3.1"},{"puzzle":"../static/img/practice/pt2_M1.png","item_order":[3,2,1,0],"correct":0,"choice":2,"accuracy":0,"rt":5425,"screen_resolution":[768,1366],"minimum_resolution":1,"item_set":"practice","trial_type":"mars","trial_index":4,"time_elapsed":141447,"internal_node_id":"0.0-5.0-0.0","experiment":"calibration","task_version":"1.0","jspsych_version":"6.3.1"},{"puzzle":"../static/img/practice/pt2_M1.png","item_order":[2,3,1,0],"correct":0,"choice":0,"accuracy":1,"rt":1023,"screen_resolution":[768,1366],"minimum_resolution":1,"item_set":"practice","trial_type":"mars","trial_index":5,"time_elapsed":144478,"internal_node_id":"0.0-5.1-0.1","experiment":"calibration","task_version":"1.0","jspsych_version":"6.3.1"},{"puzzle":"../static/img/practice/pt3_M1.png","item_order":[2,3,1,0],"correct":0,"choice":3,"accuracy":0,"rt":1798,"screen_resolution":[768,1366],"minimum_resolution":1,"item_set":"practice","trial_type":"mars","trial_index":6,"time_elapsed":148289,"internal_node_id":"0.0-6.0-0.0","experiment":"calibration","task_version":"1.0","jspsych_version":"6.3.1"},{"puzzle":"../static/img/practice/pt3_M1.png","item_order":[2,1,3,0],"correct":0,"choice":0,"accuracy":1,"rt":80,"screen_resolution":[768,1366],"minimum_resolution":1,"item_set":"practice","trial_type":"mars","trial_index":7,"time_elapsed":150383,"internal_node_id":"0.0-6.1-0.1","experiment":"calibration","task_version":"1.0","jspsych_version":"6.3.1"},{"view_history":[{"page_index":0,"viewing_time":1031},{"page_index":1,"viewing_time":896}],"rt":1927,"trial_type":"instructions","trial_index":8,"time_elapsed":152313,"internal_node_id":"0.0-7.0","experiment":"calibration","task_version":"1.0","jspsych_version":"6.3.1"},{"rt":null,"stimulus":"<div style=\"font-size:24px;\">Loading puzzle:<br>1 / 16</div>","response":null,"trial_type":"html-keyboard-response","trial_index":9,"time_elapsed":153518,"internal_node_id":"0.0-8.0-1.0","experiment":"calibration","task_version":"1.0","jspsych_version":"6.3.1"},{"puzzle":"../static/img/is3/tf2/tf2_22_M_ss2.jpeg","item_order":[3,1,2,0],"correct":0,"choice":2,"accuracy":0,"rt":7352,"screen_resolution":[768,1366],"minimum_resolution":1,"item_set":3,"item":22,"test_form":2,"distractor":"md","trial_type":"mars","trial_index":10,"time_elapsed":160873,"internal_node_id":"0.0-8.0-2.0","experiment":"calibration","task_version":"1.0","jspsych_version":"6.3.1","browser_interactions":0},{"rt":null,"stimulus":"<div style=\"font-size:24px;\">Loading puzzle:<br>2 / 16</div>","response":null,"trial_type":"html-keyboard-response","trial_index":11,"time_elapsed":162075,"internal_node_id":"0.0-9.0-1.0","experiment":"calibration","task_version":"1.0","jspsych_version":"6.3.1"},{"puzzle":"../static/img/is3/tf1/tf1_47_M_ss1.jpeg","item_order":[1,2,3,0],"correct":0,"choice":3,"accuracy":0,"rt":4170,"screen_resolution":[768,1366],"minimum_resolution":1,"item_set":3,"item":47,"test_form":1,"distractor":"md","trial_type":"mars","trial_index":12,"time_elapsed":166249,"internal_node_id":"0.0-9.0-2.0","experiment":"calibration","task_version":"1.0","jspsych_version":"6.3.1","browser_interactions":0},{"rt":null,"stimulus":"<div style=\"font-size:24px;\">Loading puzzle:<br>3 / 16</div>","response":null,"trial_type":"html-keyboard-response","trial_index":13,"time_elapsed":167457,"internal_node_id":"0.0-10.0-1.0","experiment":"calibration","task_version":"1.0","jspsych_version":"6.3.1"},{"puzzle":"../static/img/is3/tf3/tf3_61_M_ss1.jpeg","item_order":[0,1,2,3],"correct":0,"choice":1,"accuracy":0,"rt":3893,"screen_resolution":[768,1366],"minimum_resolution":1,"item_set":3,"item":61,"test_form":3,"distractor":"pd","trial_type":"mars","trial_index":14,"time_elapsed":171353,"internal_node_id":"0.0-10.0-2.0","experiment":"calibration","task_version":"1.0","jspsych_version":"6.3.1","browser_interactions":0},{"rt":null,"stimulus":"<div style=\"font-size:24px;\">Loading puzzle:<br>4 / 16</div>","response":null,"trial_type":"html-keyboard-response","trial_index":15,"time_elapsed":172556,"internal_node_id":"0.0-11.0-1.0","experiment":"calibration","task_version":"1.0","jspsych_version":"6.3.1"},{"puzzle":"../static/img/is3/tf1/tf1_71_M_ss1.jpeg","item_order":[0,2,3,1],"correct":0,"choice":2,"accuracy":0,"rt":12850,"screen_resolution":[768,1366],"minimum_resolution":1,"item_set":3,"item":71,"test_form":1,"distractor":"pd","trial_type":"mars","trial_index":16,"time_elapsed":185409,"internal_node_id":"0.0-11.0-2.0","experiment":"calibration","task_version":"1.0","jspsych_version":"6.3.1","browser_interactions":0},{"rt":null,"stimulus":"<div style=\"font-size:24px;\">Loading puzzle:<br>5 / 16</div>","response":null,"trial_type":"html-keyboard-response","trial_index":17,"time_elapsed":186611,"internal_node_id":"0.0-12.0-1.0","experiment":"calibration","task_version":"1.0","jspsych_version":"6.3.1"},{"puzzle":"../static/img/is3/tf3/tf3_37_M_ss1.jpeg","item_order":[3,0,2,1],"correct":0,"choice":3,"accuracy":0,"rt":16475,"screen_resolution":[768,1366],"minimum_resolution":1,"item_set":3,"item":37,"test_form":3,"distractor":"md","trial_type":"mars","trial_index":18,"time_elapsed":203089,"internal_node_id":"0.0-12.0-2.0","experiment":"calibration","task_version":"1.0","jspsych_version":"6.3.1","browser_interactions":0},{"rt":null,"stimulus":"<div style=\"font-size:24px;\">Loading puzzle:<br>6 / 16</div>","response":null,"trial_type":"html-keyboard-response","trial_index":19,"time_elapsed":204291,"internal_node_id":"0.0-13.0-1.0","experiment":"calibration","task_version":"1.0","jspsych_version":"6.3.1"},{"puzzle":"../static/img/is3/tf1/tf1_18_M_ss2.jpeg","item_order":[1,3,0,2],"correct":0,"choice":2,"accuracy":0,"rt":7594,"screen_resolution":[768,1366],"minimum_resolution":1,"item_set":3,"item":18,"test_form":1,"distractor":"md","trial_type":"mars","trial_index":20,"time_elapsed":211889,"internal_node_id":"0.0-13.0-2.0","experiment":"calibration","task_version":"1.0","jspsych_version":"6.3.1","browser_interactions":0},{"rt":null,"stimulus":"<div style=\"font-size:24px;\">Loading puzzle:<br>7 / 16</div>","response":null,"trial_type":"html-keyboard-response","trial_index":21,"time_elapsed":213100,"internal_node_id":"0.0-14.0-1.0","experiment":"calibration","task_version":"1.0","jspsych_version":"6.3.1"},{"puzzle":"../static/img/is3/tf1/tf1_56_M_ss1.jpeg","item_order":[3,2,1,0],"correct":0,"choice":1,"accuracy":0,"rt":13570,"screen_resolution":[768,1366],"minimum_resolution":1,"item_set":3,"item":56,"test_form":1,"distractor":"md","trial_type":"mars","trial_index":22,"time_elapsed":226673,"internal_node_id":"0.0-14.0-2.0","experiment":"calibration","task_version":"1.0","jspsych_version":"6.3.1","browser_interactions":0},{"rt":null,"stimulus":"<div style=\"font-size:24px;\">Loading puzzle:<br>8 / 16</div>","response":null,"trial_type":"html-keyboard-response","trial_index":23,"time_elapsed":227890,"internal_node_id":"0.0-15.0-1.0","experiment":"calibration","task_version":"1.0","jspsych_version":"6.3.1"},{"puzzle":"../static/img/is3/tf1/tf1_12_M_ss2.jpeg","item_order":[2,3,0,1],"correct":0,"choice":3,"accuracy":0,"rt":3321,"screen_resolution":[768,1366],"minimum_resolution":1,"item_set":3,"item":12,"test_form":1,"distractor":"pd","trial_type":"mars","trial_index":24,"time_elapsed":231217,"internal_node_id":"0.0-15.0-2.0","experiment":"calibration","task_version":"1.0","jspsych_version":"6.3.1","browser_interactions":0},{"rt":null,"stimulus":"<div style=\"font-size:24px;\">Loading puzzle:<br>9 / 16</div>","response":null,"trial_type":"html-keyboard-response","trial_index":25,"time_elapsed":232424,"internal_node_id":"0.0-16.0-1.0","experiment":"calibration","task_version":"1.0","jspsych_version":"6.3.1"},{"puzzle":"../static/img/is3/tf1/tf1_72_M_ss2.jpeg","item_order":[1,2,3,0],"correct":0,"choice":0,"accuracy":1,"rt":1614,"screen_resolution":[768,1366],"minimum_resolution":1,"item_set":3,"item":72,"test_form":1,"distractor":"pd","trial_type":"mars","trial_index":26,"time_elapsed":234041,"internal_node_id":"0.0-16.0-2.0","experiment":"calibration","task_version":"1.0","jspsych_version":"6.3.1","browser_interactions":0},{"rt":null,"stimulus":"<div style=\"font-size:24px;\">Loading puzzle:<br>10 / 16</div>","response":null,"trial_type":"html-keyboard-response","trial_index":27,"time_elapsed":235248,"internal_node_id":"0.0-17.0-1.0","experiment":"calibration","task_version":"1.0","jspsych_version":"6.3.1"},{"puzzle":"../static/img/is3/tf3/tf3_40_M_ss1.jpeg","item_order":[2,3,0,1],"correct":0,"choice":0,"accuracy":1,"rt":703,"screen_resolution":[768,1366],"minimum_resolution":1,"item_set":3,"item":40,"test_form":3,"distractor":"md","trial_type":"mars","trial_index":28,"time_elapsed":235953,"internal_node_id":"0.0-17.0-2.0","experiment":"calibration","task_version":"1.0","jspsych_version":"6.3.1","browser_interactions":0},{"rt":null,"stimulus":"<div style=\"font-size:24px;\">Loading puzzle:<br>11 / 16</div>","response":null,"trial_type":"html-keyboard-response","trial_index":29,"time_elapsed":237168,"internal_node_id":"0.0-18.0-1.0","experiment":"calibration","task_version":"1.0","jspsych_version":"6.3.1"},{"puzzle":"../static/img/is3/tf2/tf2_26_M_ss3.jpeg","item_order":[2,1,0,3],"correct":0,"choice":1,"accuracy":0,"rt":2652,"screen_resolution":[768,1366],"minimum_resolution":1,"item_set":3,"item":26,"test_form":2,"distractor":"md","trial_type":"mars","trial_index":30,"time_elapsed":239825,"internal_node_id":"0.0-18.0-2.0","experiment":"calibration","task_version":"1.0","jspsych_version":"6.3.1","browser_interactions":0},{"rt":null,"stimulus":"<div style=\"font-size:24px;\">Loading puzzle:<br>12 / 16</div>","response":null,"trial_type":"html-keyboard-response","trial_index":31,"time_elapsed":241027,"internal_node_id":"0.0-19.0-1.0","experiment":"calibration","task_version":"1.0","jspsych_version":"6.3.1"},{"puzzle":"../static/img/is3/tf2/tf2_63_M_ss1.jpeg","item_order":[3,1,2,0],"correct":0,"choice":1,"accuracy":0,"rt":11451,"screen_resolution":[768,1366],"minimum_resolution":1,"item_set":3,"item":63,"test_form":2,"distractor":"md","trial_type":"mars","trial_index":32,"time_elapsed":252481,"internal_node_id":"0.0-19.0-2.0","experiment":"calibration","task_version":"1.0","jspsych_version":"6.3.1","browser_interactions":0},{"rt":null,"stimulus":"<div style=\"font-size:24px;\">Loading puzzle:<br>13 / 16</div>","response":null,"trial_type":"html-keyboard-response","trial_index":33,"time_elapsed":253681,"internal_node_id":"0.0-20.0-1.0","experiment":"calibration","task_version":"1.0","jspsych_version":"6.3.1"},{"puzzle":"../static/img/is3/tf1/tf1_76_M_ss3.jpeg","item_order":[3,2,1,0],"correct":0,"choice":0,"accuracy":1,"rt":6996,"screen_resolution":[768,1366],"minimum_resolution":1,"item_set":3,"item":76,"test_form":1,"distractor":"pd","trial_type":"mars","trial_index":34,"time_elapsed":260681,"internal_node_id":"0.0-20.0-2.0","experiment":"calibration","task_version":"1.0","jspsych_version":"6.3.1","browser_interactions":0},{"rt":null,"stimulus":"<div style=\"font-size:24px;\">Loading puzzle:<br>14 / 16</div>","response":null,"trial_type":"html-keyboard-response","trial_index":35,"time_elapsed":261883,"internal_node_id":"0.0-21.0-1.0","experiment":"calibration","task_version":"1.0","jspsych_version":"6.3.1"},{"puzzle":"../static/img/is3/tf2/tf2_54_M_ss1.jpeg","item_order":[2,1,3,0],"correct":0,"choice":1,"accuracy":0,"rt":1202,"screen_resolution":[768,1366],"minimum_resolution":1,"item_set":3,"item":54,"test_form":2,"distractor":"pd","trial_type":"mars","trial_index":36,"time_elapsed":263089,"internal_node_id":"0.0-21.0-2.0","experiment":"calibration","task_version":"1.0","jspsych_version":"6.3.1","browser_interactions":0},{"rt":null,"stimulus":"<div style=\"font-size:24px;\">Loading puzzle:<br>15 / 16</div>","response":null,"trial_type":"html-keyboard-response","trial_index":37,"time_elapsed":264290,"internal_node_id":"0.0-22.0-1.0","experiment":"calibration","task_version":"1.0","jspsych_version":"6.3.1"},{"puzzle":"../static/img/is3/tf2/tf2_21_M_ss1.jpeg","item_order":[2,1,3,0],"correct":0,"choice":1,"accuracy":0,"rt":2876,"screen_resolution":[768,1366],"minimum_resolution":1,"item_set":3,"item":21,"test_form":2,"distractor":"md","trial_type":"mars","trial_index":38,"time_elapsed":267169,"internal_node_id":"0.0-22.0-2.0","experiment":"calibration","task_version":"1.0","jspsych_version":"6.3.1","browser_interactions":0},{"rt":null,"stimulus":"<div style=\"font-size:24px;\">Loading puzzle:<br>16 / 16</div>","response":null,"trial_type":"html-keyboard-response","trial_index":39,"time_elapsed":268371,"internal_node_id":"0.0-23.0-1.0","experiment":"calibration","task_version":"1.0","jspsych_version":"6.3.1"},{"puzzle":"../static/img/is3/tf2/tf2_45_M_ss1.jpeg","item_order":[3,1,0,2],"correct":0,"choice":1,"accuracy":0,"rt":6739,"screen_resolution":[768,1366],"minimum_resolution":1,"item_set":3,"item":45,"test_form":2,"distractor":"md","trial_type":"mars","trial_index":40,"time_elapsed":275113,"internal_node_id":"0.0-23.0-2.0","experiment":"calibration","task_version":"1.0","jspsych_version":"6.3.1","browser_interactions":0},{"value":[5,0,0],"trial_type":"call-function","trial_index":41,"time_elapsed":275113,"internal_node_id":"0.0-24.0","experiment":"calibration","task_version":"1.0","jspsych_version":"6.3.1"},{"view_history":[{"page_index":0,"viewing_time":2518}],"rt":2518,"trial_type":"instructions","trial_index":42,"time_elapsed":277632,"internal_node_id":"0.0-25.0","experiment":"calibration","task_version":"1.0","jspsych_version":"6.3.1"},{"rt":22036,"responses":{"age":"34","gender-categorical":"Male","gender-free-response":"","ethnicity":"Not Hispanic or Latino","race":["White"],"education":"Master degree or higher","free-response":"very good."},"trial_type":"survey-demo","trial_index":43,"time_elapsed":299764,"internal_node_id":"0.0-26.0","experiment":"calibration","task_version":"1.0","jspsych_version":"6.3.1","interactions":"[{\"event\":\"blur\",\"trial\":0,\"time\":832},{\"event\":\"focus\",\"trial\":1,\"time\":51885},{\"event\":\"blur\",\"trial\":1,\"time\":52979},{\"event\":\"focus\",\"trial\":1,\"time\":117071},{\"event\":\"fullscreenenter\",\"trial\":1,\"time\":118399}]"}]