[{"success":true,"timeout":false,"failed_images":[],"failed_audio":[],"failed_video":[],"trial_type":"preload","trial_index":0,"time_elapsed":7021,"internal_node_id":"0.0-0.0","experiment":"calibration","task_version":"1.0","jspsych_version":"6.3.1"},{"success":true,"trial_type":"fullscreen","trial_index":1,"time_elapsed":11453,"internal_node_id":"0.0-1.0","experiment":"calibration","task_version":"1.0","jspsych_version":"6.3.1"},{"view_history":[{"page_index":0,"viewing_time":7028.000000000004},{"page_index":1,"viewing_time":4139.999999999996},{"page_index":2,"viewing_time":2259}],"rt":13428,"trial_type":"instructions","trial_index":2,"time_elapsed":24903,"internal_node_id":"0.0-2.0","experiment":"calibration","task_version":"1.0","jspsych_version":"6.3.1"},{"puzzle":"../static/img/practice/pt1_M1.png","item_order":[1,0,3,2],"correct":0,"choice":0,"accuracy":1,"rt":6512,"screen_resolution":[1080,810],"minimum_resolution":1,"item_set":"practice","trial_type":"mars","trial_index":3,"time_elapsed":33424,"internal_node_id":"0.0-3.0-0.0","experiment":"calibration","task_version":"1.0","jspsych_version":"6.3.1"},{"puzzle":"../static/img/practice/pt2_M1.png","item_order":[2,0,1,3],"correct":0,"choice":0,"accuracy":1,"rt":3413,"screen_resolution":[1080,810],"minimum_resolution":1,"item_set":"practice","trial_type":"mars","trial_index":4,"time_elapsed":38853,"internal_node_id":"0.0-4.0-0.0","experiment":"calibration","task_version":"1.0","jspsych_version":"6.3.1"},{"puzzle":"../static/img/practice/pt3_M1.png","item_order":[2,0,1,3],"correct":0,"choice":0,"accuracy":1,"rt":2153,"screen_resolution":[1080,810],"minimum_resolution":1,"item_set":"practice","trial_type":"mars","trial_index":5,"time_elapsed":43017,"internal_node_id":"0.0-5.0-0.0","experiment":"calibration","task_version":"1.0","jspsych_version":"6.3.1"},{"view_history":[{"page_index":0,"viewing_time":1356},{"page_index":1,"viewing_time":8092}],"rt":9448,"trial_type":"instructions","trial_index":6,"time_elapsed":52471,"internal_node_id":"0.0-6.0","experiment":"calibration","task_version":"1.0","jspsych_version":"6.3.1"},{"rt":null,"stimulus":"<div style=\"font-size:24px;\">Loading puzzle:<br>1 / 16</div>","response":null,"trial_type":"html-keyboard-response","trial_index":7,"time_elapsed":53682,"internal_node_id":"0.0-7.0-0.0","experiment":"calibration","task_version":"1.0","jspsych_version":"6.3.1"},{"puzzle":"../static/img/is3/tf2/tf2_25_M_ss2.jpeg","item_order":[2,1,3,0],"correct":0,"choice":0,"accuracy":1,"rt":12369,"screen_resolution":[1080,810],"minimum_resolution":1,"item_set":3,"item":25,"test_form":2,"distractor":"md","trial_type":"mars","trial_index":8,"time_elapsed":66059,"internal_node_id":"0.0-7.0-1.0","experiment":"calibration","task_version":"1.0","jspsych_version":"6.3.1","browser_interactions":0},{"rt":null,"stimulus":"<div style=\"font-size:24px;\">Loading puzzle:<br>2 / 16</div>","response":null,"trial_type":"html-keyboard-response","trial_index":9,"time_elapsed":67265,"internal_node_id":"0.0-8.0-0.0","experiment":"calibration","task_version":"1.0","jspsych_version":"6.3.1"},{"puzzle":"../static/img/is3/tf1/tf1_6_M_ss2.jpeg","item_order":[1,0,3,2],"correct":0,"choice":1,"accuracy":0,"rt":8343,"screen_resolution":[1080,810],"minimum_resolution":1,"item_set":3,"item":6,"test_form":1,"distractor":"pd","trial_type":"mars","trial_index":10,"time_elapsed":75617,"internal_node_id":"0.0-8.0-1.0","experiment":"calibration","task_version":"1.0","jspsych_version":"6.3.1","browser_interactions":0},{"rt":null,"stimulus":"<div style=\"font-size:24px;\">Loading puzzle:<br>3 / 16</div>","response":null,"trial_type":"html-keyboard-response","trial_index":11,"time_elapsed":76823,"internal_node_id":"0.0-9.0-0.0","experiment":"calibration","task_version":"1.0","jspsych_version":"6.3.1"},{"puzzle":"../static/img/is3/tf2/tf2_71_M_ss3.jpeg","item_order":[0,1,2,3],"correct":0,"choice":0,"accuracy":1,"rt":7911,"screen_resolution":[1080,810],"minimum_resolution":1,"item_set":3,"item":71,"test_form":2,"distractor":"md","trial_type":"mars","trial_index":12,"time_elapsed":84738,"internal_node_id":"0.0-9.0-1.0","experiment":"calibration","task_version":"1.0","jspsych_version":"6.3.1","browser_interactions":0},{"rt":null,"stimulus":"<div style=\"font-size:24px;\">Loading puzzle:<br>4 / 16</div>","response":null,"trial_type":"html-keyboard-response","trial_index":13,"time_elapsed":85944,"internal_node_id":"0.0-10.0-0.0","experiment":"calibration","task_version":"1.0","jspsych_version":"6.3.1"},{"puzzle":"../static/img/is3/tf1/tf1_51_M_ss2.jpeg","item_order":[2,0,3,1],"correct":0,"choice":1,"accuracy":0,"rt":8332,"screen_resolution":[1080,810],"minimum_resolution":1,"item_set":3,"item":51,"test_form":1,"distractor":"pd","trial_type":"mars","trial_index":14,"time_elapsed":94286,"internal_node_id":"0.0-10.0-1.0","experiment":"calibration","task_version":"1.0","jspsych_version":"6.3.1","browser_interactions":0},{"rt":null,"stimulus":"<div style=\"font-size:24px;\">Loading puzzle:<br>5 / 16</div>","response":null,"trial_type":"html-keyboard-response","trial_index":15,"time_elapsed":95493,"internal_node_id":"0.0-11.0-0.0","experiment":"calibration","task_version":"1.0","jspsych_version":"6.3.1"},{"puzzle":"../static/img/is3/tf2/tf2_37_M_ss2.jpeg","item_order":[0,3,1,2],"correct":0,"choice":3,"accuracy":0,"rt":15551,"screen_resolution":[1080,810],"minimum_resolution":1,"item_set":3,"item":37,"test_form":2,"distractor":"md","trial_type":"mars","trial_index":16,"time_elapsed":111048,"internal_node_id":"0.0-11.0-1.0","experiment":"calibration","task_version":"1.0","jspsych_version":"6.3.1","browser_interactions":0},{"rt":null,"stimulus":"<div style=\"font-size:24px;\">Loading puzzle:<br>6 / 16</div>","response":null,"trial_type":"html-keyboard-response","trial_index":17,"time_elapsed":112255,"internal_node_id":"0.0-12.0-0.0","experiment":"calibration","task_version":"1.0","jspsych_version":"6.3.1"},{"puzzle":"../static/img/is3/tf1/tf1_13_M_ss3.jpeg","item_order":[0,3,2,1],"correct":0,"choice":1,"accuracy":0,"rt":9819,"screen_resolution":[1080,810],"minimum_resolution":1,"item_set":3,"item":13,"test_form":1,"distractor":"pd","trial_type":"mars","trial_index":18,"time_elapsed":122084,"internal_node_id":"0.0-12.0-1.0","experiment":"calibration","task_version":"1.0","jspsych_version":"6.3.1","browser_interactions":0},{"rt":null,"stimulus":"<div style=\"font-size:24px;\">Loading puzzle:<br>7 / 16</div>","response":null,"trial_type":"html-keyboard-response","trial_index":19,"time_elapsed":123291,"internal_node_id":"0.0-13.0-0.0","experiment":"calibration","task_version":"1.0","jspsych_version":"6.3.1"},{"puzzle":"../static/img/is3/tf2/tf2_17_M_ss3.jpeg","item_order":[0,1,2,3],"correct":0,"choice":3,"accuracy":0,"rt":10189,"screen_resolution":[1080,810],"minimum_resolution":1,"item_set":3,"item":17,"test_form":2,"distractor":"md","trial_type":"mars","trial_index":20,"time_elapsed":133485,"internal_node_id":"0.0-13.0-1.0","experiment":"calibration","task_version":"1.0","jspsych_version":"6.3.1","browser_interactions":0},{"rt":null,"stimulus":"<div style=\"font-size:24px;\">Loading puzzle:<br>8 / 16</div>","response":null,"trial_type":"html-keyboard-response","trial_index":21,"time_elapsed":134691,"internal_node_id":"0.0-14.0-0.0","experiment":"calibration","task_version":"1.0","jspsych_version":"6.3.1"},{"puzzle":"../static/img/is3/tf1/tf1_62_M_ss1.jpeg","item_order":[2,0,3,1],"correct":0,"choice":0,"accuracy":1,"rt":8343,"screen_resolution":[1080,810],"minimum_resolution":1,"item_set":3,"item":62,"test_form":1,"distractor":"pd","trial_type":"mars","trial_index":22,"time_elapsed":143043,"internal_node_id":"0.0-14.0-1.0","experiment":"calibration","task_version":"1.0","jspsych_version":"6.3.1","browser_interactions":0},{"rt":null,"stimulus":"<div style=\"font-size:24px;\">Loading puzzle:<br>9 / 16</div>","response":null,"trial_type":"html-keyboard-response","trial_index":23,"time_elapsed":144249,"internal_node_id":"0.0-15.0-0.0","experiment":"calibration","task_version":"1.0","jspsych_version":"6.3.1"},{"puzzle":"../static/img/is3/tf2/tf2_73_M_ss2.jpeg","item_order":[0,2,3,1],"correct":0,"choice":0,"accuracy":1,"rt":13073,"screen_resolution":[1080,810],"minimum_resolution":1,"item_set":3,"item":73,"test_form":2,"distractor":"md","trial_type":"mars","trial_index":24,"time_elapsed":157330,"internal_node_id":"0.0-15.0-1.0","experiment":"calibration","task_version":"1.0","jspsych_version":"6.3.1","browser_interactions":0},{"rt":null,"stimulus":"<div style=\"font-size:24px;\">Loading puzzle:<br>10 / 16</div>","response":null,"trial_type":"html-keyboard-response","trial_index":25,"time_elapsed":158536,"internal_node_id":"0.0-16.0-0.0","experiment":"calibration","task_version":"1.0","jspsych_version":"6.3.1"},{"puzzle":"../static/img/is3/tf1/tf1_53_M_ss1.jpeg","item_order":[2,1,0,3],"correct":0,"choice":0,"accuracy":1,"rt":8230,"screen_resolution":[1080,810],"minimum_resolution":1,"item_set":3,"item":53,"test_form":1,"distractor":"pd","trial_type":"mars","trial_index":26,"time_elapsed":166772,"internal_node_id":"0.0-16.0-1.0","experiment":"calibration","task_version":"1.0","jspsych_version":"6.3.1","browser_interactions":0},{"rt":null,"stimulus":"<div style=\"font-size:24px;\">Loading puzzle:<br>11 / 16</div>","response":null,"trial_type":"html-keyboard-response","trial_index":27,"time_elapsed":167980,"internal_node_id":"0.0-17.0-0.0","experiment":"calibration","task_version":"1.0","jspsych_version":"6.3.1"},{"puzzle":"../static/img/is3/tf2/tf2_59_M_ss3.jpeg","item_order":[0,2,1,3],"correct":0,"choice":2,"accuracy":0,"rt":6679.000000000029,"screen_resolution":[1080,810],"minimum_resolution":1,"item_set":3,"item":59,"test_form":2,"distractor":"md","trial_type":"mars","trial_index":28,"time_elapsed":174667,"internal_node_id":"0.0-17.0-1.0","experiment":"calibration","task_version":"1.0","jspsych_version":"6.3.1","browser_interactions":0},{"rt":null,"stimulus":"<div style=\"font-size:24px;\">Loading puzzle:<br>12 / 16</div>","response":null,"trial_type":"html-keyboard-response","trial_index":29,"time_elapsed":175874,"internal_node_id":"0.0-18.0-0.0","experiment":"calibration","task_version":"1.0","jspsych_version":"6.3.1"},{"puzzle":"../static/img/is3/tf1/tf1_52_M_ss3.jpeg","item_order":[2,3,0,1],"correct":0,"choice":0,"accuracy":1,"rt":7421,"screen_resolution":[1080,810],"minimum_resolution":1,"item_set":3,"item":52,"test_form":1,"distractor":"pd","trial_type":"mars","trial_index":30,"time_elapsed":183301,"internal_node_id":"0.0-18.0-1.0","experiment":"calibration","task_version":"1.0","jspsych_version":"6.3.1","browser_interactions":0},{"rt":null,"stimulus":"<div style=\"font-size:24px;\">Loading puzzle:<br>13 / 16</div>","response":null,"trial_type":"html-keyboard-response","trial_index":31,"time_elapsed":184506,"internal_node_id":"0.0-19.0-0.0","experiment":"calibration","task_version":"1.0","jspsych_version":"6.3.1"},{"puzzle":"../static/img/is3/tf1/tf1_44_M_ss1.jpeg","item_order":[2,1,0,3],"correct":0,"choice":1,"accuracy":0,"rt":8649,"screen_resolution":[1080,810],"minimum_resolution":1,"item_set":3,"item":44,"test_form":1,"distractor":"pd","trial_type":"mars","trial_index":32,"time_elapsed":193159,"internal_node_id":"0.0-19.0-1.0","experiment":"calibration","task_version":"1.0","jspsych_version":"6.3.1","browser_interactions":0},{"rt":null,"stimulus":"<div style=\"font-size:24px;\">Loading puzzle:<br>14 / 16</div>","response":null,"trial_type":"html-keyboard-response","trial_index":33,"time_elapsed":194367,"internal_node_id":"0.0-20.0-0.0","experiment":"calibration","task_version":"1.0","jspsych_version":"6.3.1"},{"puzzle":"../static/img/is3/tf2/tf2_64_M_ss2.jpeg","item_order":[3,1,0,2],"correct":0,"choice":2,"accuracy":0,"rt":4473,"screen_resolution":[1080,810],"minimum_resolution":1,"item_set":3,"item":64,"test_form":2,"distractor":"md","trial_type":"mars","trial_index":34,"time_elapsed":198848,"internal_node_id":"0.0-20.0-1.0","experiment":"calibration","task_version":"1.0","jspsych_version":"6.3.1","browser_interactions":0},{"rt":null,"stimulus":"<div style=\"font-size:24px;\">Loading puzzle:<br>15 / 16</div>","response":null,"trial_type":"html-keyboard-response","trial_index":35,"time_elapsed":200055,"internal_node_id":"0.0-21.0-0.0","experiment":"calibration","task_version":"1.0","jspsych_version":"6.3.1"},{"puzzle":"../static/img/is3/tf2/tf2_35_M_ss3.jpeg","item_order":[0,1,3,2],"correct":0,"choice":2,"accuracy":0,"rt":1509,"screen_resolution":[1080,810],"minimum_resolution":1,"item_set":3,"item":35,"test_form":2,"distractor":"md","trial_type":"mars","trial_index":36,"time_elapsed":201571,"internal_node_id":"0.0-21.0-1.0","experiment":"calibration","task_version":"1.0","jspsych_version":"6.3.1","browser_interactions":0},{"rt":null,"stimulus":"<div style=\"font-size:24px;\">Loading puzzle:<br>16 / 16</div>","response":null,"trial_type":"html-keyboard-response","trial_index":37,"time_elapsed":202776,"internal_node_id":"0.0-22.0-0.0","experiment":"calibration","task_version":"1.0","jspsych_version":"6.3.1"},{"puzzle":"../static/img/is3/tf1/tf1_21_M_ss2.jpeg","item_order":[2,1,0,3],"correct":0,"choice":0,"accuracy":1,"rt":1664,"screen_resolution":[1080,810],"minimum_resolution":1,"item_set":3,"item":21,"test_form":1,"distractor":"pd","trial_type":"mars","trial_index":38,"time_elapsed":204447,"internal_node_id":"0.0-22.0-1.0","experiment":"calibration","task_version":"1.0","jspsych_version":"6.3.1","browser_interactions":0},{"view_history":[{"page_index":0,"viewing_time":2515}],"rt":2515,"trial_type":"instructions","trial_index":39,"time_elapsed":206968,"internal_node_id":"0.0-23.0","experiment":"calibration","task_version":"1.0","jspsych_version":"6.3.1"},{"rt":17030,"responses":{"age":"21","gender-categorical":"Female","gender-free-response":"","ethnicity":"Hispanic or Latino","race":["White"],"education":"Some college","free-response":""},"trial_type":"survey-demo","trial_index":40,"time_elapsed":224006,"internal_node_id":"0.0-24.0","experiment":"calibration","task_version":"1.0","jspsych_version":"6.3.1","interactions":"[{\"event\":\"blur\",\"trial\":1,\"time\":10527},{\"event\":\"focus\",\"trial\":1,\"time\":10528},{\"event\":\"blur\",\"trial\":1,\"time\":10529},{\"event\":\"fullscreenenter\",\"trial\":1,\"time\":10555},{\"event\":\"focus\",\"trial\":1,\"time\":10788},{\"event\":\"fullscreenexit\",\"trial\":40,\"time\":209621}]"}]