[{"success":true,"timeout":false,"failed_images":[],"failed_audio":[],"failed_video":[],"trial_type":"preload","trial_index":0,"time_elapsed":4166,"internal_node_id":"0.0-0.0","experiment":"calibration","task_version":"1.0","jspsych_version":"6.3.1"},{"success":true,"trial_type":"fullscreen","trial_index":1,"time_elapsed":8410,"internal_node_id":"0.0-1.0","experiment":"calibration","task_version":"1.0","jspsych_version":"6.3.1"},{"view_history":[{"page_index":0,"viewing_time":11728.59999999404},{"page_index":1,"viewing_time":7392.5},{"page_index":2,"viewing_time":2860.5}],"rt":21982.5,"trial_type":"instructions","trial_index":2,"time_elapsed":30395,"internal_node_id":"0.0-3.0","experiment":"calibration","task_version":"1.0","jspsych_version":"6.3.1"},{"puzzle":"../static/img/practice/pt1_M1.png","item_order":[1,3,2,0],"correct":0,"choice":2,"accuracy":0,"rt":9555.299999982119,"screen_resolution":[900,1600],"minimum_resolution":1,"item_set":"practice","trial_type":"mars","trial_index":3,"time_elapsed":41954,"internal_node_id":"0.0-4.0-0.0","experiment":"calibration","task_version":"1.0","jspsych_version":"6.3.1"},{"puzzle":"../static/img/practice/pt1_M1.png","item_order":[1,2,3,0],"correct":0,"choice":0,"accuracy":1,"rt":1197.300000011921,"screen_resolution":[900,1600],"minimum_resolution":1,"item_set":"practice","trial_type":"mars","trial_index":4,"time_elapsed":45155,"internal_node_id":"0.0-4.1-0.1","experiment":"calibration","task_version":"1.0","jspsych_version":"6.3.1"},{"puzzle":"../static/img/practice/pt2_M1.png","item_order":[3,1,0,2],"correct":0,"choice":0,"accuracy":1,"rt":2769.2999999821186,"screen_resolution":[900,1600],"minimum_resolution":1,"item_set":"practice","trial_type":"mars","trial_index":5,"time_elapsed":49927,"internal_node_id":"0.0-5.0-0.0","experiment":"calibration","task_version":"1.0","jspsych_version":"6.3.1"},{"puzzle":"../static/img/practice/pt3_M1.png","item_order":[2,0,3,1],"correct":0,"choice":0,"accuracy":1,"rt":1797,"screen_resolution":[900,1600],"minimum_resolution":1,"item_set":"practice","trial_type":"mars","trial_index":6,"time_elapsed":53728,"internal_node_id":"0.0-6.0-0.0","experiment":"calibration","task_version":"1.0","jspsych_version":"6.3.1"},{"view_history":[{"page_index":0,"viewing_time":1237.699999988079},{"page_index":1,"viewing_time":7725.800000011921}],"rt":8963.800000011921,"trial_type":"instructions","trial_index":7,"time_elapsed":62692,"internal_node_id":"0.0-7.0","experiment":"calibration","task_version":"1.0","jspsych_version":"6.3.1"},{"rt":null,"stimulus":"<div style=\"font-size:24px;\">Loading puzzle:<br>1 / 16</div>","response":null,"trial_type":"html-keyboard-response","trial_index":8,"time_elapsed":63897,"internal_node_id":"0.0-8.0-1.0","experiment":"calibration","task_version":"1.0","jspsych_version":"6.3.1"},{"puzzle":"../static/img/is3/tf3/tf3_47_M_ss2.jpeg","item_order":[2,3,1,0],"correct":0,"choice":0,"accuracy":1,"rt":26526,"screen_resolution":[900,1600],"minimum_resolution":1,"item_set":3,"item":47,"test_form":3,"distractor":"pd","trial_type":"mars","trial_index":9,"time_elapsed":90429,"internal_node_id":"0.0-8.0-2.0","experiment":"calibration","task_version":"1.0","jspsych_version":"6.3.1","browser_interactions":0},{"rt":null,"stimulus":"<div style=\"font-size:24px;\">Loading puzzle:<br>2 / 16</div>","response":null,"trial_type":"html-keyboard-response","trial_index":10,"time_elapsed":91631,"internal_node_id":"0.0-9.0-1.0","experiment":"calibration","task_version":"1.0","jspsych_version":"6.3.1"},{"puzzle":"../static/img/is3/tf1/tf1_19_M_ss3.jpeg","item_order":[1,2,0,3],"correct":0,"choice":0,"accuracy":1,"rt":22097.40000000596,"screen_resolution":[900,1600],"minimum_resolution":1,"item_set":3,"item":19,"test_form":1,"distractor":"md","trial_type":"mars","trial_index":11,"time_elapsed":113732,"internal_node_id":"0.0-9.0-2.0","experiment":"calibration","task_version":"1.0","jspsych_version":"6.3.1","browser_interactions":0},{"rt":null,"stimulus":"<div style=\"font-size:24px;\">Loading puzzle:<br>3 / 16</div>","response":null,"trial_type":"html-keyboard-response","trial_index":12,"time_elapsed":114933,"internal_node_id":"0.0-10.0-1.0","experiment":"calibration","task_version":"1.0","jspsych_version":"6.3.1"},{"puzzle":"../static/img/is3/tf1/tf1_51_M_ss2.jpeg","item_order":[1,3,2,0],"correct":0,"choice":0,"accuracy":1,"rt":21046.59999999404,"screen_resolution":[900,1600],"minimum_resolution":1,"item_set":3,"item":51,"test_form":1,"distractor":"md","trial_type":"mars","trial_index":13,"time_elapsed":135985,"internal_node_id":"0.0-10.0-2.0","experiment":"calibration","task_version":"1.0","jspsych_version":"6.3.1","browser_interactions":0},{"rt":null,"stimulus":"<div style=\"font-size:24px;\">Loading puzzle:<br>4 / 16</div>","response":null,"trial_type":"html-keyboard-response","trial_index":14,"time_elapsed":137187,"internal_node_id":"0.0-11.0-1.0","experiment":"calibration","task_version":"1.0","jspsych_version":"6.3.1"},{"puzzle":"../static/img/is3/tf3/tf3_65_M_ss2.jpeg","item_order":[3,2,0,1],"correct":0,"choice":0,"accuracy":1,"rt":11992.40000000596,"screen_resolution":[900,1600],"minimum_resolution":1,"item_set":3,"item":65,"test_form":3,"distractor":"md","trial_type":"mars","trial_index":15,"time_elapsed":149181,"internal_node_id":"0.0-11.0-2.0","experiment":"calibration","task_version":"1.0","jspsych_version":"6.3.1","browser_interactions":0},{"rt":null,"stimulus":"<div style=\"font-size:24px;\">Loading puzzle:<br>5 / 16</div>","response":null,"trial_type":"html-keyboard-response","trial_index":16,"time_elapsed":150382,"internal_node_id":"0.0-12.0-1.0","experiment":"calibration","task_version":"1.0","jspsych_version":"6.3.1"},{"puzzle":"../static/img/is3/tf1/tf1_31_M_ss3.jpeg","item_order":[3,0,2,1],"correct":0,"choice":0,"accuracy":1,"rt":22873.90000000596,"screen_resolution":[900,1600],"minimum_resolution":1,"item_set":3,"item":31,"test_form":1,"distractor":"pd","trial_type":"mars","trial_index":17,"time_elapsed":173259,"internal_node_id":"0.0-12.0-2.0","experiment":"calibration","task_version":"1.0","jspsych_version":"6.3.1","browser_interactions":0},{"rt":null,"stimulus":"<div style=\"font-size:24px;\">Loading puzzle:<br>6 / 16</div>","response":null,"trial_type":"html-keyboard-response","trial_index":18,"time_elapsed":174462,"internal_node_id":"0.0-13.0-1.0","experiment":"calibration","task_version":"1.0","jspsych_version":"6.3.1"},{"puzzle":"../static/img/is3/tf2/tf2_15_M_ss1.jpeg","item_order":[0,1,2,3],"correct":0,"choice":0,"accuracy":1,"rt":10541.199999988079,"screen_resolution":[900,1600],"minimum_resolution":1,"item_set":3,"item":15,"test_form":2,"distractor":"pd","trial_type":"mars","trial_index":19,"time_elapsed":185006,"internal_node_id":"0.0-13.0-2.0","experiment":"calibration","task_version":"1.0","jspsych_version":"6.3.1","browser_interactions":0},{"rt":null,"stimulus":"<div style=\"font-size:24px;\">Loading puzzle:<br>7 / 16</div>","response":null,"trial_type":"html-keyboard-response","trial_index":20,"time_elapsed":186208,"internal_node_id":"0.0-14.0-1.0","experiment":"calibration","task_version":"1.0","jspsych_version":"6.3.1"},{"puzzle":"../static/img/is3/tf1/tf1_62_M_ss1.jpeg","item_order":[2,0,3,1],"correct":0,"choice":0,"accuracy":1,"rt":11852.300000011921,"screen_resolution":[900,1600],"minimum_resolution":1,"item_set":3,"item":62,"test_form":1,"distractor":"pd","trial_type":"mars","trial_index":21,"time_elapsed":198064,"internal_node_id":"0.0-14.0-2.0","experiment":"calibration","task_version":"1.0","jspsych_version":"6.3.1","browser_interactions":0},{"rt":null,"stimulus":"<div style=\"font-size:24px;\">Loading puzzle:<br>8 / 16</div>","response":null,"trial_type":"html-keyboard-response","trial_index":22,"time_elapsed":199266,"internal_node_id":"0.0-15.0-1.0","experiment":"calibration","task_version":"1.0","jspsych_version":"6.3.1"},{"puzzle":"../static/img/is3/tf3/tf3_17_M_ss2.jpeg","item_order":[3,1,2,0],"correct":0,"choice":0,"accuracy":1,"rt":11470.899999976158,"screen_resolution":[900,1600],"minimum_resolution":1,"item_set":3,"item":17,"test_form":3,"distractor":"pd","trial_type":"mars","trial_index":23,"time_elapsed":210741,"internal_node_id":"0.0-15.0-2.0","experiment":"calibration","task_version":"1.0","jspsych_version":"6.3.1","browser_interactions":0},{"rt":null,"stimulus":"<div style=\"font-size:24px;\">Loading puzzle:<br>9 / 16</div>","response":null,"trial_type":"html-keyboard-response","trial_index":24,"time_elapsed":211942,"internal_node_id":"0.0-16.0-1.0","experiment":"calibration","task_version":"1.0","jspsych_version":"6.3.1"},{"puzzle":"../static/img/is3/tf1/tf1_42_M_ss2.jpeg","item_order":[0,2,1,3],"correct":0,"choice":0,"accuracy":1,"rt":10142.09999999404,"screen_resolution":[900,1600],"minimum_resolution":1,"item_set":3,"item":42,"test_form":1,"distractor":"md","trial_type":"mars","trial_index":25,"time_elapsed":222088,"internal_node_id":"0.0-16.0-2.0","experiment":"calibration","task_version":"1.0","jspsych_version":"6.3.1","browser_interactions":0},{"rt":null,"stimulus":"<div style=\"font-size:24px;\">Loading puzzle:<br>10 / 16</div>","response":null,"trial_type":"html-keyboard-response","trial_index":26,"time_elapsed":223290,"internal_node_id":"0.0-17.0-1.0","experiment":"calibration","task_version":"1.0","jspsych_version":"6.3.1"},{"puzzle":"../static/img/is3/tf3/tf3_72_M_ss3.jpeg","item_order":[2,3,0,1],"correct":0,"choice":2,"accuracy":0,"rt":18817.70000001788,"screen_resolution":[900,1600],"minimum_resolution":1,"item_set":3,"item":72,"test_form":3,"distractor":"md","trial_type":"mars","trial_index":27,"time_elapsed":242110,"internal_node_id":"0.0-17.0-2.0","experiment":"calibration","task_version":"1.0","jspsych_version":"6.3.1","browser_interactions":0},{"rt":null,"stimulus":"<div style=\"font-size:24px;\">Loading puzzle:<br>11 / 16</div>","response":null,"trial_type":"html-keyboard-response","trial_index":28,"time_elapsed":243311,"internal_node_id":"0.0-18.0-1.0","experiment":"calibration","task_version":"1.0","jspsych_version":"6.3.1"},{"puzzle":"../static/img/is3/tf3/tf3_74_M_ss2.jpeg","item_order":[1,0,2,3],"correct":0,"choice":1,"accuracy":0,"rt":20199.69999998808,"screen_resolution":[900,1600],"minimum_resolution":1,"item_set":3,"item":74,"test_form":3,"distractor":"pd","trial_type":"mars","trial_index":29,"time_elapsed":263515,"internal_node_id":"0.0-18.0-2.0","experiment":"calibration","task_version":"1.0","jspsych_version":"6.3.1","browser_interactions":0},{"rt":null,"stimulus":"<div style=\"font-size:24px;\">Loading puzzle:<br>12 / 16</div>","response":null,"trial_type":"html-keyboard-response","trial_index":30,"time_elapsed":264717,"internal_node_id":"0.0-19.0-1.0","experiment":"calibration","task_version":"1.0","jspsych_version":"6.3.1"},{"puzzle":"../static/img/is3/tf1/tf1_26_M_ss1.jpeg","item_order":[1,0,2,3],"correct":0,"choice":0,"accuracy":1,"rt":24572.19999998808,"screen_resolution":[900,1600],"minimum_resolution":1,"item_set":3,"item":26,"test_form":1,"distractor":"pd","trial_type":"mars","trial_index":31,"time_elapsed":289293,"internal_node_id":"0.0-19.0-2.0","experiment":"calibration","task_version":"1.0","jspsych_version":"6.3.1","browser_interactions":0},{"rt":null,"stimulus":"<div style=\"font-size:24px;\">Loading puzzle:<br>13 / 16</div>","response":null,"trial_type":"html-keyboard-response","trial_index":32,"time_elapsed":290495,"internal_node_id":"0.0-20.0-1.0","experiment":"calibration","task_version":"1.0","jspsych_version":"6.3.1"},{"puzzle":"../static/img/is3/tf1/tf1_44_M_ss1.jpeg","item_order":[0,1,3,2],"correct":0,"choice":0,"accuracy":1,"rt":11992.899999976158,"screen_resolution":[900,1600],"minimum_resolution":1,"item_set":3,"item":44,"test_form":1,"distractor":"pd","trial_type":"mars","trial_index":33,"time_elapsed":302491,"internal_node_id":"0.0-20.0-2.0","experiment":"calibration","task_version":"1.0","jspsych_version":"6.3.1","browser_interactions":0},{"rt":null,"stimulus":"<div style=\"font-size:24px;\">Loading puzzle:<br>14 / 16</div>","response":null,"trial_type":"html-keyboard-response","trial_index":34,"time_elapsed":303693,"internal_node_id":"0.0-21.0-1.0","experiment":"calibration","task_version":"1.0","jspsych_version":"6.3.1"},{"puzzle":"../static/img/is3/tf2/tf2_54_M_ss1.jpeg","item_order":[2,1,0,3],"correct":0,"choice":0,"accuracy":1,"rt":11500,"screen_resolution":[900,1600],"minimum_resolution":1,"item_set":3,"item":54,"test_form":2,"distractor":"pd","trial_type":"mars","trial_index":35,"time_elapsed":315196,"internal_node_id":"0.0-21.0-2.0","experiment":"calibration","task_version":"1.0","jspsych_version":"6.3.1","browser_interactions":0},{"rt":null,"stimulus":"<div style=\"font-size:24px;\">Loading puzzle:<br>15 / 16</div>","response":null,"trial_type":"html-keyboard-response","trial_index":36,"time_elapsed":316397,"internal_node_id":"0.0-22.0-1.0","experiment":"calibration","task_version":"1.0","jspsych_version":"6.3.1"},{"puzzle":"../static/img/is3/tf2/tf2_24_M_ss1.jpeg","item_order":[1,0,3,2],"correct":0,"choice":0,"accuracy":1,"rt":17397.20000001788,"screen_resolution":[900,1600],"minimum_resolution":1,"item_set":3,"item":24,"test_form":2,"distractor":"md","trial_type":"mars","trial_index":37,"time_elapsed":333799,"internal_node_id":"0.0-22.0-2.0","experiment":"calibration","task_version":"1.0","jspsych_version":"6.3.1","browser_interactions":0},{"rt":null,"stimulus":"<div style=\"font-size:24px;\">Loading puzzle:<br>16 / 16</div>","response":null,"trial_type":"html-keyboard-response","trial_index":38,"time_elapsed":335001,"internal_node_id":"0.0-23.0-1.0","experiment":"calibration","task_version":"1.0","jspsych_version":"6.3.1"},{"puzzle":"../static/img/is3/tf1/tf1_78_M_ss2.jpeg","item_order":[1,2,3,0],"correct":0,"choice":3,"accuracy":0,"rt":12990.100000023842,"screen_resolution":[900,1600],"minimum_resolution":1,"item_set":3,"item":78,"test_form":1,"distractor":"md","trial_type":"mars","trial_index":39,"time_elapsed":347995,"internal_node_id":"0.0-23.0-2.0","experiment":"calibration","task_version":"1.0","jspsych_version":"6.3.1","browser_interactions":0},{"value":[0,0,0],"trial_type":"call-function","trial_index":40,"time_elapsed":347996,"internal_node_id":"0.0-24.0","experiment":"calibration","task_version":"1.0","jspsych_version":"6.3.1"},{"view_history":[{"page_index":0,"viewing_time":3703}],"rt":3703.2000000178814,"trial_type":"instructions","trial_index":41,"time_elapsed":351701,"internal_node_id":"0.0-25.0","experiment":"calibration","task_version":"1.0","jspsych_version":"6.3.1"},{"rt":11856.5,"responses":{"age":"32","gender-categorical":"Female","gender-free-response":"","ethnicity":"Not Hispanic or Latino","race":["White"],"education":"Bachelor degree","free-response":""},"trial_type":"survey-demo","trial_index":42,"time_elapsed":363559,"internal_node_id":"0.0-26.0","experiment":"calibration","task_version":"1.0","jspsych_version":"6.3.1","interactions":"[{\"event\":\"fullscreenenter\",\"trial\":1,\"time\":7425}]"}]