[{"success":true,"timeout":false,"failed_images":[],"failed_audio":[],"failed_video":[],"trial_type":"preload","trial_index":0,"time_elapsed":41020,"internal_node_id":"0.0-0.0","experiment":"calibration","task_version":"1.0","jspsych_version":"6.3.1"},{"success":true,"trial_type":"fullscreen","trial_index":1,"time_elapsed":53205,"internal_node_id":"0.0-1.0","experiment":"calibration","task_version":"1.0","jspsych_version":"6.3.1"},{"view_history":[{"page_index":0,"viewing_time":7332},{"page_index":1,"viewing_time":36542},{"page_index":2,"viewing_time":1800}],"rt":45674,"trial_type":"instructions","trial_index":2,"time_elapsed":98889,"internal_node_id":"0.0-2.0","experiment":"calibration","task_version":"1.0","jspsych_version":"6.3.1"},{"puzzle":"../static/img/practice/pt1_M1.png","item_order":[1,3,2,0],"correct":0,"choice":0,"accuracy":1,"rt":3013,"screen_resolution":[665,1696],"minimum_resolution":1,"item_set":"practice","trial_type":"mars","trial_index":3,"time_elapsed":103915,"internal_node_id":"0.0-3.0-0.0","experiment":"calibration","task_version":"1.0","jspsych_version":"6.3.1"},{"puzzle":"../static/img/practice/pt2_M1.png","item_order":[1,2,0,3],"correct":0,"choice":0,"accuracy":1,"rt":1874,"screen_resolution":[665,1696],"minimum_resolution":1,"item_set":"practice","trial_type":"mars","trial_index":4,"time_elapsed":107794,"internal_node_id":"0.0-4.0-0.0","experiment":"calibration","task_version":"1.0","jspsych_version":"6.3.1"},{"puzzle":"../static/img/practice/pt3_M1.png","item_order":[2,3,1,0],"correct":0,"choice":0,"accuracy":1,"rt":1197,"screen_resolution":[665,1696],"minimum_resolution":1,"item_set":"practice","trial_type":"mars","trial_index":5,"time_elapsed":111009,"internal_node_id":"0.0-5.0-0.0","experiment":"calibration","task_version":"1.0","jspsych_version":"6.3.1"},{"view_history":[{"page_index":0,"viewing_time":1102},{"page_index":1,"viewing_time":35904}],"rt":37007,"trial_type":"instructions","trial_index":6,"time_elapsed":148017,"internal_node_id":"0.0-6.0","experiment":"calibration","task_version":"1.0","jspsych_version":"6.3.1"},{"rt":null,"stimulus":"<div style=\"font-size:24px;\">Loading puzzle:<br>1 / 16</div>","response":null,"trial_type":"html-keyboard-response","trial_index":7,"time_elapsed":149236,"internal_node_id":"0.0-7.0-0.0","experiment":"calibration","task_version":"1.0","jspsych_version":"6.3.1"},{"puzzle":"../static/img/is3/tf1/tf1_20_M_ss1.jpeg","item_order":[0,2,3,1],"correct":0,"choice":1,"accuracy":0,"rt":9733,"screen_resolution":[665,1696],"minimum_resolution":1,"item_set":3,"item":20,"test_form":1,"distractor":"md","trial_type":"mars","trial_index":8,"time_elapsed":158971,"internal_node_id":"0.0-7.0-1.0","experiment":"calibration","task_version":"1.0","jspsych_version":"6.3.1","browser_interactions":0},{"rt":null,"stimulus":"<div style=\"font-size:24px;\">Loading puzzle:<br>2 / 16</div>","response":null,"trial_type":"html-keyboard-response","trial_index":9,"time_elapsed":160175,"internal_node_id":"0.0-8.0-0.0","experiment":"calibration","task_version":"1.0","jspsych_version":"6.3.1"},{"puzzle":"../static/img/is3/tf2/tf2_25_M_ss2.jpeg","item_order":[1,0,2,3],"correct":0,"choice":0,"accuracy":1,"rt":13791,"screen_resolution":[665,1696],"minimum_resolution":1,"item_set":3,"item":25,"test_form":2,"distractor":"pd","trial_type":"mars","trial_index":10,"time_elapsed":173969,"internal_node_id":"0.0-8.0-1.0","experiment":"calibration","task_version":"1.0","jspsych_version":"6.3.1","browser_interactions":0},{"rt":null,"stimulus":"<div style=\"font-size:24px;\">Loading puzzle:<br>3 / 16</div>","response":null,"trial_type":"html-keyboard-response","trial_index":11,"time_elapsed":175180,"internal_node_id":"0.0-9.0-0.0","experiment":"calibration","task_version":"1.0","jspsych_version":"6.3.1"},{"puzzle":"../static/img/is3/tf2/tf2_71_M_ss3.jpeg","item_order":[0,1,3,2],"correct":0,"choice":0,"accuracy":1,"rt":18668,"screen_resolution":[665,1696],"minimum_resolution":1,"item_set":3,"item":71,"test_form":2,"distractor":"pd","trial_type":"mars","trial_index":12,"time_elapsed":193850,"internal_node_id":"0.0-9.0-1.0","experiment":"calibration","task_version":"1.0","jspsych_version":"6.3.1","browser_interactions":2},{"rt":null,"stimulus":"<div style=\"font-size:24px;\">Loading puzzle:<br>4 / 16</div>","response":null,"trial_type":"html-keyboard-response","trial_index":13,"time_elapsed":195052,"internal_node_id":"0.0-10.0-0.0","experiment":"calibration","task_version":"1.0","jspsych_version":"6.3.1"},{"puzzle":"../static/img/is3/tf1/tf1_61_M_ss3.jpeg","item_order":[2,0,1,3],"correct":0,"choice":0,"accuracy":1,"rt":15076,"screen_resolution":[665,1696],"minimum_resolution":1,"item_set":3,"item":61,"test_form":1,"distractor":"pd","trial_type":"mars","trial_index":14,"time_elapsed":210130,"internal_node_id":"0.0-10.0-1.0","experiment":"calibration","task_version":"1.0","jspsych_version":"6.3.1","browser_interactions":0},{"rt":null,"stimulus":"<div style=\"font-size:24px;\">Loading puzzle:<br>5 / 16</div>","response":null,"trial_type":"html-keyboard-response","trial_index":15,"time_elapsed":211342,"internal_node_id":"0.0-11.0-0.0","experiment":"calibration","task_version":"1.0","jspsych_version":"6.3.1"},{"puzzle":"../static/img/is3/tf1/tf1_18_M_ss2.jpeg","item_order":[3,2,1,0],"correct":0,"choice":0,"accuracy":1,"rt":14129,"screen_resolution":[665,1696],"minimum_resolution":1,"item_set":3,"item":18,"test_form":1,"distractor":"md","trial_type":"mars","trial_index":16,"time_elapsed":225475,"internal_node_id":"0.0-11.0-1.0","experiment":"calibration","task_version":"1.0","jspsych_version":"6.3.1","browser_interactions":0},{"rt":null,"stimulus":"<div style=\"font-size:24px;\">Loading puzzle:<br>6 / 16</div>","response":null,"trial_type":"html-keyboard-response","trial_index":17,"time_elapsed":226682,"internal_node_id":"0.0-12.0-0.0","experiment":"calibration","task_version":"1.0","jspsych_version":"6.3.1"},{"puzzle":"../static/img/is3/tf2/tf2_31_M_ss2.jpeg","item_order":[0,3,1,2],"correct":0,"choice":3,"accuracy":0,"rt":16276,"screen_resolution":[665,1696],"minimum_resolution":1,"item_set":3,"item":31,"test_form":2,"distractor":"md","trial_type":"mars","trial_index":18,"time_elapsed":242962,"internal_node_id":"0.0-12.0-1.0","experiment":"calibration","task_version":"1.0","jspsych_version":"6.3.1","browser_interactions":0},{"rt":null,"stimulus":"<div style=\"font-size:24px;\">Loading puzzle:<br>7 / 16</div>","response":null,"trial_type":"html-keyboard-response","trial_index":19,"time_elapsed":244165,"internal_node_id":"0.0-13.0-0.0","experiment":"calibration","task_version":"1.0","jspsych_version":"6.3.1"},{"puzzle":"../static/img/is3/tf2/tf2_16_M_ss2.jpeg","item_order":[3,1,0,2],"correct":0,"choice":0,"accuracy":1,"rt":9762,"screen_resolution":[665,1696],"minimum_resolution":1,"item_set":3,"item":16,"test_form":2,"distractor":"md","trial_type":"mars","trial_index":20,"time_elapsed":253931,"internal_node_id":"0.0-13.0-1.0","experiment":"calibration","task_version":"1.0","jspsych_version":"6.3.1","browser_interactions":0},{"rt":null,"stimulus":"<div style=\"font-size:24px;\">Loading puzzle:<br>8 / 16</div>","response":null,"trial_type":"html-keyboard-response","trial_index":21,"time_elapsed":255133,"internal_node_id":"0.0-14.0-0.0","experiment":"calibration","task_version":"1.0","jspsych_version":"6.3.1"},{"puzzle":"../static/img/is3/tf1/tf1_58_M_ss3.jpeg","item_order":[1,3,0,2],"correct":0,"choice":1,"accuracy":0,"rt":12842,"screen_resolution":[665,1696],"minimum_resolution":1,"item_set":3,"item":58,"test_form":1,"distractor":"md","trial_type":"mars","trial_index":22,"time_elapsed":267978,"internal_node_id":"0.0-14.0-1.0","experiment":"calibration","task_version":"1.0","jspsych_version":"6.3.1","browser_interactions":0},{"rt":null,"stimulus":"<div style=\"font-size:24px;\">Loading puzzle:<br>9 / 16</div>","response":null,"trial_type":"html-keyboard-response","trial_index":23,"time_elapsed":269185,"internal_node_id":"0.0-15.0-0.0","experiment":"calibration","task_version":"1.0","jspsych_version":"6.3.1"},{"puzzle":"../static/img/is3/tf2/tf2_79_M_ss2.jpeg","item_order":[3,0,1,2],"correct":0,"choice":2,"accuracy":0,"rt":18781,"screen_resolution":[665,1696],"minimum_resolution":1,"item_set":3,"item":79,"test_form":2,"distractor":"md","trial_type":"mars","trial_index":24,"time_elapsed":287970,"internal_node_id":"0.0-15.0-1.0","experiment":"calibration","task_version":"1.0","jspsych_version":"6.3.1","browser_interactions":0},{"rt":null,"stimulus":"<div style=\"font-size:24px;\">Loading puzzle:<br>10 / 16</div>","response":null,"trial_type":"html-keyboard-response","trial_index":25,"time_elapsed":289184,"internal_node_id":"0.0-16.0-0.0","experiment":"calibration","task_version":"1.0","jspsych_version":"6.3.1"},{"puzzle":"../static/img/is3/tf1/tf1_23_M_ss1.jpeg","item_order":[2,1,0,3],"correct":0,"choice":0,"accuracy":1,"rt":20736,"screen_resolution":[665,1696],"minimum_resolution":1,"item_set":3,"item":23,"test_form":1,"distractor":"md","trial_type":"mars","trial_index":26,"time_elapsed":309921,"internal_node_id":"0.0-16.0-1.0","experiment":"calibration","task_version":"1.0","jspsych_version":"6.3.1","browser_interactions":0},{"rt":null,"stimulus":"<div style=\"font-size:24px;\">Loading puzzle:<br>11 / 16</div>","response":null,"trial_type":"html-keyboard-response","trial_index":27,"time_elapsed":311131,"internal_node_id":"0.0-17.0-0.0","experiment":"calibration","task_version":"1.0","jspsych_version":"6.3.1"},{"puzzle":"../static/img/is3/tf1/tf1_26_M_ss1.jpeg","item_order":[3,2,1,0],"correct":0,"choice":1,"accuracy":0,"rt":24843,"screen_resolution":[665,1696],"minimum_resolution":1,"item_set":3,"item":26,"test_form":1,"distractor":"md","trial_type":"mars","trial_index":28,"time_elapsed":335978,"internal_node_id":"0.0-17.0-1.0","experiment":"calibration","task_version":"1.0","jspsych_version":"6.3.1","browser_interactions":0},{"rt":null,"stimulus":"<div style=\"font-size:24px;\">Loading puzzle:<br>12 / 16</div>","response":null,"trial_type":"html-keyboard-response","trial_index":29,"time_elapsed":337179,"internal_node_id":"0.0-18.0-0.0","experiment":"calibration","task_version":"1.0","jspsych_version":"6.3.1"},{"puzzle":"../static/img/is3/tf2/tf2_67_M_ss2.jpeg","item_order":[2,0,1,3],"correct":0,"choice":0,"accuracy":1,"rt":12124,"screen_resolution":[665,1696],"minimum_resolution":1,"item_set":3,"item":67,"test_form":2,"distractor":"md","trial_type":"mars","trial_index":30,"time_elapsed":349305,"internal_node_id":"0.0-18.0-1.0","experiment":"calibration","task_version":"1.0","jspsych_version":"6.3.1","browser_interactions":0},{"rt":null,"stimulus":"<div style=\"font-size:24px;\">Loading puzzle:<br>13 / 16</div>","response":null,"trial_type":"html-keyboard-response","trial_index":31,"time_elapsed":350509,"internal_node_id":"0.0-19.0-0.0","experiment":"calibration","task_version":"1.0","jspsych_version":"6.3.1"},{"puzzle":"../static/img/is3/tf2/tf2_75_M_ss1.jpeg","item_order":[0,2,1,3],"correct":0,"choice":3,"accuracy":0,"rt":10970,"screen_resolution":[665,1696],"minimum_resolution":1,"item_set":3,"item":75,"test_form":2,"distractor":"pd","trial_type":"mars","trial_index":32,"time_elapsed":361482,"internal_node_id":"0.0-19.0-1.0","experiment":"calibration","task_version":"1.0","jspsych_version":"6.3.1","browser_interactions":0},{"rt":null,"stimulus":"<div style=\"font-size:24px;\">Loading puzzle:<br>14 / 16</div>","response":null,"trial_type":"html-keyboard-response","trial_index":33,"time_elapsed":362694,"internal_node_id":"0.0-20.0-0.0","experiment":"calibration","task_version":"1.0","jspsych_version":"6.3.1"},{"puzzle":"../static/img/is3/tf1/tf1_76_M_ss3.jpeg","item_order":[1,2,0,3],"correct":0,"choice":2,"accuracy":0,"rt":20891,"screen_resolution":[665,1696],"minimum_resolution":1,"item_set":3,"item":76,"test_form":1,"distractor":"md","trial_type":"mars","trial_index":34,"time_elapsed":383588,"internal_node_id":"0.0-20.0-1.0","experiment":"calibration","task_version":"1.0","jspsych_version":"6.3.1","browser_interactions":1},{"rt":null,"stimulus":"<div style=\"font-size:24px;\">Loading puzzle:<br>15 / 16</div>","response":null,"trial_type":"html-keyboard-response","trial_index":35,"time_elapsed":384794,"internal_node_id":"0.0-21.0-0.0","experiment":"calibration","task_version":"1.0","jspsych_version":"6.3.1"},{"puzzle":"../static/img/is3/tf2/tf2_78_M_ss1.jpeg","item_order":[2,1,0,3],"correct":0,"choice":0,"accuracy":1,"rt":11700,"screen_resolution":[665,1696],"minimum_resolution":1,"item_set":3,"item":78,"test_form":2,"distractor":"pd","trial_type":"mars","trial_index":36,"time_elapsed":396498,"internal_node_id":"0.0-21.0-1.0","experiment":"calibration","task_version":"1.0","jspsych_version":"6.3.1","browser_interactions":0},{"rt":null,"stimulus":"<div style=\"font-size:24px;\">Loading puzzle:<br>16 / 16</div>","response":null,"trial_type":"html-keyboard-response","trial_index":37,"time_elapsed":397707,"internal_node_id":"0.0-22.0-0.0","experiment":"calibration","task_version":"1.0","jspsych_version":"6.3.1"},{"puzzle":"../static/img/is3/tf1/tf1_24_M_ss2.jpeg","item_order":[0,1,3,2],"correct":0,"choice":1,"accuracy":0,"rt":17107,"screen_resolution":[665,1696],"minimum_resolution":1,"item_set":3,"item":24,"test_form":1,"distractor":"md","trial_type":"mars","trial_index":38,"time_elapsed":414818,"internal_node_id":"0.0-22.0-1.0","experiment":"calibration","task_version":"1.0","jspsych_version":"6.3.1","browser_interactions":0},{"value":[0,0,0],"trial_type":"call-function","trial_index":39,"time_elapsed":414820,"internal_node_id":"0.0-23.0","experiment":"calibration","task_version":"1.0","jspsych_version":"6.3.1"},{"view_history":[{"page_index":0,"viewing_time":3588}],"rt":3588,"trial_type":"instructions","trial_index":40,"time_elapsed":418409,"internal_node_id":"0.0-24.0","experiment":"calibration","task_version":"1.0","jspsych_version":"6.3.1"},{"rt":13199,"responses":{"age":"39","gender-categorical":"Male","gender-free-response":"","ethnicity":"Not Hispanic or Latino","race":["White"],"education":"Master degree or higher","free-response":""},"trial_type":"survey-demo","trial_index":41,"time_elapsed":431613,"internal_node_id":"0.0-25.0","experiment":"calibration","task_version":"1.0","jspsych_version":"6.3.1","interactions":"[{\"event\":\"focus\",\"trial\":0,\"time\":0},{\"event\":\"blur\",\"trial\":0,\"time\":1902},{\"event\":\"focus\",\"trial\":0,\"time\":12120},{\"event\":\"blur\",\"trial\":0,\"time\":13797},{\"event\":\"focus\",\"trial\":1,\"time\":51519},{\"event\":\"fullscreenenter\",\"trial\":1,\"time\":52417},{\"event\":\"blur\",\"trial\":2,\"time\":53492},{\"event\":\"focus\",\"trial\":2,\"time\":53808},{\"event\":\"fullscreenexit\",\"trial\":2,\"time\":53811},{\"event\":\"blur\",\"trial\":2,\"time\":65207},{\"event\":\"focus\",\"trial\":2,\"time\":66696},{\"event\":\"blur\",\"trial\":2,\"time\":67663},{\"event\":\"focus\",\"trial\":2,\"time\":96391},{\"event\":\"blur\",\"trial\":6,\"time\":115708},{\"event\":\"focus\",\"trial\":6,\"time\":147224},{\"event\":\"blur\",\"trial\":12,\"time\":177774},{\"event\":\"focus\",\"trial\":12,\"time\":186498},{\"event\":\"blur\",\"trial\":33,\"time\":362316},{\"event\":\"focus\",\"trial\":34,\"time\":363619}]"}]