[{"success":true,"timeout":false,"failed_images":[],"failed_audio":[],"failed_video":[],"trial_type":"preload","trial_index":0,"time_elapsed":3891,"internal_node_id":"0.0-0.0","experiment":"calibration","task_version":"1.0","jspsych_version":"6.3.1"},{"success":true,"trial_type":"fullscreen","trial_index":1,"time_elapsed":8969,"internal_node_id":"0.0-1.0","experiment":"calibration","task_version":"1.0","jspsych_version":"6.3.1"},{"view_history":[{"page_index":0,"viewing_time":7680.799999982119},{"page_index":1,"viewing_time":3656.600000023842},{"page_index":2,"viewing_time":1089.2999999821186}],"rt":12428.09999999404,"trial_type":"instructions","trial_index":2,"time_elapsed":21404,"internal_node_id":"0.0-2.0","experiment":"calibration","task_version":"1.0","jspsych_version":"6.3.1"},{"puzzle":"../static/img/practice/pt1_M1.png","item_order":[2,3,1,0],"correct":0,"choice":0,"accuracy":1,"rt":4838.5,"screen_resolution":[900,1440],"minimum_resolution":1,"item_set":"practice","trial_type":"mars","trial_index":3,"time_elapsed":28254,"internal_node_id":"0.0-3.0-0.0","experiment":"calibration","task_version":"1.0","jspsych_version":"6.3.1"},{"puzzle":"../static/img/practice/pt2_M1.png","item_order":[3,1,0,2],"correct":0,"choice":0,"accuracy":1,"rt":2185.5999999940395,"screen_resolution":[900,1440],"minimum_resolution":1,"item_set":"practice","trial_type":"mars","trial_index":4,"time_elapsed":32446,"internal_node_id":"0.0-4.0-0.0","experiment":"calibration","task_version":"1.0","jspsych_version":"6.3.1"},{"puzzle":"../static/img/practice/pt3_M1.png","item_order":[0,1,3,2],"correct":0,"choice":0,"accuracy":1,"rt":1592.199999988079,"screen_resolution":[900,1440],"minimum_resolution":1,"item_set":"practice","trial_type":"mars","trial_index":5,"time_elapsed":36048,"internal_node_id":"0.0-5.0-0.0","experiment":"calibration","task_version":"1.0","jspsych_version":"6.3.1"},{"view_history":[{"page_index":0,"viewing_time":1266.0999999940395},{"page_index":1,"viewing_time":4372.300000011921}],"rt":5638.700000017881,"trial_type":"instructions","trial_index":6,"time_elapsed":41688,"internal_node_id":"0.0-6.0","experiment":"calibration","task_version":"1.0","jspsych_version":"6.3.1"},{"rt":null,"stimulus":"<div style=\"font-size:24px;\">Loading puzzle:<br>1 / 16</div>","response":null,"trial_type":"html-keyboard-response","trial_index":7,"time_elapsed":42895,"internal_node_id":"0.0-7.0-0.0","experiment":"calibration","task_version":"1.0","jspsych_version":"6.3.1"},{"puzzle":"../static/img/is3/tf1/tf1_22_M_ss3.jpeg","item_order":[1,0,3,2],"correct":0,"choice":0,"accuracy":1,"rt":3884.5,"screen_resolution":[900,1440],"minimum_resolution":1,"item_set":3,"item":22,"test_form":1,"distractor":"pd","trial_type":"mars","trial_index":8,"time_elapsed":46784,"internal_node_id":"0.0-7.0-1.0","experiment":"calibration","task_version":"1.0","jspsych_version":"6.3.1","browser_interactions":0},{"rt":null,"stimulus":"<div style=\"font-size:24px;\">Loading puzzle:<br>2 / 16</div>","response":null,"trial_type":"html-keyboard-response","trial_index":9,"time_elapsed":47991,"internal_node_id":"0.0-8.0-0.0","experiment":"calibration","task_version":"1.0","jspsych_version":"6.3.1"},{"puzzle":"../static/img/is3/tf2/tf2_47_M_ss3.jpeg","item_order":[3,2,1,0],"correct":0,"choice":0,"accuracy":1,"rt":13248.399999976158,"screen_resolution":[900,1440],"minimum_resolution":1,"item_set":3,"item":47,"test_form":2,"distractor":"md","trial_type":"mars","trial_index":10,"time_elapsed":61243,"internal_node_id":"0.0-8.0-1.0","experiment":"calibration","task_version":"1.0","jspsych_version":"6.3.1","browser_interactions":0},{"rt":null,"stimulus":"<div style=\"font-size:24px;\">Loading puzzle:<br>3 / 16</div>","response":null,"trial_type":"html-keyboard-response","trial_index":11,"time_elapsed":62449,"internal_node_id":"0.0-9.0-0.0","experiment":"calibration","task_version":"1.0","jspsych_version":"6.3.1"},{"puzzle":"../static/img/is3/tf2/tf2_10_M_ss2.jpeg","item_order":[2,1,3,0],"correct":0,"choice":0,"accuracy":1,"rt":9499.300000011921,"screen_resolution":[900,1440],"minimum_resolution":1,"item_set":3,"item":10,"test_form":2,"distractor":"md","trial_type":"mars","trial_index":12,"time_elapsed":71951,"internal_node_id":"0.0-9.0-1.0","experiment":"calibration","task_version":"1.0","jspsych_version":"6.3.1","browser_interactions":0},{"rt":null,"stimulus":"<div style=\"font-size:24px;\">Loading puzzle:<br>4 / 16</div>","response":null,"trial_type":"html-keyboard-response","trial_index":13,"time_elapsed":73158,"internal_node_id":"0.0-10.0-0.0","experiment":"calibration","task_version":"1.0","jspsych_version":"6.3.1"},{"puzzle":"../static/img/is3/tf1/tf1_49_M_ss3.jpeg","item_order":[0,3,2,1],"correct":0,"choice":0,"accuracy":1,"rt":4350.5,"screen_resolution":[900,1440],"minimum_resolution":1,"item_set":3,"item":49,"test_form":1,"distractor":"pd","trial_type":"mars","trial_index":14,"time_elapsed":77512,"internal_node_id":"0.0-10.0-1.0","experiment":"calibration","task_version":"1.0","jspsych_version":"6.3.1","browser_interactions":0},{"rt":null,"stimulus":"<div style=\"font-size:24px;\">Loading puzzle:<br>5 / 16</div>","response":null,"trial_type":"html-keyboard-response","trial_index":15,"time_elapsed":78715,"internal_node_id":"0.0-11.0-0.0","experiment":"calibration","task_version":"1.0","jspsych_version":"6.3.1"},{"puzzle":"../static/img/is3/tf1/tf1_13_M_ss3.jpeg","item_order":[0,2,1,3],"correct":0,"choice":0,"accuracy":1,"rt":9356.90000000596,"screen_resolution":[900,1440],"minimum_resolution":1,"item_set":3,"item":13,"test_form":1,"distractor":"pd","trial_type":"mars","trial_index":16,"time_elapsed":88075,"internal_node_id":"0.0-11.0-1.0","experiment":"calibration","task_version":"1.0","jspsych_version":"6.3.1","browser_interactions":0},{"rt":null,"stimulus":"<div style=\"font-size:24px;\">Loading puzzle:<br>6 / 16</div>","response":null,"trial_type":"html-keyboard-response","trial_index":17,"time_elapsed":89279,"internal_node_id":"0.0-12.0-0.0","experiment":"calibration","task_version":"1.0","jspsych_version":"6.3.1"},{"puzzle":"../static/img/is3/tf2/tf2_31_M_ss2.jpeg","item_order":[3,1,0,2],"correct":0,"choice":3,"accuracy":0,"rt":16949.70000001788,"screen_resolution":[900,1440],"minimum_resolution":1,"item_set":3,"item":31,"test_form":2,"distractor":"md","trial_type":"mars","trial_index":18,"time_elapsed":106232,"internal_node_id":"0.0-12.0-1.0","experiment":"calibration","task_version":"1.0","jspsych_version":"6.3.1","browser_interactions":0},{"rt":null,"stimulus":"<div style=\"font-size:24px;\">Loading puzzle:<br>7 / 16</div>","response":null,"trial_type":"html-keyboard-response","trial_index":19,"time_elapsed":107435,"internal_node_id":"0.0-13.0-0.0","experiment":"calibration","task_version":"1.0","jspsych_version":"6.3.1"},{"puzzle":"../static/img/is3/tf1/tf1_58_M_ss3.jpeg","item_order":[3,1,2,0],"correct":0,"choice":0,"accuracy":1,"rt":4513,"screen_resolution":[900,1440],"minimum_resolution":1,"item_set":3,"item":58,"test_form":1,"distractor":"pd","trial_type":"mars","trial_index":20,"time_elapsed":111952,"internal_node_id":"0.0-13.0-1.0","experiment":"calibration","task_version":"1.0","jspsych_version":"6.3.1","browser_interactions":0},{"rt":null,"stimulus":"<div style=\"font-size:24px;\">Loading puzzle:<br>8 / 16</div>","response":null,"trial_type":"html-keyboard-response","trial_index":21,"time_elapsed":113155,"internal_node_id":"0.0-14.0-0.0","experiment":"calibration","task_version":"1.0","jspsych_version":"6.3.1"},{"puzzle":"../static/img/is3/tf2/tf2_16_M_ss2.jpeg","item_order":[0,3,2,1],"correct":0,"choice":1,"accuracy":0,"rt":8105.299999982119,"screen_resolution":[900,1440],"minimum_resolution":1,"item_set":3,"item":16,"test_form":2,"distractor":"md","trial_type":"mars","trial_index":22,"time_elapsed":122084,"internal_node_id":"0.0-14.0-1.0","experiment":"calibration","task_version":"1.0","jspsych_version":"6.3.1","browser_interactions":0},{"rt":null,"stimulus":"<div style=\"font-size:24px;\">Loading puzzle:<br>9 / 16</div>","response":null,"trial_type":"html-keyboard-response","trial_index":23,"time_elapsed":123287,"internal_node_id":"0.0-15.0-0.0","experiment":"calibration","task_version":"1.0","jspsych_version":"6.3.1"},{"puzzle":"../static/img/is3/tf2/tf2_73_M_ss2.jpeg","item_order":[1,2,3,0],"correct":0,"choice":1,"accuracy":0,"rt":20019.19999998808,"screen_resolution":[900,1440],"minimum_resolution":1,"item_set":3,"item":73,"test_form":2,"distractor":"md","trial_type":"mars","trial_index":24,"time_elapsed":143310,"internal_node_id":"0.0-15.0-1.0","experiment":"calibration","task_version":"1.0","jspsych_version":"6.3.1","browser_interactions":0},{"rt":null,"stimulus":"<div style=\"font-size:24px;\">Loading puzzle:<br>10 / 16</div>","response":null,"trial_type":"html-keyboard-response","trial_index":25,"time_elapsed":144513,"internal_node_id":"0.0-16.0-0.0","experiment":"calibration","task_version":"1.0","jspsych_version":"6.3.1"},{"puzzle":"../static/img/is3/tf1/tf1_23_M_ss1.jpeg","item_order":[3,1,0,2],"correct":0,"choice":0,"accuracy":1,"rt":3852.9000000059605,"screen_resolution":[900,1440],"minimum_resolution":1,"item_set":3,"item":23,"test_form":1,"distractor":"pd","trial_type":"mars","trial_index":26,"time_elapsed":148370,"internal_node_id":"0.0-16.0-1.0","experiment":"calibration","task_version":"1.0","jspsych_version":"6.3.1","browser_interactions":0},{"rt":null,"stimulus":"<div style=\"font-size:24px;\">Loading puzzle:<br>11 / 16</div>","response":null,"trial_type":"html-keyboard-response","trial_index":27,"time_elapsed":149574,"internal_node_id":"0.0-17.0-0.0","experiment":"calibration","task_version":"1.0","jspsych_version":"6.3.1"},{"puzzle":"../static/img/is3/tf2/tf2_59_M_ss3.jpeg","item_order":[2,3,0,1],"correct":0,"choice":0,"accuracy":1,"rt":6553.100000023842,"screen_resolution":[900,1440],"minimum_resolution":1,"item_set":3,"item":59,"test_form":2,"distractor":"md","trial_type":"mars","trial_index":28,"time_elapsed":156131,"internal_node_id":"0.0-17.0-1.0","experiment":"calibration","task_version":"1.0","jspsych_version":"6.3.1","browser_interactions":0},{"rt":null,"stimulus":"<div style=\"font-size:24px;\">Loading puzzle:<br>12 / 16</div>","response":null,"trial_type":"html-keyboard-response","trial_index":29,"time_elapsed":157334,"internal_node_id":"0.0-18.0-0.0","experiment":"calibration","task_version":"1.0","jspsych_version":"6.3.1"},{"puzzle":"../static/img/is3/tf1/tf1_52_M_ss3.jpeg","item_order":[2,3,0,1],"correct":0,"choice":0,"accuracy":1,"rt":5815.0999999940395,"screen_resolution":[900,1440],"minimum_resolution":1,"item_set":3,"item":52,"test_form":1,"distractor":"pd","trial_type":"mars","trial_index":30,"time_elapsed":163153,"internal_node_id":"0.0-18.0-1.0","experiment":"calibration","task_version":"1.0","jspsych_version":"6.3.1","browser_interactions":0},{"rt":null,"stimulus":"<div style=\"font-size:24px;\">Loading puzzle:<br>13 / 16</div>","response":null,"trial_type":"html-keyboard-response","trial_index":31,"time_elapsed":164358,"internal_node_id":"0.0-19.0-0.0","experiment":"calibration","task_version":"1.0","jspsych_version":"6.3.1"},{"puzzle":"../static/img/is3/tf2/tf2_75_M_ss1.jpeg","item_order":[3,0,1,2],"correct":0,"choice":1,"accuracy":0,"rt":13185.40000000596,"screen_resolution":[900,1440],"minimum_resolution":1,"item_set":3,"item":75,"test_form":2,"distractor":"md","trial_type":"mars","trial_index":32,"time_elapsed":177547,"internal_node_id":"0.0-19.0-1.0","experiment":"calibration","task_version":"1.0","jspsych_version":"6.3.1","browser_interactions":0},{"rt":null,"stimulus":"<div style=\"font-size:24px;\">Loading puzzle:<br>14 / 16</div>","response":null,"trial_type":"html-keyboard-response","trial_index":33,"time_elapsed":178750,"internal_node_id":"0.0-20.0-0.0","experiment":"calibration","task_version":"1.0","jspsych_version":"6.3.1"},{"puzzle":"../static/img/is3/tf1/tf1_46_M_ss3.jpeg","item_order":[2,0,3,1],"correct":0,"choice":0,"accuracy":1,"rt":12744.699999988079,"screen_resolution":[900,1440],"minimum_resolution":1,"item_set":3,"item":46,"test_form":1,"distractor":"pd","trial_type":"mars","trial_index":34,"time_elapsed":191498,"internal_node_id":"0.0-20.0-1.0","experiment":"calibration","task_version":"1.0","jspsych_version":"6.3.1","browser_interactions":0},{"rt":null,"stimulus":"<div style=\"font-size:24px;\">Loading puzzle:<br>15 / 16</div>","response":null,"trial_type":"html-keyboard-response","trial_index":35,"time_elapsed":192703,"internal_node_id":"0.0-21.0-0.0","experiment":"calibration","task_version":"1.0","jspsych_version":"6.3.1"},{"puzzle":"../static/img/is3/tf1/tf1_21_M_ss2.jpeg","item_order":[3,0,1,2],"correct":0,"choice":1,"accuracy":0,"rt":8935.699999988079,"screen_resolution":[900,1440],"minimum_resolution":1,"item_set":3,"item":21,"test_form":1,"distractor":"pd","trial_type":"mars","trial_index":36,"time_elapsed":201641,"internal_node_id":"0.0-21.0-1.0","experiment":"calibration","task_version":"1.0","jspsych_version":"6.3.1","browser_interactions":0},{"rt":null,"stimulus":"<div style=\"font-size:24px;\">Loading puzzle:<br>16 / 16</div>","response":null,"trial_type":"html-keyboard-response","trial_index":37,"time_elapsed":202847,"internal_node_id":"0.0-22.0-0.0","experiment":"calibration","task_version":"1.0","jspsych_version":"6.3.1"},{"puzzle":"../static/img/is3/tf2/tf2_78_M_ss1.jpeg","item_order":[0,3,2,1],"correct":0,"choice":0,"accuracy":1,"rt":12115.59999999404,"screen_resolution":[900,1440],"minimum_resolution":1,"item_set":3,"item":78,"test_form":2,"distractor":"md","trial_type":"mars","trial_index":38,"time_elapsed":214966,"internal_node_id":"0.0-22.0-1.0","experiment":"calibration","task_version":"1.0","jspsych_version":"6.3.1","browser_interactions":0},{"view_history":[{"page_index":0,"viewing_time":1031.0999999940395}],"rt":1031.4000000059605,"trial_type":"instructions","trial_index":39,"time_elapsed":215998,"internal_node_id":"0.0-23.0","experiment":"calibration","task_version":"1.0","jspsych_version":"6.3.1"},{"rt":12067.199999988079,"responses":{"age":"21","gender-categorical":"Female","gender-free-response":"","ethnicity":"Not Hispanic or Latino","race":["White"],"education":"Some college","free-response":""},"trial_type":"survey-demo","trial_index":40,"time_elapsed":228070,"internal_node_id":"0.0-24.0","experiment":"calibration","task_version":"1.0","jspsych_version":"6.3.1","interactions":"[{\"event\":\"blur\",\"trial\":1,\"time\":4252},{\"event\":\"focus\",\"trial\":1,\"time\":5912},{\"event\":\"fullscreenenter\",\"trial\":1,\"time\":8047}]"}]