[{"success":true,"timeout":false,"failed_images":[],"failed_audio":[],"failed_video":[],"trial_type":"preload","trial_index":0,"time_elapsed":2737,"internal_node_id":"0.0-0.0","experiment":"calibration","task_version":"1.0","jspsych_version":"6.3.1"},{"success":true,"trial_type":"fullscreen","trial_index":1,"time_elapsed":11288,"internal_node_id":"0.0-1.0","experiment":"calibration","task_version":"1.0","jspsych_version":"6.3.1"},{"view_history":[{"page_index":0,"viewing_time":12948.5},{"page_index":1,"viewing_time":3842.5},{"page_index":2,"viewing_time":1830.8999998569489}],"rt":18623.099999904633,"trial_type":"instructions","trial_index":2,"time_elapsed":29919,"internal_node_id":"0.0-2.0","experiment":"calibration","task_version":"1.0","jspsych_version":"6.3.1"},{"puzzle":"../static/img/practice/pt1_M1.png","item_order":[2,0,1,3],"correct":0,"choice":0,"accuracy":1,"rt":11735.199999809265,"screen_resolution":[720,1280],"minimum_resolution":1,"item_set":"practice","trial_type":"mars","trial_index":3,"time_elapsed":43661,"internal_node_id":"0.0-3.0-0.0","experiment":"calibration","task_version":"1.0","jspsych_version":"6.3.1"},{"puzzle":"../static/img/practice/pt2_M1.png","item_order":[2,0,3,1],"correct":0,"choice":0,"accuracy":1,"rt":4752.099999904633,"screen_resolution":[720,1280],"minimum_resolution":1,"item_set":"practice","trial_type":"mars","trial_index":4,"time_elapsed":50428,"internal_node_id":"0.0-4.0-0.0","experiment":"calibration","task_version":"1.0","jspsych_version":"6.3.1"},{"puzzle":"../static/img/practice/pt3_M1.png","item_order":[0,1,3,2],"correct":0,"choice":0,"accuracy":1,"rt":3534.5,"screen_resolution":[720,1280],"minimum_resolution":1,"item_set":"practice","trial_type":"mars","trial_index":5,"time_elapsed":55968,"internal_node_id":"0.0-5.0-0.0","experiment":"calibration","task_version":"1.0","jspsych_version":"6.3.1"},{"view_history":[{"page_index":0,"viewing_time":1464.1000001430511},{"page_index":1,"viewing_time":5313.799999952316}],"rt":6778.200000047684,"trial_type":"instructions","trial_index":6,"time_elapsed":62748,"internal_node_id":"0.0-6.0","experiment":"calibration","task_version":"1.0","jspsych_version":"6.3.1"},{"rt":null,"stimulus":"<div style=\"font-size:24px;\">Loading puzzle:<br>1 / 16</div>","response":null,"trial_type":"html-keyboard-response","trial_index":7,"time_elapsed":63956,"internal_node_id":"0.0-7.0-0.0","experiment":"calibration","task_version":"1.0","jspsych_version":"6.3.1"},{"puzzle":"../static/img/is3/tf1/tf1_22_M_ss3.jpeg","item_order":[2,3,1,0],"correct":0,"choice":0,"accuracy":1,"rt":28281.799999952316,"screen_resolution":[720,1280],"minimum_resolution":1,"item_set":3,"item":22,"test_form":1,"distractor":"md","trial_type":"mars","trial_index":8,"time_elapsed":92251,"internal_node_id":"0.0-7.0-1.0","experiment":"calibration","task_version":"1.0","jspsych_version":"6.3.1","browser_interactions":0},{"rt":null,"stimulus":"<div style=\"font-size:24px;\">Loading puzzle:<br>2 / 16</div>","response":null,"trial_type":"html-keyboard-response","trial_index":9,"time_elapsed":93455,"internal_node_id":"0.0-8.0-0.0","experiment":"calibration","task_version":"1.0","jspsych_version":"6.3.1"},{"puzzle":"../static/img/is3/tf2/tf2_25_M_ss2.jpeg","item_order":[2,0,1,3],"correct":0,"choice":0,"accuracy":1,"rt":23045.10000014305,"screen_resolution":[720,1280],"minimum_resolution":1,"item_set":3,"item":25,"test_form":2,"distractor":"md","trial_type":"mars","trial_index":10,"time_elapsed":116514,"internal_node_id":"0.0-8.0-1.0","experiment":"calibration","task_version":"1.0","jspsych_version":"6.3.1","browser_interactions":0},{"rt":null,"stimulus":"<div style=\"font-size:24px;\">Loading puzzle:<br>3 / 16</div>","response":null,"trial_type":"html-keyboard-response","trial_index":11,"time_elapsed":117725,"internal_node_id":"0.0-9.0-0.0","experiment":"calibration","task_version":"1.0","jspsych_version":"6.3.1"},{"puzzle":"../static/img/is3/tf1/tf1_51_M_ss2.jpeg","item_order":[3,0,2,1],"correct":0,"choice":0,"accuracy":1,"rt":28326.5,"screen_resolution":[720,1280],"minimum_resolution":1,"item_set":3,"item":51,"test_form":1,"distractor":"pd","trial_type":"mars","trial_index":12,"time_elapsed":146058,"internal_node_id":"0.0-9.0-1.0","experiment":"calibration","task_version":"1.0","jspsych_version":"6.3.1","browser_interactions":0},{"rt":null,"stimulus":"<div style=\"font-size:24px;\">Loading puzzle:<br>4 / 16</div>","response":null,"trial_type":"html-keyboard-response","trial_index":13,"time_elapsed":147267,"internal_node_id":"0.0-10.0-0.0","experiment":"calibration","task_version":"1.0","jspsych_version":"6.3.1"},{"puzzle":"../static/img/is3/tf2/tf2_10_M_ss2.jpeg","item_order":[2,0,3,1],"correct":0,"choice":0,"accuracy":1,"rt":29271,"screen_resolution":[720,1280],"minimum_resolution":1,"item_set":3,"item":10,"test_form":2,"distractor":"md","trial_type":"mars","trial_index":14,"time_elapsed":176552,"internal_node_id":"0.0-10.0-1.0","experiment":"calibration","task_version":"1.0","jspsych_version":"6.3.1","browser_interactions":0},{"rt":null,"stimulus":"<div style=\"font-size:24px;\">Loading puzzle:<br>5 / 16</div>","response":null,"trial_type":"html-keyboard-response","trial_index":15,"time_elapsed":177758,"internal_node_id":"0.0-11.0-0.0","experiment":"calibration","task_version":"1.0","jspsych_version":"6.3.1"},{"puzzle":"../static/img/is3/tf1/tf1_13_M_ss3.jpeg","item_order":[0,3,2,1],"correct":0,"choice":1,"accuracy":0,"rt":23258.700000047684,"screen_resolution":[720,1280],"minimum_resolution":1,"item_set":3,"item":13,"test_form":1,"distractor":"md","trial_type":"mars","trial_index":16,"time_elapsed":201024,"internal_node_id":"0.0-11.0-1.0","experiment":"calibration","task_version":"1.0","jspsych_version":"6.3.1","browser_interactions":0},{"rt":null,"stimulus":"<div style=\"font-size:24px;\">Loading puzzle:<br>6 / 16</div>","response":null,"trial_type":"html-keyboard-response","trial_index":17,"time_elapsed":202227,"internal_node_id":"0.0-12.0-0.0","experiment":"calibration","task_version":"1.0","jspsych_version":"6.3.1"},{"puzzle":"../static/img/is3/tf2/tf2_34_M_ss2.jpeg","item_order":[1,3,0,2],"correct":0,"choice":0,"accuracy":1,"rt":26650.200000047684,"screen_resolution":[720,1280],"minimum_resolution":1,"item_set":3,"item":34,"test_form":2,"distractor":"pd","trial_type":"mars","trial_index":18,"time_elapsed":228884,"internal_node_id":"0.0-12.0-1.0","experiment":"calibration","task_version":"1.0","jspsych_version":"6.3.1","browser_interactions":0},{"rt":null,"stimulus":"<div style=\"font-size:24px;\">Loading puzzle:<br>7 / 16</div>","response":null,"trial_type":"html-keyboard-response","trial_index":19,"time_elapsed":230092,"internal_node_id":"0.0-13.0-0.0","experiment":"calibration","task_version":"1.0","jspsych_version":"6.3.1"},{"puzzle":"../static/img/is3/tf2/tf2_17_M_ss3.jpeg","item_order":[2,3,0,1],"correct":0,"choice":0,"accuracy":1,"rt":24924.599999904633,"screen_resolution":[720,1280],"minimum_resolution":1,"item_set":3,"item":17,"test_form":2,"distractor":"pd","trial_type":"mars","trial_index":20,"time_elapsed":255030,"internal_node_id":"0.0-13.0-1.0","experiment":"calibration","task_version":"1.0","jspsych_version":"6.3.1","browser_interactions":0},{"rt":null,"stimulus":"<div style=\"font-size:24px;\">Loading puzzle:<br>8 / 16</div>","response":null,"trial_type":"html-keyboard-response","trial_index":21,"time_elapsed":256239,"internal_node_id":"0.0-14.0-0.0","experiment":"calibration","task_version":"1.0","jspsych_version":"6.3.1"},{"puzzle":"../static/img/is3/tf1/tf1_56_M_ss1.jpeg","item_order":[1,2,0,3],"correct":0,"choice":2,"accuracy":0,"rt":28395.299999952316,"screen_resolution":[720,1280],"minimum_resolution":1,"item_set":3,"item":56,"test_form":1,"distractor":"pd","trial_type":"mars","trial_index":22,"time_elapsed":284647,"internal_node_id":"0.0-14.0-1.0","experiment":"calibration","task_version":"1.0","jspsych_version":"6.3.1","browser_interactions":0},{"rt":null,"stimulus":"<div style=\"font-size:24px;\">Loading puzzle:<br>9 / 16</div>","response":null,"trial_type":"html-keyboard-response","trial_index":23,"time_elapsed":285859,"internal_node_id":"0.0-15.0-0.0","experiment":"calibration","task_version":"1.0","jspsych_version":"6.3.1"},{"puzzle":"../static/img/is3/tf2/tf2_79_M_ss2.jpeg","item_order":[1,3,0,2],"correct":0,"choice":0,"accuracy":1,"rt":27488.700000047684,"screen_resolution":[720,1280],"minimum_resolution":1,"item_set":3,"item":79,"test_form":2,"distractor":"md","trial_type":"mars","trial_index":24,"time_elapsed":313359,"internal_node_id":"0.0-15.0-1.0","experiment":"calibration","task_version":"1.0","jspsych_version":"6.3.1","browser_interactions":0},{"rt":null,"stimulus":"<div style=\"font-size:24px;\">Loading puzzle:<br>10 / 16</div>","response":null,"trial_type":"html-keyboard-response","trial_index":25,"time_elapsed":314570,"internal_node_id":"0.0-16.0-0.0","experiment":"calibration","task_version":"1.0","jspsych_version":"6.3.1"},{"puzzle":"../static/img/is3/tf1/tf1_53_M_ss1.jpeg","item_order":[0,2,3,1],"correct":0,"choice":0,"accuracy":1,"rt":11238.299999952316,"screen_resolution":[720,1280],"minimum_resolution":1,"item_set":3,"item":53,"test_form":1,"distractor":"pd","trial_type":"mars","trial_index":26,"time_elapsed":325821,"internal_node_id":"0.0-16.0-1.0","experiment":"calibration","task_version":"1.0","jspsych_version":"6.3.1","browser_interactions":0},{"rt":null,"stimulus":"<div style=\"font-size:24px;\">Loading puzzle:<br>11 / 16</div>","response":null,"trial_type":"html-keyboard-response","trial_index":27,"time_elapsed":327029,"internal_node_id":"0.0-17.0-0.0","experiment":"calibration","task_version":"1.0","jspsych_version":"6.3.1"},{"puzzle":"../static/img/is3/tf1/tf1_80_M_ss1.jpeg","item_order":[1,2,0,3],"correct":0,"choice":0,"accuracy":1,"rt":16786.60000014305,"screen_resolution":[720,1280],"minimum_resolution":1,"item_set":3,"item":80,"test_form":1,"distractor":"pd","trial_type":"mars","trial_index":28,"time_elapsed":343829,"internal_node_id":"0.0-17.0-1.0","experiment":"calibration","task_version":"1.0","jspsych_version":"6.3.1","browser_interactions":0},{"rt":null,"stimulus":"<div style=\"font-size:24px;\">Loading puzzle:<br>12 / 16</div>","response":null,"trial_type":"html-keyboard-response","trial_index":29,"time_elapsed":345036,"internal_node_id":"0.0-18.0-0.0","experiment":"calibration","task_version":"1.0","jspsych_version":"6.3.1"},{"puzzle":"../static/img/is3/tf2/tf2_63_M_ss1.jpeg","item_order":[2,3,0,1],"correct":0,"choice":0,"accuracy":1,"rt":13812.699999809265,"screen_resolution":[720,1280],"minimum_resolution":1,"item_set":3,"item":63,"test_form":2,"distractor":"pd","trial_type":"mars","trial_index":30,"time_elapsed":358862,"internal_node_id":"0.0-18.0-1.0","experiment":"calibration","task_version":"1.0","jspsych_version":"6.3.1","browser_interactions":0},{"rt":null,"stimulus":"<div style=\"font-size:24px;\">Loading puzzle:<br>13 / 16</div>","response":null,"trial_type":"html-keyboard-response","trial_index":31,"time_elapsed":360070,"internal_node_id":"0.0-19.0-0.0","experiment":"calibration","task_version":"1.0","jspsych_version":"6.3.1"},{"puzzle":"../static/img/is3/tf2/tf2_75_M_ss1.jpeg","item_order":[2,3,1,0],"correct":0,"choice":0,"accuracy":1,"rt":20219.099999904633,"screen_resolution":[720,1280],"minimum_resolution":1,"item_set":3,"item":75,"test_form":2,"distractor":"pd","trial_type":"mars","trial_index":32,"time_elapsed":380303,"internal_node_id":"0.0-19.0-1.0","experiment":"calibration","task_version":"1.0","jspsych_version":"6.3.1","browser_interactions":0},{"rt":null,"stimulus":"<div style=\"font-size:24px;\">Loading puzzle:<br>14 / 16</div>","response":null,"trial_type":"html-keyboard-response","trial_index":33,"time_elapsed":381506,"internal_node_id":"0.0-20.0-0.0","experiment":"calibration","task_version":"1.0","jspsych_version":"6.3.1"},{"puzzle":"../static/img/is3/tf1/tf1_44_M_ss1.jpeg","item_order":[1,0,3,2],"correct":0,"choice":0,"accuracy":1,"rt":29264.400000095367,"screen_resolution":[720,1280],"minimum_resolution":1,"item_set":3,"item":44,"test_form":1,"distractor":"pd","trial_type":"mars","trial_index":34,"time_elapsed":410782,"internal_node_id":"0.0-20.0-1.0","experiment":"calibration","task_version":"1.0","jspsych_version":"6.3.1","browser_interactions":0},{"rt":null,"stimulus":"<div style=\"font-size:24px;\">Loading puzzle:<br>15 / 16</div>","response":null,"trial_type":"html-keyboard-response","trial_index":35,"time_elapsed":411985,"internal_node_id":"0.0-21.0-0.0","experiment":"calibration","task_version":"1.0","jspsych_version":"6.3.1"},{"puzzle":"../static/img/is3/tf1/tf1_21_M_ss2.jpeg","item_order":[3,2,1,0],"correct":0,"choice":0,"accuracy":1,"rt":17215.700000047684,"screen_resolution":[720,1280],"minimum_resolution":1,"item_set":3,"item":21,"test_form":1,"distractor":"pd","trial_type":"mars","trial_index":36,"time_elapsed":429210,"internal_node_id":"0.0-21.0-1.0","experiment":"calibration","task_version":"1.0","jspsych_version":"6.3.1","browser_interactions":0},{"rt":null,"stimulus":"<div style=\"font-size:24px;\">Loading puzzle:<br>16 / 16</div>","response":null,"trial_type":"html-keyboard-response","trial_index":37,"time_elapsed":430421,"internal_node_id":"0.0-22.0-0.0","experiment":"calibration","task_version":"1.0","jspsych_version":"6.3.1"},{"puzzle":"../static/img/is3/tf2/tf2_35_M_ss3.jpeg","item_order":[3,0,1,2],"correct":0,"choice":0,"accuracy":1,"rt":6758.5,"screen_resolution":[720,1280],"minimum_resolution":1,"item_set":3,"item":35,"test_form":2,"distractor":"md","trial_type":"mars","trial_index":38,"time_elapsed":437187,"internal_node_id":"0.0-22.0-1.0","experiment":"calibration","task_version":"1.0","jspsych_version":"6.3.1","browser_interactions":0},{"value":[0,0,0],"trial_type":"call-function","trial_index":39,"time_elapsed":437189,"internal_node_id":"0.0-23.0","experiment":"calibration","task_version":"1.0","jspsych_version":"6.3.1"},{"view_history":[{"page_index":0,"viewing_time":3920.2000000476837}],"rt":3920.5,"trial_type":"instructions","trial_index":40,"time_elapsed":441112,"internal_node_id":"0.0-24.0","experiment":"calibration","task_version":"1.0","jspsych_version":"6.3.1"},{"rt":21286.299999952316,"responses":{"age":"22","gender-categorical":"Male","gender-free-response":"","ethnicity":"Not Hispanic or Latino","race":["White"],"education":"Bachelor degree","free-response":"n/a"},"trial_type":"survey-demo","trial_index":41,"time_elapsed":462402,"internal_node_id":"0.0-25.0","experiment":"calibration","task_version":"1.0","jspsych_version":"6.3.1","interactions":"[{\"event\":\"blur\",\"trial\":0,\"time\":0},{\"event\":\"focus\",\"trial\":0,\"time\":0},{\"event\":\"blur\",\"trial\":0,\"time\":0},{\"event\":\"focus\",\"trial\":1,\"time\":7476},{\"event\":\"fullscreenenter\",\"trial\":1,\"time\":10330}]"}]