[{"success":true,"timeout":false,"failed_images":[],"failed_audio":[],"failed_video":[],"trial_type":"preload","trial_index":0,"time_elapsed":1718,"internal_node_id":"0.0-0.0","experiment":"calibration","task_version":"1.0","jspsych_version":"6.3.1"},{"success":true,"trial_type":"fullscreen","trial_index":1,"time_elapsed":5693,"internal_node_id":"0.0-1.0","experiment":"calibration","task_version":"1.0","jspsych_version":"6.3.1"},{"view_history":[{"page_index":0,"viewing_time":9569.100000023842},{"page_index":1,"viewing_time":13583.799999952316},{"page_index":2,"viewing_time":3350.7000000476837}],"rt":26505.399999976158,"trial_type":"instructions","trial_index":2,"time_elapsed":32206,"internal_node_id":"0.0-2.0","experiment":"calibration","task_version":"1.0","jspsych_version":"6.3.1"},{"puzzle":"../static/img/practice/pt1_M1.png","item_order":[1,3,2,0],"correct":0,"choice":0,"accuracy":1,"rt":13859.699999928474,"screen_resolution":[900,1440],"minimum_resolution":1,"item_set":"practice","trial_type":"mars","trial_index":3,"time_elapsed":48073,"internal_node_id":"0.0-3.0-0.0","experiment":"calibration","task_version":"1.0","jspsych_version":"6.3.1"},{"puzzle":"../static/img/practice/pt2_M1.png","item_order":[0,2,3,1],"correct":0,"choice":0,"accuracy":1,"rt":4018.0999999046326,"screen_resolution":[900,1440],"minimum_resolution":1,"item_set":"practice","trial_type":"mars","trial_index":4,"time_elapsed":54099,"internal_node_id":"0.0-4.0-0.0","experiment":"calibration","task_version":"1.0","jspsych_version":"6.3.1"},{"puzzle":"../static/img/practice/pt3_M1.png","item_order":[1,2,0,3],"correct":0,"choice":0,"accuracy":1,"rt":3049.5,"screen_resolution":[900,1440],"minimum_resolution":1,"item_set":"practice","trial_type":"mars","trial_index":5,"time_elapsed":59155,"internal_node_id":"0.0-5.0-0.0","experiment":"calibration","task_version":"1.0","jspsych_version":"6.3.1"},{"view_history":[{"page_index":0,"viewing_time":1707.3999999761581},{"page_index":1,"viewing_time":19377.399999976158}],"rt":21085.399999976158,"trial_type":"instructions","trial_index":6,"time_elapsed":80243,"internal_node_id":"0.0-6.0","experiment":"calibration","task_version":"1.0","jspsych_version":"6.3.1"},{"rt":null,"stimulus":"<div style=\"font-size:24px;\">Loading puzzle:<br>1 / 16</div>","response":null,"trial_type":"html-keyboard-response","trial_index":7,"time_elapsed":81454,"internal_node_id":"0.0-7.0-0.0","experiment":"calibration","task_version":"1.0","jspsych_version":"6.3.1"},{"puzzle":"../static/img/is3/tf2/tf2_20_M_ss3.jpeg","item_order":[1,0,3,2],"correct":0,"choice":0,"accuracy":1,"rt":16613.5,"screen_resolution":[900,1440],"minimum_resolution":1,"item_set":3,"item":20,"test_form":2,"distractor":"md","trial_type":"mars","trial_index":8,"time_elapsed":98071,"internal_node_id":"0.0-7.0-1.0","experiment":"calibration","task_version":"1.0","jspsych_version":"6.3.1","browser_interactions":0},{"rt":null,"stimulus":"<div style=\"font-size:24px;\">Loading puzzle:<br>2 / 16</div>","response":null,"trial_type":"html-keyboard-response","trial_index":9,"time_elapsed":99277,"internal_node_id":"0.0-8.0-0.0","experiment":"calibration","task_version":"1.0","jspsych_version":"6.3.1"},{"puzzle":"../static/img/is3/tf1/tf1_39_M_ss2.jpeg","item_order":[3,1,2,0],"correct":0,"choice":null,"accuracy":null,"rt":null,"screen_resolution":[900,1440],"minimum_resolution":1,"item_set":3,"item":39,"test_form":1,"distractor":"md","trial_type":"mars","trial_index":10,"time_elapsed":129280,"internal_node_id":"0.0-8.0-1.0","experiment":"calibration","task_version":"1.0","jspsych_version":"6.3.1","browser_interactions":0},{"rt":null,"stimulus":"<div style=\"font-size:24px;\">Loading puzzle:<br>3 / 16</div>","response":null,"trial_type":"html-keyboard-response","trial_index":11,"time_elapsed":130482,"internal_node_id":"0.0-9.0-0.0","experiment":"calibration","task_version":"1.0","jspsych_version":"6.3.1"},{"puzzle":"../static/img/is3/tf1/tf1_71_M_ss1.jpeg","item_order":[0,2,3,1],"correct":0,"choice":0,"accuracy":1,"rt":11530.099999904633,"screen_resolution":[900,1440],"minimum_resolution":1,"item_set":3,"item":71,"test_form":1,"distractor":"pd","trial_type":"mars","trial_index":12,"time_elapsed":142016,"internal_node_id":"0.0-9.0-1.0","experiment":"calibration","task_version":"1.0","jspsych_version":"6.3.1","browser_interactions":0},{"rt":null,"stimulus":"<div style=\"font-size:24px;\">Loading puzzle:<br>4 / 16</div>","response":null,"trial_type":"html-keyboard-response","trial_index":13,"time_elapsed":143223,"internal_node_id":"0.0-10.0-0.0","experiment":"calibration","task_version":"1.0","jspsych_version":"6.3.1"},{"puzzle":"../static/img/is3/tf2/tf2_61_M_ss2.jpeg","item_order":[3,1,2,0],"correct":0,"choice":0,"accuracy":1,"rt":23354.799999952316,"screen_resolution":[900,1440],"minimum_resolution":1,"item_set":3,"item":61,"test_form":2,"distractor":"pd","trial_type":"mars","trial_index":14,"time_elapsed":166582,"internal_node_id":"0.0-10.0-1.0","experiment":"calibration","task_version":"1.0","jspsych_version":"6.3.1","browser_interactions":0},{"rt":null,"stimulus":"<div style=\"font-size:24px;\">Loading puzzle:<br>5 / 16</div>","response":null,"trial_type":"html-keyboard-response","trial_index":15,"time_elapsed":167788,"internal_node_id":"0.0-11.0-0.0","experiment":"calibration","task_version":"1.0","jspsych_version":"6.3.1"},{"puzzle":"../static/img/is3/tf1/tf1_27_M_ss2.jpeg","item_order":[1,0,3,2],"correct":0,"choice":0,"accuracy":1,"rt":26191.600000023842,"screen_resolution":[900,1440],"minimum_resolution":1,"item_set":3,"item":27,"test_form":1,"distractor":"md","trial_type":"mars","trial_index":16,"time_elapsed":193983,"internal_node_id":"0.0-11.0-1.0","experiment":"calibration","task_version":"1.0","jspsych_version":"6.3.1","browser_interactions":0},{"rt":null,"stimulus":"<div style=\"font-size:24px;\">Loading puzzle:<br>6 / 16</div>","response":null,"trial_type":"html-keyboard-response","trial_index":17,"time_elapsed":195187,"internal_node_id":"0.0-12.0-0.0","experiment":"calibration","task_version":"1.0","jspsych_version":"6.3.1"},{"puzzle":"../static/img/is3/tf2/tf2_15_M_ss1.jpeg","item_order":[3,0,2,1],"correct":0,"choice":0,"accuracy":1,"rt":15390.300000071526,"screen_resolution":[900,1440],"minimum_resolution":1,"item_set":3,"item":15,"test_form":2,"distractor":"pd","trial_type":"mars","trial_index":18,"time_elapsed":210581,"internal_node_id":"0.0-12.0-1.0","experiment":"calibration","task_version":"1.0","jspsych_version":"6.3.1","browser_interactions":0},{"rt":null,"stimulus":"<div style=\"font-size:24px;\">Loading puzzle:<br>7 / 16</div>","response":null,"trial_type":"html-keyboard-response","trial_index":19,"time_elapsed":211785,"internal_node_id":"0.0-13.0-0.0","experiment":"calibration","task_version":"1.0","jspsych_version":"6.3.1"},{"puzzle":"../static/img/is3/tf1/tf1_17_M_ss1.jpeg","item_order":[2,1,3,0],"correct":0,"choice":0,"accuracy":1,"rt":26761.899999976158,"screen_resolution":[900,1440],"minimum_resolution":1,"item_set":3,"item":17,"test_form":1,"distractor":"md","trial_type":"mars","trial_index":20,"time_elapsed":238550,"internal_node_id":"0.0-13.0-1.0","experiment":"calibration","task_version":"1.0","jspsych_version":"6.3.1","browser_interactions":0},{"rt":null,"stimulus":"<div style=\"font-size:24px;\">Loading puzzle:<br>8 / 16</div>","response":null,"trial_type":"html-keyboard-response","trial_index":21,"time_elapsed":239755,"internal_node_id":"0.0-14.0-0.0","experiment":"calibration","task_version":"1.0","jspsych_version":"6.3.1"},{"puzzle":"../static/img/is3/tf2/tf2_69_M_ss1.jpeg","item_order":[3,2,1,0],"correct":0,"choice":0,"accuracy":1,"rt":18281.200000047684,"screen_resolution":[900,1440],"minimum_resolution":1,"item_set":3,"item":69,"test_form":2,"distractor":"pd","trial_type":"mars","trial_index":22,"time_elapsed":258039,"internal_node_id":"0.0-14.0-1.0","experiment":"calibration","task_version":"1.0","jspsych_version":"6.3.1","browser_interactions":0},{"rt":null,"stimulus":"<div style=\"font-size:24px;\">Loading puzzle:<br>9 / 16</div>","response":null,"trial_type":"html-keyboard-response","trial_index":23,"time_elapsed":259245,"internal_node_id":"0.0-15.0-0.0","experiment":"calibration","task_version":"1.0","jspsych_version":"6.3.1"},{"puzzle":"../static/img/is3/tf2/tf2_42_M_ss1.jpeg","item_order":[2,3,0,1],"correct":0,"choice":0,"accuracy":1,"rt":20190.400000095367,"screen_resolution":[900,1440],"minimum_resolution":1,"item_set":3,"item":42,"test_form":2,"distractor":"pd","trial_type":"mars","trial_index":24,"time_elapsed":279439,"internal_node_id":"0.0-15.0-1.0","experiment":"calibration","task_version":"1.0","jspsych_version":"6.3.1","browser_interactions":0},{"rt":null,"stimulus":"<div style=\"font-size:24px;\">Loading puzzle:<br>10 / 16</div>","response":null,"trial_type":"html-keyboard-response","trial_index":25,"time_elapsed":280643,"internal_node_id":"0.0-16.0-0.0","experiment":"calibration","task_version":"1.0","jspsych_version":"6.3.1"},{"puzzle":"../static/img/is3/tf1/tf1_72_M_ss2.jpeg","item_order":[3,2,0,1],"correct":0,"choice":0,"accuracy":1,"rt":28100.5,"screen_resolution":[900,1440],"minimum_resolution":1,"item_set":3,"item":72,"test_form":1,"distractor":"md","trial_type":"mars","trial_index":26,"time_elapsed":308748,"internal_node_id":"0.0-16.0-1.0","experiment":"calibration","task_version":"1.0","jspsych_version":"6.3.1","browser_interactions":0},{"rt":null,"stimulus":"<div style=\"font-size:24px;\">Loading puzzle:<br>11 / 16</div>","response":null,"trial_type":"html-keyboard-response","trial_index":27,"time_elapsed":309956,"internal_node_id":"0.0-17.0-0.0","experiment":"calibration","task_version":"1.0","jspsych_version":"6.3.1"},{"puzzle":"../static/img/is3/tf2/tf2_52_M_ss2.jpeg","item_order":[2,3,0,1],"correct":0,"choice":0,"accuracy":1,"rt":23355.599999904633,"screen_resolution":[900,1440],"minimum_resolution":1,"item_set":3,"item":52,"test_form":2,"distractor":"md","trial_type":"mars","trial_index":28,"time_elapsed":333315,"internal_node_id":"0.0-17.0-1.0","experiment":"calibration","task_version":"1.0","jspsych_version":"6.3.1","browser_interactions":0},{"rt":null,"stimulus":"<div style=\"font-size:24px;\">Loading puzzle:<br>12 / 16</div>","response":null,"trial_type":"html-keyboard-response","trial_index":29,"time_elapsed":334521,"internal_node_id":"0.0-18.0-0.0","experiment":"calibration","task_version":"1.0","jspsych_version":"6.3.1"},{"puzzle":"../static/img/is3/tf1/tf1_59_M_ss1.jpeg","item_order":[2,0,1,3],"correct":0,"choice":0,"accuracy":1,"rt":20246.199999928474,"screen_resolution":[900,1440],"minimum_resolution":1,"item_set":3,"item":59,"test_form":1,"distractor":"pd","trial_type":"mars","trial_index":30,"time_elapsed":354771,"internal_node_id":"0.0-18.0-1.0","experiment":"calibration","task_version":"1.0","jspsych_version":"6.3.1","browser_interactions":0},{"rt":null,"stimulus":"<div style=\"font-size:24px;\">Loading puzzle:<br>13 / 16</div>","response":null,"trial_type":"html-keyboard-response","trial_index":31,"time_elapsed":355976,"internal_node_id":"0.0-19.0-0.0","experiment":"calibration","task_version":"1.0","jspsych_version":"6.3.1"},{"puzzle":"../static/img/is3/tf2/tf2_76_M_ss2.jpeg","item_order":[1,0,3,2],"correct":0,"choice":0,"accuracy":1,"rt":12243.700000047684,"screen_resolution":[900,1440],"minimum_resolution":1,"item_set":3,"item":76,"test_form":2,"distractor":"pd","trial_type":"mars","trial_index":32,"time_elapsed":368224,"internal_node_id":"0.0-19.0-1.0","experiment":"calibration","task_version":"1.0","jspsych_version":"6.3.1","browser_interactions":0},{"rt":null,"stimulus":"<div style=\"font-size:24px;\">Loading puzzle:<br>14 / 16</div>","response":null,"trial_type":"html-keyboard-response","trial_index":33,"time_elapsed":369427,"internal_node_id":"0.0-20.0-0.0","experiment":"calibration","task_version":"1.0","jspsych_version":"6.3.1"},{"puzzle":"../static/img/is3/tf1/tf1_55_M_ss3.jpeg","item_order":[0,2,1,3],"correct":0,"choice":1,"accuracy":0,"rt":27720.5,"screen_resolution":[900,1440],"minimum_resolution":1,"item_set":3,"item":55,"test_form":1,"distractor":"md","trial_type":"mars","trial_index":34,"time_elapsed":397151,"internal_node_id":"0.0-20.0-1.0","experiment":"calibration","task_version":"1.0","jspsych_version":"6.3.1","browser_interactions":0},{"rt":null,"stimulus":"<div style=\"font-size:24px;\">Loading puzzle:<br>15 / 16</div>","response":null,"trial_type":"html-keyboard-response","trial_index":35,"time_elapsed":398355,"internal_node_id":"0.0-21.0-0.0","experiment":"calibration","task_version":"1.0","jspsych_version":"6.3.1"},{"puzzle":"../static/img/is3/tf2/tf2_21_M_ss1.jpeg","item_order":[1,0,3,2],"correct":0,"choice":0,"accuracy":1,"rt":27180.800000071526,"screen_resolution":[900,1440],"minimum_resolution":1,"item_set":3,"item":21,"test_form":2,"distractor":"md","trial_type":"mars","trial_index":36,"time_elapsed":425539,"internal_node_id":"0.0-21.0-1.0","experiment":"calibration","task_version":"1.0","jspsych_version":"6.3.1","browser_interactions":0},{"rt":null,"stimulus":"<div style=\"font-size:24px;\">Loading puzzle:<br>16 / 16</div>","response":null,"trial_type":"html-keyboard-response","trial_index":37,"time_elapsed":426743,"internal_node_id":"0.0-22.0-0.0","experiment":"calibration","task_version":"1.0","jspsych_version":"6.3.1"},{"puzzle":"../static/img/is3/tf1/tf1_35_M_ss1.jpeg","item_order":[2,3,1,0],"correct":0,"choice":2,"accuracy":0,"rt":28684,"screen_resolution":[900,1440],"minimum_resolution":1,"item_set":3,"item":35,"test_form":1,"distractor":"md","trial_type":"mars","trial_index":38,"time_elapsed":455430,"internal_node_id":"0.0-22.0-1.0","experiment":"calibration","task_version":"1.0","jspsych_version":"6.3.1","browser_interactions":0},{"value":[0,1,0],"trial_type":"call-function","trial_index":39,"time_elapsed":455431,"internal_node_id":"0.0-23.0","experiment":"calibration","task_version":"1.0","jspsych_version":"6.3.1"},{"view_history":[{"page_index":0,"viewing_time":4127}],"rt":4127.5,"trial_type":"instructions","trial_index":40,"time_elapsed":459560,"internal_node_id":"0.0-24.0","experiment":"calibration","task_version":"1.0","jspsych_version":"6.3.1"},{"rt":19495.5,"responses":{"age":"19","gender-categorical":"Male","gender-free-response":"","ethnicity":"Not Hispanic or Latino","race":["White"],"education":"Some college","free-response":""},"trial_type":"survey-demo","trial_index":41,"time_elapsed":479060,"internal_node_id":"0.0-25.0","experiment":"calibration","task_version":"1.0","jspsych_version":"6.3.1","interactions":"[{\"event\":\"fullscreenenter\",\"trial\":1,\"time\":4748}]"}]