[{"success":true,"timeout":false,"failed_images":[],"failed_audio":[],"failed_video":[],"trial_type":"preload","trial_index":0,"time_elapsed":1493,"internal_node_id":"0.0-0.0","experiment":"calibration","task_version":"1.0","jspsych_version":"6.3.1"},{"success":true,"trial_type":"fullscreen","trial_index":1,"time_elapsed":4225,"internal_node_id":"0.0-1.0","experiment":"calibration","task_version":"1.0","jspsych_version":"6.3.1"},{"view_history":[{"page_index":0,"viewing_time":5688.300000011921},{"page_index":1,"viewing_time":2878.300000011921},{"page_index":2,"viewing_time":1214.2999999821186}],"rt":9781.40000000596,"trial_type":"instructions","trial_index":2,"time_elapsed":14008,"internal_node_id":"0.0-2.0","experiment":"calibration","task_version":"1.0","jspsych_version":"6.3.1"},{"puzzle":"../static/img/practice/pt1_M1.png","item_order":[1,3,0,2],"correct":0,"choice":0,"accuracy":1,"rt":7312.199999988079,"screen_resolution":[1080,1920],"minimum_resolution":1,"item_set":"practice","trial_type":"mars","trial_index":3,"time_elapsed":23323,"internal_node_id":"0.0-3.0-0.0","experiment":"calibration","task_version":"1.0","jspsych_version":"6.3.1"},{"puzzle":"../static/img/practice/pt2_M1.png","item_order":[0,3,1,2],"correct":0,"choice":0,"accuracy":1,"rt":3094.0999999940395,"screen_resolution":[1080,1920],"minimum_resolution":1,"item_set":"practice","trial_type":"mars","trial_index":4,"time_elapsed":28419,"internal_node_id":"0.0-4.0-0.0","experiment":"calibration","task_version":"1.0","jspsych_version":"6.3.1"},{"puzzle":"../static/img/practice/pt3_M1.png","item_order":[3,0,1,2],"correct":0,"choice":0,"accuracy":1,"rt":1801.7000000178814,"screen_resolution":[1080,1920],"minimum_resolution":1,"item_set":"practice","trial_type":"mars","trial_index":5,"time_elapsed":32223,"internal_node_id":"0.0-5.0-0.0","experiment":"calibration","task_version":"1.0","jspsych_version":"6.3.1"},{"view_history":[{"page_index":0,"viewing_time":1157.7000000178814},{"page_index":1,"viewing_time":7901.199999988079}],"rt":9059,"trial_type":"instructions","trial_index":6,"time_elapsed":41282,"internal_node_id":"0.0-6.0","experiment":"calibration","task_version":"1.0","jspsych_version":"6.3.1"},{"rt":null,"stimulus":"<div style=\"font-size:24px;\">Loading puzzle:<br>1 / 16</div>","response":null,"trial_type":"html-keyboard-response","trial_index":7,"time_elapsed":42486,"internal_node_id":"0.0-7.0-0.0","experiment":"calibration","task_version":"1.0","jspsych_version":"6.3.1"},{"puzzle":"../static/img/is3/tf1/tf1_47_M_ss1.jpeg","item_order":[1,2,0,3],"correct":0,"choice":0,"accuracy":1,"rt":14617.5,"screen_resolution":[1080,1920],"minimum_resolution":1,"item_set":3,"item":47,"test_form":1,"distractor":"pd","trial_type":"mars","trial_index":8,"time_elapsed":57106,"internal_node_id":"0.0-7.0-1.0","experiment":"calibration","task_version":"1.0","jspsych_version":"6.3.1","browser_interactions":0},{"rt":null,"stimulus":"<div style=\"font-size:24px;\">Loading puzzle:<br>2 / 16</div>","response":null,"trial_type":"html-keyboard-response","trial_index":9,"time_elapsed":58308,"internal_node_id":"0.0-8.0-0.0","experiment":"calibration","task_version":"1.0","jspsych_version":"6.3.1"},{"puzzle":"../static/img/is3/tf2/tf2_20_M_ss3.jpeg","item_order":[1,0,3,2],"correct":0,"choice":0,"accuracy":1,"rt":6559.5,"screen_resolution":[1080,1920],"minimum_resolution":1,"item_set":3,"item":20,"test_form":2,"distractor":"pd","trial_type":"mars","trial_index":10,"time_elapsed":64869,"internal_node_id":"0.0-8.0-1.0","experiment":"calibration","task_version":"1.0","jspsych_version":"6.3.1","browser_interactions":0},{"rt":null,"stimulus":"<div style=\"font-size:24px;\">Loading puzzle:<br>3 / 16</div>","response":null,"trial_type":"html-keyboard-response","trial_index":11,"time_elapsed":66071,"internal_node_id":"0.0-9.0-0.0","experiment":"calibration","task_version":"1.0","jspsych_version":"6.3.1"},{"puzzle":"../static/img/is3/tf1/tf1_70_M_ss3.jpeg","item_order":[2,0,1,3],"correct":0,"choice":0,"accuracy":1,"rt":13043.300000011921,"screen_resolution":[1080,1920],"minimum_resolution":1,"item_set":3,"item":70,"test_form":1,"distractor":"pd","trial_type":"mars","trial_index":12,"time_elapsed":79117,"internal_node_id":"0.0-9.0-1.0","experiment":"calibration","task_version":"1.0","jspsych_version":"6.3.1","browser_interactions":0},{"rt":null,"stimulus":"<div style=\"font-size:24px;\">Loading puzzle:<br>4 / 16</div>","response":null,"trial_type":"html-keyboard-response","trial_index":13,"time_elapsed":80318,"internal_node_id":"0.0-10.0-0.0","experiment":"calibration","task_version":"1.0","jspsych_version":"6.3.1"},{"puzzle":"../static/img/is3/tf2/tf2_49_M_ss2.jpeg","item_order":[2,1,0,3],"correct":0,"choice":0,"accuracy":1,"rt":9590.09999999404,"screen_resolution":[1080,1920],"minimum_resolution":1,"item_set":3,"item":49,"test_form":2,"distractor":"pd","trial_type":"mars","trial_index":14,"time_elapsed":89910,"internal_node_id":"0.0-10.0-1.0","experiment":"calibration","task_version":"1.0","jspsych_version":"6.3.1","browser_interactions":0},{"rt":null,"stimulus":"<div style=\"font-size:24px;\">Loading puzzle:<br>5 / 16</div>","response":null,"trial_type":"html-keyboard-response","trial_index":15,"time_elapsed":91112,"internal_node_id":"0.0-11.0-0.0","experiment":"calibration","task_version":"1.0","jspsych_version":"6.3.1"},{"puzzle":"../static/img/is3/tf1/tf1_37_M_ss3.jpeg","item_order":[1,3,0,2],"correct":0,"choice":2,"accuracy":0,"rt":22829.100000023842,"screen_resolution":[1080,1920],"minimum_resolution":1,"item_set":3,"item":37,"test_form":1,"distractor":"md","trial_type":"mars","trial_index":16,"time_elapsed":113943,"internal_node_id":"0.0-11.0-1.0","experiment":"calibration","task_version":"1.0","jspsych_version":"6.3.1","browser_interactions":0},{"rt":null,"stimulus":"<div style=\"font-size:24px;\">Loading puzzle:<br>6 / 16</div>","response":null,"trial_type":"html-keyboard-response","trial_index":17,"time_elapsed":115144,"internal_node_id":"0.0-12.0-0.0","experiment":"calibration","task_version":"1.0","jspsych_version":"6.3.1"},{"puzzle":"../static/img/is3/tf2/tf2_18_M_ss1.jpeg","item_order":[0,2,1,3],"correct":0,"choice":3,"accuracy":0,"rt":18089.59999999404,"screen_resolution":[1080,1920],"minimum_resolution":1,"item_set":3,"item":18,"test_form":2,"distractor":"md","trial_type":"mars","trial_index":18,"time_elapsed":133235,"internal_node_id":"0.0-12.0-1.0","experiment":"calibration","task_version":"1.0","jspsych_version":"6.3.1","browser_interactions":0},{"rt":null,"stimulus":"<div style=\"font-size:24px;\">Loading puzzle:<br>7 / 16</div>","response":null,"trial_type":"html-keyboard-response","trial_index":19,"time_elapsed":134437,"internal_node_id":"0.0-13.0-0.0","experiment":"calibration","task_version":"1.0","jspsych_version":"6.3.1"},{"puzzle":"../static/img/is3/tf1/tf1_77_M_ss1.jpeg","item_order":[0,3,2,1],"correct":0,"choice":0,"accuracy":1,"rt":15916.59999999404,"screen_resolution":[1080,1920],"minimum_resolution":1,"item_set":3,"item":77,"test_form":1,"distractor":"pd","trial_type":"mars","trial_index":20,"time_elapsed":150356,"internal_node_id":"0.0-13.0-1.0","experiment":"calibration","task_version":"1.0","jspsych_version":"6.3.1","browser_interactions":0},{"rt":null,"stimulus":"<div style=\"font-size:24px;\">Loading puzzle:<br>8 / 16</div>","response":null,"trial_type":"html-keyboard-response","trial_index":21,"time_elapsed":151557,"internal_node_id":"0.0-14.0-0.0","experiment":"calibration","task_version":"1.0","jspsych_version":"6.3.1"},{"puzzle":"../static/img/is3/tf2/tf2_56_M_ss3.jpeg","item_order":[1,3,2,0],"correct":0,"choice":3,"accuracy":0,"rt":16141.199999988079,"screen_resolution":[1080,1920],"minimum_resolution":1,"item_set":3,"item":56,"test_form":2,"distractor":"pd","trial_type":"mars","trial_index":22,"time_elapsed":167701,"internal_node_id":"0.0-14.0-1.0","experiment":"calibration","task_version":"1.0","jspsych_version":"6.3.1","browser_interactions":0},{"rt":null,"stimulus":"<div style=\"font-size:24px;\">Loading puzzle:<br>9 / 16</div>","response":null,"trial_type":"html-keyboard-response","trial_index":23,"time_elapsed":168902,"internal_node_id":"0.0-15.0-0.0","experiment":"calibration","task_version":"1.0","jspsych_version":"6.3.1"},{"puzzle":"../static/img/is3/tf2/tf2_23_M_ss3.jpeg","item_order":[0,3,1,2],"correct":0,"choice":0,"accuracy":1,"rt":7123.5,"screen_resolution":[1080,1920],"minimum_resolution":1,"item_set":3,"item":23,"test_form":2,"distractor":"pd","trial_type":"mars","trial_index":24,"time_elapsed":176028,"internal_node_id":"0.0-15.0-1.0","experiment":"calibration","task_version":"1.0","jspsych_version":"6.3.1","browser_interactions":0},{"rt":null,"stimulus":"<div style=\"font-size:24px;\">Loading puzzle:<br>10 / 16</div>","response":null,"trial_type":"html-keyboard-response","trial_index":25,"time_elapsed":177229,"internal_node_id":"0.0-16.0-0.0","experiment":"calibration","task_version":"1.0","jspsych_version":"6.3.1"},{"puzzle":"../static/img/is3/tf1/tf1_72_M_ss2.jpeg","item_order":[3,1,0,2],"correct":0,"choice":0,"accuracy":1,"rt":28799.80000001192,"screen_resolution":[1080,1920],"minimum_resolution":1,"item_set":3,"item":72,"test_form":1,"distractor":"md","trial_type":"mars","trial_index":26,"time_elapsed":206032,"internal_node_id":"0.0-16.0-1.0","experiment":"calibration","task_version":"1.0","jspsych_version":"6.3.1","browser_interactions":0},{"rt":null,"stimulus":"<div style=\"font-size:24px;\">Loading puzzle:<br>11 / 16</div>","response":null,"trial_type":"html-keyboard-response","trial_index":27,"time_elapsed":207233,"internal_node_id":"0.0-17.0-0.0","experiment":"calibration","task_version":"1.0","jspsych_version":"6.3.1"},{"puzzle":"../static/img/is3/tf1/tf1_74_M_ss1.jpeg","item_order":[0,3,1,2],"correct":0,"choice":1,"accuracy":0,"rt":24285.5,"screen_resolution":[1080,1920],"minimum_resolution":1,"item_set":3,"item":74,"test_form":1,"distractor":"pd","trial_type":"mars","trial_index":28,"time_elapsed":231522,"internal_node_id":"0.0-17.0-1.0","experiment":"calibration","task_version":"1.0","jspsych_version":"6.3.1","browser_interactions":0},{"rt":null,"stimulus":"<div style=\"font-size:24px;\">Loading puzzle:<br>12 / 16</div>","response":null,"trial_type":"html-keyboard-response","trial_index":29,"time_elapsed":232724,"internal_node_id":"0.0-18.0-0.0","experiment":"calibration","task_version":"1.0","jspsych_version":"6.3.1"},{"puzzle":"../static/img/is3/tf2/tf2_52_M_ss2.jpeg","item_order":[3,1,0,2],"correct":0,"choice":0,"accuracy":1,"rt":22840.79999998212,"screen_resolution":[1080,1920],"minimum_resolution":1,"item_set":3,"item":52,"test_form":2,"distractor":"md","trial_type":"mars","trial_index":30,"time_elapsed":255567,"internal_node_id":"0.0-18.0-1.0","experiment":"calibration","task_version":"1.0","jspsych_version":"6.3.1","browser_interactions":0},{"rt":null,"stimulus":"<div style=\"font-size:24px;\">Loading puzzle:<br>13 / 16</div>","response":null,"trial_type":"html-keyboard-response","trial_index":31,"time_elapsed":256768,"internal_node_id":"0.0-19.0-0.0","experiment":"calibration","task_version":"1.0","jspsych_version":"6.3.1"},{"puzzle":"../static/img/is3/tf1/tf1_75_M_ss2.jpeg","item_order":[3,2,1,0],"correct":0,"choice":2,"accuracy":0,"rt":29241.40000000596,"screen_resolution":[1080,1920],"minimum_resolution":1,"item_set":3,"item":75,"test_form":1,"distractor":"md","trial_type":"mars","trial_index":32,"time_elapsed":286013,"internal_node_id":"0.0-19.0-1.0","experiment":"calibration","task_version":"1.0","jspsych_version":"6.3.1","browser_interactions":0},{"rt":null,"stimulus":"<div style=\"font-size:24px;\">Loading puzzle:<br>14 / 16</div>","response":null,"trial_type":"html-keyboard-response","trial_index":33,"time_elapsed":287214,"internal_node_id":"0.0-20.0-0.0","experiment":"calibration","task_version":"1.0","jspsych_version":"6.3.1"},{"puzzle":"../static/img/is3/tf2/tf2_36_M_ss1.jpeg","item_order":[2,1,0,3],"correct":0,"choice":1,"accuracy":0,"rt":27635.20000001788,"screen_resolution":[1080,1920],"minimum_resolution":1,"item_set":3,"item":36,"test_form":2,"distractor":"pd","trial_type":"mars","trial_index":34,"time_elapsed":314853,"internal_node_id":"0.0-20.0-1.0","experiment":"calibration","task_version":"1.0","jspsych_version":"6.3.1","browser_interactions":0},{"rt":null,"stimulus":"<div style=\"font-size:24px;\">Loading puzzle:<br>15 / 16</div>","response":null,"trial_type":"html-keyboard-response","trial_index":35,"time_elapsed":316054,"internal_node_id":"0.0-21.0-0.0","experiment":"calibration","task_version":"1.0","jspsych_version":"6.3.1"},{"puzzle":"../static/img/is3/tf2/tf2_29_M_ss3.jpeg","item_order":[1,2,0,3],"correct":0,"choice":3,"accuracy":0,"rt":14202.40000000596,"screen_resolution":[1080,1920],"minimum_resolution":1,"item_set":3,"item":29,"test_form":2,"distractor":"pd","trial_type":"mars","trial_index":36,"time_elapsed":330258,"internal_node_id":"0.0-21.0-1.0","experiment":"calibration","task_version":"1.0","jspsych_version":"6.3.1","browser_interactions":0},{"rt":null,"stimulus":"<div style=\"font-size:24px;\">Loading puzzle:<br>16 / 16</div>","response":null,"trial_type":"html-keyboard-response","trial_index":37,"time_elapsed":331460,"internal_node_id":"0.0-22.0-0.0","experiment":"calibration","task_version":"1.0","jspsych_version":"6.3.1"},{"puzzle":"../static/img/is3/tf1/tf1_35_M_ss1.jpeg","item_order":[1,3,2,0],"correct":0,"choice":2,"accuracy":0,"rt":9254.800000011921,"screen_resolution":[1080,1920],"minimum_resolution":1,"item_set":3,"item":35,"test_form":1,"distractor":"pd","trial_type":"mars","trial_index":38,"time_elapsed":340718,"internal_node_id":"0.0-22.0-1.0","experiment":"calibration","task_version":"1.0","jspsych_version":"6.3.1","browser_interactions":0},{"value":[0,0,0],"trial_type":"call-function","trial_index":39,"time_elapsed":340719,"internal_node_id":"0.0-23.0","experiment":"calibration","task_version":"1.0","jspsych_version":"6.3.1"},{"view_history":[{"page_index":0,"viewing_time":1996.199999988079}],"rt":1996.2999999821186,"trial_type":"instructions","trial_index":40,"time_elapsed":342716,"internal_node_id":"0.0-24.0","experiment":"calibration","task_version":"1.0","jspsych_version":"6.3.1"},{"rt":20468.70000001788,"responses":{"age":"25","gender-categorical":"Male","gender-free-response":"","ethnicity":"Hispanic or Latino","race":["White"],"education":"Some college","free-response":""},"trial_type":"survey-demo","trial_index":41,"time_elapsed":363186,"internal_node_id":"0.0-25.0","experiment":"calibration","task_version":"1.0","jspsych_version":"6.3.1","interactions":"[{\"event\":\"fullscreenenter\",\"trial\":1,\"time\":3248}]"}]