[{"success":true,"timeout":false,"failed_images":[],"failed_audio":[],"failed_video":[],"trial_type":"preload","trial_index":0,"time_elapsed":3690,"internal_node_id":"0.0-0.0","experiment":"calibration","task_version":"1.0","jspsych_version":"6.3.1"},{"success":true,"trial_type":"fullscreen","trial_index":1,"time_elapsed":11960,"internal_node_id":"0.0-1.0","experiment":"calibration","task_version":"1.0","jspsych_version":"6.3.1"},{"view_history":[{"page_index":0,"viewing_time":105288},{"page_index":1,"viewing_time":15007},{"page_index":2,"viewing_time":5048}],"rt":125343,"trial_type":"instructions","trial_index":2,"time_elapsed":137318,"internal_node_id":"0.0-3.0","experiment":"calibration","task_version":"1.0","jspsych_version":"6.3.1"},{"puzzle":"../static/img/practice/pt1_M1.png","item_order":[2,3,0,1],"correct":0,"choice":0,"accuracy":1,"rt":13148,"screen_resolution":[768,1366],"minimum_resolution":1,"item_set":"practice","trial_type":"mars","trial_index":3,"time_elapsed":152471,"internal_node_id":"0.0-4.0-0.0","experiment":"calibration","task_version":"1.0","jspsych_version":"6.3.1"},{"puzzle":"../static/img/practice/pt2_M1.png","item_order":[1,3,0,2],"correct":0,"choice":0,"accuracy":1,"rt":7376,"screen_resolution":[768,1366],"minimum_resolution":1,"item_set":"practice","trial_type":"mars","trial_index":4,"time_elapsed":161861,"internal_node_id":"0.0-5.0-0.0","experiment":"calibration","task_version":"1.0","jspsych_version":"6.3.1"},{"puzzle":"../static/img/practice/pt3_M1.png","item_order":[0,3,1,2],"correct":0,"choice":0,"accuracy":1,"rt":7029,"screen_resolution":[768,1366],"minimum_resolution":1,"item_set":"practice","trial_type":"mars","trial_index":5,"time_elapsed":170900,"internal_node_id":"0.0-6.0-0.0","experiment":"calibration","task_version":"1.0","jspsych_version":"6.3.1"},{"view_history":[{"page_index":0,"viewing_time":3607},{"page_index":1,"viewing_time":13616}],"rt":17223,"trial_type":"instructions","trial_index":6,"time_elapsed":188126,"internal_node_id":"0.0-7.0","experiment":"calibration","task_version":"1.0","jspsych_version":"6.3.1"},{"rt":null,"stimulus":"<div style=\"font-size:24px;\">Loading puzzle:<br>1 / 16</div>","response":null,"trial_type":"html-keyboard-response","trial_index":7,"time_elapsed":189351,"internal_node_id":"0.0-8.0-1.0","experiment":"calibration","task_version":"1.0","jspsych_version":"6.3.1"},{"puzzle":"../static/img/is3/tf3/tf3_39_M_ss3.jpeg","item_order":[3,0,1,2],"correct":0,"choice":0,"accuracy":1,"rt":28308,"screen_resolution":[768,1366],"minimum_resolution":1,"item_set":3,"item":39,"test_form":3,"distractor":"md","trial_type":"mars","trial_index":8,"time_elapsed":217663,"internal_node_id":"0.0-8.0-2.0","experiment":"calibration","task_version":"1.0","jspsych_version":"6.3.1","browser_interactions":0},{"rt":null,"stimulus":"<div style=\"font-size:24px;\">Loading puzzle:<br>2 / 16</div>","response":null,"trial_type":"html-keyboard-response","trial_index":9,"time_elapsed":218880,"internal_node_id":"0.0-9.0-1.0","experiment":"calibration","task_version":"1.0","jspsych_version":"6.3.1"},{"puzzle":"../static/img/is3/tf3/tf3_22_M_ss1.jpeg","item_order":[0,3,2,1],"correct":0,"choice":0,"accuracy":1,"rt":18522,"screen_resolution":[768,1366],"minimum_resolution":1,"item_set":3,"item":22,"test_form":3,"distractor":"md","trial_type":"mars","trial_index":10,"time_elapsed":237406,"internal_node_id":"0.0-9.0-2.0","experiment":"calibration","task_version":"1.0","jspsych_version":"6.3.1","browser_interactions":0},{"rt":null,"stimulus":"<div style=\"font-size:24px;\">Loading puzzle:<br>3 / 16</div>","response":null,"trial_type":"html-keyboard-response","trial_index":11,"time_elapsed":238610,"internal_node_id":"0.0-10.0-1.0","experiment":"calibration","task_version":"1.0","jspsych_version":"6.3.1"},{"puzzle":"../static/img/is3/tf3/tf3_49_M_ss1.jpeg","item_order":[3,2,0,1],"correct":0,"choice":0,"accuracy":1,"rt":10176,"screen_resolution":[768,1366],"minimum_resolution":1,"item_set":3,"item":49,"test_form":3,"distractor":"pd","trial_type":"mars","trial_index":12,"time_elapsed":248790,"internal_node_id":"0.0-10.0-2.0","experiment":"calibration","task_version":"1.0","jspsych_version":"6.3.1","browser_interactions":0},{"rt":null,"stimulus":"<div style=\"font-size:24px;\">Loading puzzle:<br>4 / 16</div>","response":null,"trial_type":"html-keyboard-response","trial_index":13,"time_elapsed":249999,"internal_node_id":"0.0-11.0-1.0","experiment":"calibration","task_version":"1.0","jspsych_version":"6.3.1"},{"puzzle":"../static/img/is3/tf3/tf3_71_M_ss2.jpeg","item_order":[3,0,2,1],"correct":0,"choice":1,"accuracy":0,"rt":26340,"screen_resolution":[768,1366],"minimum_resolution":1,"item_set":3,"item":71,"test_form":3,"distractor":"md","trial_type":"mars","trial_index":14,"time_elapsed":276342,"internal_node_id":"0.0-11.0-2.0","experiment":"calibration","task_version":"1.0","jspsych_version":"6.3.1","browser_interactions":0},{"rt":null,"stimulus":"<div style=\"font-size:24px;\">Loading puzzle:<br>5 / 16</div>","response":null,"trial_type":"html-keyboard-response","trial_index":15,"time_elapsed":277551,"internal_node_id":"0.0-12.0-1.0","experiment":"calibration","task_version":"1.0","jspsych_version":"6.3.1"},{"puzzle":"../static/img/is3/tf3/tf3_13_M_ss1.jpeg","item_order":[2,3,0,1],"correct":0,"choice":1,"accuracy":0,"rt":25492,"screen_resolution":[768,1366],"minimum_resolution":1,"item_set":3,"item":13,"test_form":3,"distractor":"pd","trial_type":"mars","trial_index":16,"time_elapsed":303046,"internal_node_id":"0.0-12.0-2.0","experiment":"calibration","task_version":"1.0","jspsych_version":"6.3.1","browser_interactions":0},{"rt":null,"stimulus":"<div style=\"font-size:24px;\">Loading puzzle:<br>6 / 16</div>","response":null,"trial_type":"html-keyboard-response","trial_index":17,"time_elapsed":304260,"internal_node_id":"0.0-13.0-1.0","experiment":"calibration","task_version":"1.0","jspsych_version":"6.3.1"},{"puzzle":"../static/img/is3/tf3/tf3_27_M_ss3.jpeg","item_order":[3,0,1,2],"correct":0,"choice":2,"accuracy":0,"rt":28831,"screen_resolution":[768,1366],"minimum_resolution":1,"item_set":3,"item":27,"test_form":3,"distractor":"pd","trial_type":"mars","trial_index":18,"time_elapsed":333095,"internal_node_id":"0.0-13.0-2.0","experiment":"calibration","task_version":"1.0","jspsych_version":"6.3.1","browser_interactions":0},{"rt":null,"stimulus":"<div style=\"font-size:24px;\">Loading puzzle:<br>7 / 16</div>","response":null,"trial_type":"html-keyboard-response","trial_index":19,"time_elapsed":334309,"internal_node_id":"0.0-14.0-1.0","experiment":"calibration","task_version":"1.0","jspsych_version":"6.3.1"},{"puzzle":"../static/img/is3/tf3/tf3_62_M_ss2.jpeg","item_order":[0,1,2,3],"correct":0,"choice":0,"accuracy":1,"rt":12820,"screen_resolution":[768,1366],"minimum_resolution":1,"item_set":3,"item":62,"test_form":3,"distractor":"pd","trial_type":"mars","trial_index":20,"time_elapsed":347135,"internal_node_id":"0.0-14.0-2.0","experiment":"calibration","task_version":"1.0","jspsych_version":"6.3.1","browser_interactions":0},{"rt":null,"stimulus":"<div style=\"font-size:24px;\">Loading puzzle:<br>8 / 16</div>","response":null,"trial_type":"html-keyboard-response","trial_index":21,"time_elapsed":348350,"internal_node_id":"0.0-15.0-1.0","experiment":"calibration","task_version":"1.0","jspsych_version":"6.3.1"},{"puzzle":"../static/img/is3/tf3/tf3_16_M_ss1.jpeg","item_order":[2,1,3,0],"correct":0,"choice":0,"accuracy":1,"rt":6268,"screen_resolution":[768,1366],"minimum_resolution":1,"item_set":3,"item":16,"test_form":3,"distractor":"pd","trial_type":"mars","trial_index":22,"time_elapsed":354622,"internal_node_id":"0.0-15.0-2.0","experiment":"calibration","task_version":"1.0","jspsych_version":"6.3.1","browser_interactions":0},{"rt":null,"stimulus":"<div style=\"font-size:24px;\">Loading puzzle:<br>9 / 16</div>","response":null,"trial_type":"html-keyboard-response","trial_index":23,"time_elapsed":355840,"internal_node_id":"0.0-16.0-1.0","experiment":"calibration","task_version":"1.0","jspsych_version":"6.3.1"},{"puzzle":"../static/img/is3/tf3/tf3_72_M_ss3.jpeg","item_order":[1,2,0,3],"correct":0,"choice":0,"accuracy":1,"rt":15914,"screen_resolution":[768,1366],"minimum_resolution":1,"item_set":3,"item":72,"test_form":3,"distractor":"pd","trial_type":"mars","trial_index":24,"time_elapsed":371758,"internal_node_id":"0.0-16.0-2.0","experiment":"calibration","task_version":"1.0","jspsych_version":"6.3.1","browser_interactions":0},{"rt":null,"stimulus":"<div style=\"font-size:24px;\">Loading puzzle:<br>10 / 16</div>","response":null,"trial_type":"html-keyboard-response","trial_index":25,"time_elapsed":372969,"internal_node_id":"0.0-17.0-1.0","experiment":"calibration","task_version":"1.0","jspsych_version":"6.3.1"},{"puzzle":"../static/img/is3/tf3/tf3_53_M_ss2.jpeg","item_order":[3,0,1,2],"correct":0,"choice":0,"accuracy":1,"rt":16850,"screen_resolution":[768,1366],"minimum_resolution":1,"item_set":3,"item":53,"test_form":3,"distractor":"pd","trial_type":"mars","trial_index":26,"time_elapsed":389822,"internal_node_id":"0.0-17.0-2.0","experiment":"calibration","task_version":"1.0","jspsych_version":"6.3.1","browser_interactions":0},{"rt":null,"stimulus":"<div style=\"font-size:24px;\">Loading puzzle:<br>11 / 16</div>","response":null,"trial_type":"html-keyboard-response","trial_index":27,"time_elapsed":391030,"internal_node_id":"0.0-18.0-1.0","experiment":"calibration","task_version":"1.0","jspsych_version":"6.3.1"},{"puzzle":"../static/img/is3/tf3/tf3_63_M_ss3.jpeg","item_order":[3,2,0,1],"correct":0,"choice":3,"accuracy":0,"rt":27965,"screen_resolution":[768,1366],"minimum_resolution":1,"item_set":3,"item":63,"test_form":3,"distractor":"pd","trial_type":"mars","trial_index":28,"time_elapsed":418998,"internal_node_id":"0.0-18.0-2.0","experiment":"calibration","task_version":"1.0","jspsych_version":"6.3.1","browser_interactions":0},{"rt":null,"stimulus":"<div style=\"font-size:24px;\">Loading puzzle:<br>12 / 16</div>","response":null,"trial_type":"html-keyboard-response","trial_index":29,"time_elapsed":420211,"internal_node_id":"0.0-19.0-1.0","experiment":"calibration","task_version":"1.0","jspsych_version":"6.3.1"},{"puzzle":"../static/img/is3/tf3/tf3_80_M_ss2.jpeg","item_order":[0,1,3,2],"correct":0,"choice":0,"accuracy":1,"rt":22440,"screen_resolution":[768,1366],"minimum_resolution":1,"item_set":3,"item":80,"test_form":3,"distractor":"md","trial_type":"mars","trial_index":30,"time_elapsed":442654,"internal_node_id":"0.0-19.0-2.0","experiment":"calibration","task_version":"1.0","jspsych_version":"6.3.1","browser_interactions":0},{"rt":null,"stimulus":"<div style=\"font-size:24px;\">Loading puzzle:<br>13 / 16</div>","response":null,"trial_type":"html-keyboard-response","trial_index":31,"time_elapsed":443869,"internal_node_id":"0.0-20.0-1.0","experiment":"calibration","task_version":"1.0","jspsych_version":"6.3.1"},{"puzzle":"../static/img/is3/tf3/tf3_54_M_ss3.jpeg","item_order":[3,2,0,1],"correct":0,"choice":2,"accuracy":0,"rt":29229,"screen_resolution":[768,1366],"minimum_resolution":1,"item_set":3,"item":54,"test_form":3,"distractor":"pd","trial_type":"mars","trial_index":32,"time_elapsed":473103,"internal_node_id":"0.0-20.0-2.0","experiment":"calibration","task_version":"1.0","jspsych_version":"6.3.1","browser_interactions":0},{"rt":null,"stimulus":"<div style=\"font-size:24px;\">Loading puzzle:<br>14 / 16</div>","response":null,"trial_type":"html-keyboard-response","trial_index":33,"time_elapsed":474320,"internal_node_id":"0.0-21.0-1.0","experiment":"calibration","task_version":"1.0","jspsych_version":"6.3.1"},{"puzzle":"../static/img/is3/tf3/tf3_36_M_ss3.jpeg","item_order":[1,3,2,0],"correct":0,"choice":1,"accuracy":0,"rt":25730,"screen_resolution":[768,1366],"minimum_resolution":1,"item_set":3,"item":36,"test_form":3,"distractor":"pd","trial_type":"mars","trial_index":34,"time_elapsed":500054,"internal_node_id":"0.0-21.0-2.0","experiment":"calibration","task_version":"1.0","jspsych_version":"6.3.1","browser_interactions":0},{"rt":null,"stimulus":"<div style=\"font-size:24px;\">Loading puzzle:<br>15 / 16</div>","response":null,"trial_type":"html-keyboard-response","trial_index":35,"time_elapsed":501270,"internal_node_id":"0.0-22.0-1.0","experiment":"calibration","task_version":"1.0","jspsych_version":"6.3.1"},{"puzzle":"../static/img/is3/tf3/tf3_24_M_ss3.jpeg","item_order":[1,3,0,2],"correct":0,"choice":3,"accuracy":0,"rt":28365,"screen_resolution":[768,1366],"minimum_resolution":1,"item_set":3,"item":24,"test_form":3,"distractor":"md","trial_type":"mars","trial_index":36,"time_elapsed":529638,"internal_node_id":"0.0-22.0-2.0","experiment":"calibration","task_version":"1.0","jspsych_version":"6.3.1","browser_interactions":0},{"rt":null,"stimulus":"<div style=\"font-size:24px;\">Loading puzzle:<br>16 / 16</div>","response":null,"trial_type":"html-keyboard-response","trial_index":37,"time_elapsed":530840,"internal_node_id":"0.0-23.0-1.0","experiment":"calibration","task_version":"1.0","jspsych_version":"6.3.1"},{"puzzle":"../static/img/is3/tf3/tf3_35_M_ss2.jpeg","item_order":[1,0,2,3],"correct":0,"choice":2,"accuracy":0,"rt":29379,"screen_resolution":[768,1366],"minimum_resolution":1,"item_set":3,"item":35,"test_form":3,"distractor":"md","trial_type":"mars","trial_index":38,"time_elapsed":560222,"internal_node_id":"0.0-23.0-2.0","experiment":"calibration","task_version":"1.0","jspsych_version":"6.3.1","browser_interactions":0},{"value":[0,0,0],"trial_type":"call-function","trial_index":39,"time_elapsed":560224,"internal_node_id":"0.0-24.0","experiment":"calibration","task_version":"1.0","jspsych_version":"6.3.1"},{"view_history":[{"page_index":0,"viewing_time":8052}],"rt":8052,"trial_type":"instructions","trial_index":40,"time_elapsed":568277,"internal_node_id":"0.0-25.0","experiment":"calibration","task_version":"1.0","jspsych_version":"6.3.1"},{"rt":61241,"responses":{"age":"35","gender-categorical":"Male","gender-free-response":"","ethnicity":"Not Hispanic or Latino","race":["White"],"education":"Master degree or higher","free-response":"I am very much enjoying this survey."},"trial_type":"survey-demo","trial_index":41,"time_elapsed":629570,"internal_node_id":"0.0-26.0","experiment":"calibration","task_version":"1.0","jspsych_version":"6.3.1","interactions":"[{\"event\":\"focus\",\"trial\":0,\"time\":1},{\"event\":\"fullscreenenter\",\"trial\":1,\"time\":11820}]"}]