[{"success":true,"timeout":false,"failed_images":[],"failed_audio":[],"failed_video":[],"trial_type":"preload","trial_index":0,"time_elapsed":3661,"internal_node_id":"0.0-0.0","experiment":"calibration","task_version":"1.0","jspsych_version":"6.3.1"},{"success":true,"trial_type":"fullscreen","trial_index":1,"time_elapsed":7170,"internal_node_id":"0.0-1.0","experiment":"calibration","task_version":"1.0","jspsych_version":"6.3.1"},{"view_history":[{"page_index":0,"viewing_time":10619},{"page_index":1,"viewing_time":5233},{"page_index":2,"viewing_time":1933}],"rt":17786,"trial_type":"instructions","trial_index":2,"time_elapsed":24970,"internal_node_id":"0.0-2.0","experiment":"calibration","task_version":"1.0","jspsych_version":"6.3.1"},{"puzzle":"../static/img/practice/pt1_M1.png","item_order":[3,2,0,1],"correct":0,"choice":0,"accuracy":1,"rt":4984,"screen_resolution":[820,1180],"minimum_resolution":1,"item_set":"practice","trial_type":"mars","trial_index":3,"time_elapsed":31959,"internal_node_id":"0.0-3.0-0.0","experiment":"calibration","task_version":"1.0","jspsych_version":"6.3.1"},{"puzzle":"../static/img/practice/pt2_M1.png","item_order":[3,2,1,0],"correct":0,"choice":0,"accuracy":1,"rt":2855,"screen_resolution":[820,1180],"minimum_resolution":1,"item_set":"practice","trial_type":"mars","trial_index":4,"time_elapsed":36823,"internal_node_id":"0.0-4.0-0.0","experiment":"calibration","task_version":"1.0","jspsych_version":"6.3.1"},{"puzzle":"../static/img/practice/pt3_M1.png","item_order":[2,0,1,3],"correct":0,"choice":0,"accuracy":1,"rt":2815,"screen_resolution":[820,1180],"minimum_resolution":1,"item_set":"practice","trial_type":"mars","trial_index":5,"time_elapsed":41647,"internal_node_id":"0.0-5.0-0.0","experiment":"calibration","task_version":"1.0","jspsych_version":"6.3.1"},{"view_history":[{"page_index":0,"viewing_time":1472},{"page_index":1,"viewing_time":6983.000000000007}],"rt":8455.000000000007,"trial_type":"instructions","trial_index":6,"time_elapsed":50106,"internal_node_id":"0.0-6.0","experiment":"calibration","task_version":"1.0","jspsych_version":"6.3.1"},{"rt":null,"stimulus":"<div style=\"font-size:24px;\">Loading puzzle:<br>1 / 16</div>","response":null,"trial_type":"html-keyboard-response","trial_index":7,"time_elapsed":51313,"internal_node_id":"0.0-7.0-0.0","experiment":"calibration","task_version":"1.0","jspsych_version":"6.3.1"},{"puzzle":"../static/img/is3/tf1/tf1_22_M_ss3.jpeg","item_order":[0,1,2,3],"correct":0,"choice":2,"accuracy":0,"rt":5963,"screen_resolution":[820,1180],"minimum_resolution":1,"item_set":3,"item":22,"test_form":1,"distractor":"md","trial_type":"mars","trial_index":8,"time_elapsed":57280,"internal_node_id":"0.0-7.0-1.0","experiment":"calibration","task_version":"1.0","jspsych_version":"6.3.1","browser_interactions":0},{"rt":null,"stimulus":"<div style=\"font-size:24px;\">Loading puzzle:<br>2 / 16</div>","response":null,"trial_type":"html-keyboard-response","trial_index":9,"time_elapsed":58485,"internal_node_id":"0.0-8.0-0.0","experiment":"calibration","task_version":"1.0","jspsych_version":"6.3.1"},{"puzzle":"../static/img/is3/tf2/tf2_39_M_ss1.jpeg","item_order":[2,0,3,1],"correct":0,"choice":0,"accuracy":1,"rt":10662,"screen_resolution":[820,1180],"minimum_resolution":1,"item_set":3,"item":39,"test_form":2,"distractor":"md","trial_type":"mars","trial_index":10,"time_elapsed":69152,"internal_node_id":"0.0-8.0-1.0","experiment":"calibration","task_version":"1.0","jspsych_version":"6.3.1","browser_interactions":0},{"rt":null,"stimulus":"<div style=\"font-size:24px;\">Loading puzzle:<br>3 / 16</div>","response":null,"trial_type":"html-keyboard-response","trial_index":11,"time_elapsed":70356,"internal_node_id":"0.0-9.0-0.0","experiment":"calibration","task_version":"1.0","jspsych_version":"6.3.1"},{"puzzle":"../static/img/is3/tf1/tf1_61_M_ss3.jpeg","item_order":[3,1,2,0],"correct":0,"choice":2,"accuracy":0,"rt":9207,"screen_resolution":[820,1180],"minimum_resolution":1,"item_set":3,"item":61,"test_form":1,"distractor":"md","trial_type":"mars","trial_index":12,"time_elapsed":79568,"internal_node_id":"0.0-9.0-1.0","experiment":"calibration","task_version":"1.0","jspsych_version":"6.3.1","browser_interactions":0},{"rt":null,"stimulus":"<div style=\"font-size:24px;\">Loading puzzle:<br>4 / 16</div>","response":null,"trial_type":"html-keyboard-response","trial_index":13,"time_elapsed":80772,"internal_node_id":"0.0-10.0-0.0","experiment":"calibration","task_version":"1.0","jspsych_version":"6.3.1"},{"puzzle":"../static/img/is3/tf2/tf2_71_M_ss3.jpeg","item_order":[1,3,0,2],"correct":0,"choice":2,"accuracy":0,"rt":14794,"screen_resolution":[820,1180],"minimum_resolution":1,"item_set":3,"item":71,"test_form":2,"distractor":"pd","trial_type":"mars","trial_index":14,"time_elapsed":95571,"internal_node_id":"0.0-10.0-1.0","experiment":"calibration","task_version":"1.0","jspsych_version":"6.3.1","browser_interactions":0},{"rt":null,"stimulus":"<div style=\"font-size:24px;\">Loading puzzle:<br>5 / 16</div>","response":null,"trial_type":"html-keyboard-response","trial_index":15,"time_elapsed":96776,"internal_node_id":"0.0-11.0-0.0","experiment":"calibration","task_version":"1.0","jspsych_version":"6.3.1"},{"puzzle":"../static/img/is3/tf1/tf1_11_M_ss1.jpeg","item_order":[3,1,0,2],"correct":0,"choice":0,"accuracy":1,"rt":15867,"screen_resolution":[820,1180],"minimum_resolution":1,"item_set":3,"item":11,"test_form":1,"distractor":"pd","trial_type":"mars","trial_index":16,"time_elapsed":112648,"internal_node_id":"0.0-11.0-1.0","experiment":"calibration","task_version":"1.0","jspsych_version":"6.3.1","browser_interactions":0},{"rt":null,"stimulus":"<div style=\"font-size:24px;\">Loading puzzle:<br>6 / 16</div>","response":null,"trial_type":"html-keyboard-response","trial_index":17,"time_elapsed":113853,"internal_node_id":"0.0-12.0-0.0","experiment":"calibration","task_version":"1.0","jspsych_version":"6.3.1"},{"puzzle":"../static/img/is3/tf2/tf2_34_M_ss2.jpeg","item_order":[0,3,1,2],"correct":0,"choice":1,"accuracy":0,"rt":19051.00000000003,"screen_resolution":[820,1180],"minimum_resolution":1,"item_set":3,"item":34,"test_form":2,"distractor":"pd","trial_type":"mars","trial_index":18,"time_elapsed":132909,"internal_node_id":"0.0-12.0-1.0","experiment":"calibration","task_version":"1.0","jspsych_version":"6.3.1","browser_interactions":0},{"rt":null,"stimulus":"<div style=\"font-size:24px;\">Loading puzzle:<br>7 / 16</div>","response":null,"trial_type":"html-keyboard-response","trial_index":19,"time_elapsed":134114,"internal_node_id":"0.0-13.0-0.0","experiment":"calibration","task_version":"1.0","jspsych_version":"6.3.1"},{"puzzle":"../static/img/is3/tf2/tf2_12_M_ss1.jpeg","item_order":[0,3,2,1],"correct":0,"choice":1,"accuracy":0,"rt":19714.00000000003,"screen_resolution":[820,1180],"minimum_resolution":1,"item_set":3,"item":12,"test_form":2,"distractor":"pd","trial_type":"mars","trial_index":20,"time_elapsed":153832,"internal_node_id":"0.0-13.0-1.0","experiment":"calibration","task_version":"1.0","jspsych_version":"6.3.1","browser_interactions":0},{"rt":null,"stimulus":"<div style=\"font-size:24px;\">Loading puzzle:<br>8 / 16</div>","response":null,"trial_type":"html-keyboard-response","trial_index":21,"time_elapsed":155037,"internal_node_id":"0.0-14.0-0.0","experiment":"calibration","task_version":"1.0","jspsych_version":"6.3.1"},{"puzzle":"../static/img/is3/tf1/tf1_69_M_ss2.jpeg","item_order":[1,2,0,3],"correct":0,"choice":0,"accuracy":1,"rt":17839,"screen_resolution":[820,1180],"minimum_resolution":1,"item_set":3,"item":69,"test_form":1,"distractor":"md","trial_type":"mars","trial_index":22,"time_elapsed":172882,"internal_node_id":"0.0-14.0-1.0","experiment":"calibration","task_version":"1.0","jspsych_version":"6.3.1","browser_interactions":0},{"rt":null,"stimulus":"<div style=\"font-size:24px;\">Loading puzzle:<br>9 / 16</div>","response":null,"trial_type":"html-keyboard-response","trial_index":23,"time_elapsed":174086,"internal_node_id":"0.0-15.0-0.0","experiment":"calibration","task_version":"1.0","jspsych_version":"6.3.1"},{"puzzle":"../static/img/is3/tf2/tf2_60_M_ss1.jpeg","item_order":[0,2,1,3],"correct":0,"choice":3,"accuracy":0,"rt":26321,"screen_resolution":[820,1180],"minimum_resolution":1,"item_set":3,"item":60,"test_form":2,"distractor":"md","trial_type":"mars","trial_index":24,"time_elapsed":200411,"internal_node_id":"0.0-15.0-1.0","experiment":"calibration","task_version":"1.0","jspsych_version":"6.3.1","browser_interactions":0},{"rt":null,"stimulus":"<div style=\"font-size:24px;\">Loading puzzle:<br>10 / 16</div>","response":null,"trial_type":"html-keyboard-response","trial_index":25,"time_elapsed":201616,"internal_node_id":"0.0-16.0-0.0","experiment":"calibration","task_version":"1.0","jspsych_version":"6.3.1"},{"puzzle":"../static/img/is3/tf1/tf1_53_M_ss1.jpeg","item_order":[1,2,3,0],"correct":0,"choice":2,"accuracy":0,"rt":19386,"screen_resolution":[820,1180],"minimum_resolution":1,"item_set":3,"item":53,"test_form":1,"distractor":"pd","trial_type":"mars","trial_index":26,"time_elapsed":221007,"internal_node_id":"0.0-16.0-1.0","experiment":"calibration","task_version":"1.0","jspsych_version":"6.3.1","browser_interactions":0},{"rt":null,"stimulus":"<div style=\"font-size:24px;\">Loading puzzle:<br>11 / 16</div>","response":null,"trial_type":"html-keyboard-response","trial_index":27,"time_elapsed":222212,"internal_node_id":"0.0-17.0-0.0","experiment":"calibration","task_version":"1.0","jspsych_version":"6.3.1"},{"puzzle":"../static/img/is3/tf1/tf1_26_M_ss1.jpeg","item_order":[1,2,0,3],"correct":0,"choice":0,"accuracy":1,"rt":26102,"screen_resolution":[820,1180],"minimum_resolution":1,"item_set":3,"item":26,"test_form":1,"distractor":"pd","trial_type":"mars","trial_index":28,"time_elapsed":248319,"internal_node_id":"0.0-17.0-1.0","experiment":"calibration","task_version":"1.0","jspsych_version":"6.3.1","browser_interactions":0},{"rt":null,"stimulus":"<div style=\"font-size:24px;\">Loading puzzle:<br>12 / 16</div>","response":null,"trial_type":"html-keyboard-response","trial_index":29,"time_elapsed":249524,"internal_node_id":"0.0-18.0-0.0","experiment":"calibration","task_version":"1.0","jspsych_version":"6.3.1"},{"puzzle":"../static/img/is3/tf2/tf2_74_M_ss3.jpeg","item_order":[1,0,3,2],"correct":0,"choice":0,"accuracy":1,"rt":20148,"screen_resolution":[820,1180],"minimum_resolution":1,"item_set":3,"item":74,"test_form":2,"distractor":"pd","trial_type":"mars","trial_index":30,"time_elapsed":269677,"internal_node_id":"0.0-18.0-1.0","experiment":"calibration","task_version":"1.0","jspsych_version":"6.3.1","browser_interactions":0},{"rt":null,"stimulus":"<div style=\"font-size:24px;\">Loading puzzle:<br>13 / 16</div>","response":null,"trial_type":"html-keyboard-response","trial_index":31,"time_elapsed":270882,"internal_node_id":"0.0-19.0-0.0","experiment":"calibration","task_version":"1.0","jspsych_version":"6.3.1"},{"puzzle":"../static/img/is3/tf2/tf2_75_M_ss1.jpeg","item_order":[1,2,0,3],"correct":0,"choice":3,"accuracy":0,"rt":16861,"screen_resolution":[820,1180],"minimum_resolution":1,"item_set":3,"item":75,"test_form":2,"distractor":"md","trial_type":"mars","trial_index":32,"time_elapsed":287747,"internal_node_id":"0.0-19.0-1.0","experiment":"calibration","task_version":"1.0","jspsych_version":"6.3.1","browser_interactions":0},{"rt":null,"stimulus":"<div style=\"font-size:24px;\">Loading puzzle:<br>14 / 16</div>","response":null,"trial_type":"html-keyboard-response","trial_index":33,"time_elapsed":288951,"internal_node_id":"0.0-20.0-0.0","experiment":"calibration","task_version":"1.0","jspsych_version":"6.3.1"},{"puzzle":"../static/img/is3/tf1/tf1_46_M_ss3.jpeg","item_order":[0,2,1,3],"correct":0,"choice":0,"accuracy":1,"rt":19381.99999999994,"screen_resolution":[820,1180],"minimum_resolution":1,"item_set":3,"item":46,"test_form":1,"distractor":"md","trial_type":"mars","trial_index":34,"time_elapsed":308338,"internal_node_id":"0.0-20.0-1.0","experiment":"calibration","task_version":"1.0","jspsych_version":"6.3.1","browser_interactions":0},{"rt":null,"stimulus":"<div style=\"font-size:24px;\">Loading puzzle:<br>15 / 16</div>","response":null,"trial_type":"html-keyboard-response","trial_index":35,"time_elapsed":309543,"internal_node_id":"0.0-21.0-0.0","experiment":"calibration","task_version":"1.0","jspsych_version":"6.3.1"},{"puzzle":"../static/img/is3/tf2/tf2_45_M_ss1.jpeg","item_order":[3,1,2,0],"correct":0,"choice":0,"accuracy":1,"rt":13109,"screen_resolution":[820,1180],"minimum_resolution":1,"item_set":3,"item":45,"test_form":2,"distractor":"pd","trial_type":"mars","trial_index":36,"time_elapsed":322657,"internal_node_id":"0.0-21.0-1.0","experiment":"calibration","task_version":"1.0","jspsych_version":"6.3.1","browser_interactions":0},{"rt":null,"stimulus":"<div style=\"font-size:24px;\">Loading puzzle:<br>16 / 16</div>","response":null,"trial_type":"html-keyboard-response","trial_index":37,"time_elapsed":323861,"internal_node_id":"0.0-22.0-0.0","experiment":"calibration","task_version":"1.0","jspsych_version":"6.3.1"},{"puzzle":"../static/img/is3/tf1/tf1_21_M_ss2.jpeg","item_order":[1,0,2,3],"correct":0,"choice":1,"accuracy":0,"rt":19129,"screen_resolution":[820,1180],"minimum_resolution":1,"item_set":3,"item":21,"test_form":1,"distractor":"md","trial_type":"mars","trial_index":38,"time_elapsed":342995,"internal_node_id":"0.0-22.0-1.0","experiment":"calibration","task_version":"1.0","jspsych_version":"6.3.1","browser_interactions":0},{"value":[0,0,0],"trial_type":"call-function","trial_index":39,"time_elapsed":342998,"internal_node_id":"0.0-23.0","experiment":"calibration","task_version":"1.0","jspsych_version":"6.3.1"},{"view_history":[{"page_index":0,"viewing_time":11564.000000000058}],"rt":11564.000000000058,"trial_type":"instructions","trial_index":40,"time_elapsed":354564,"internal_node_id":"0.0-24.0","experiment":"calibration","task_version":"1.0","jspsych_version":"6.3.1"},{"rt":18688,"responses":{"age":"18","gender-categorical":"Female","gender-free-response":"","ethnicity":"Not Hispanic or Latino","race":["Asian"],"education":"High school","free-response":"This was hard. "},"trial_type":"survey-demo","trial_index":41,"time_elapsed":373256,"internal_node_id":"0.0-25.0","experiment":"calibration","task_version":"1.0","jspsych_version":"6.3.1","interactions":"[{\"event\":\"blur\",\"trial\":1,\"time\":6192},{\"event\":\"focus\",\"trial\":1,\"time\":6196},{\"event\":\"blur\",\"trial\":1,\"time\":6203},{\"event\":\"fullscreenenter\",\"trial\":1,\"time\":6233},{\"event\":\"focus\",\"trial\":1,\"time\":6453},{\"event\":\"fullscreenexit\",\"trial\":41,\"time\":356281}]"}]