[{"success":true,"timeout":false,"failed_images":[],"failed_audio":[],"failed_video":[],"trial_type":"preload","trial_index":0,"time_elapsed":2914,"internal_node_id":"0.0-0.0","experiment":"calibration","task_version":"1.0","jspsych_version":"6.3.1"},{"success":true,"trial_type":"fullscreen","trial_index":1,"time_elapsed":6627,"internal_node_id":"0.0-1.0","experiment":"calibration","task_version":"1.0","jspsych_version":"6.3.1"},{"view_history":[{"page_index":0,"viewing_time":33201},{"page_index":1,"viewing_time":3615},{"page_index":2,"viewing_time":1289}],"rt":38105,"trial_type":"instructions","trial_index":2,"time_elapsed":44739,"internal_node_id":"0.0-2.0","experiment":"calibration","task_version":"1.0","jspsych_version":"6.3.1"},{"puzzle":"../static/img/practice/pt1_M1.png","item_order":[1,3,0,2],"correct":0,"choice":1,"accuracy":0,"rt":6311,"screen_resolution":[1440,2560],"minimum_resolution":1,"item_set":"practice","trial_type":"mars","trial_index":3,"time_elapsed":53067,"internal_node_id":"0.0-3.0-0.0","experiment":"calibration","task_version":"1.0","jspsych_version":"6.3.1"},{"puzzle":"../static/img/practice/pt1_M1.png","item_order":[0,2,1,3],"correct":0,"choice":0,"accuracy":1,"rt":4114,"screen_resolution":[1440,2560],"minimum_resolution":1,"item_set":"practice","trial_type":"mars","trial_index":4,"time_elapsed":59199,"internal_node_id":"0.0-3.1-0.1","experiment":"calibration","task_version":"1.0","jspsych_version":"6.3.1"},{"puzzle":"../static/img/practice/pt2_M1.png","item_order":[0,3,1,2],"correct":0,"choice":0,"accuracy":1,"rt":2101,"screen_resolution":[1440,2560],"minimum_resolution":1,"item_set":"practice","trial_type":"mars","trial_index":5,"time_elapsed":63320,"internal_node_id":"0.0-4.0-0.0","experiment":"calibration","task_version":"1.0","jspsych_version":"6.3.1"},{"puzzle":"../static/img/practice/pt3_M1.png","item_order":[2,3,0,1],"correct":0,"choice":0,"accuracy":1,"rt":1209,"screen_resolution":[1440,2560],"minimum_resolution":1,"item_set":"practice","trial_type":"mars","trial_index":6,"time_elapsed":66546,"internal_node_id":"0.0-5.0-0.0","experiment":"calibration","task_version":"1.0","jspsych_version":"6.3.1"},{"view_history":[{"page_index":0,"viewing_time":1261},{"page_index":1,"viewing_time":4528}],"rt":5789,"trial_type":"instructions","trial_index":7,"time_elapsed":72340,"internal_node_id":"0.0-6.0","experiment":"calibration","task_version":"1.0","jspsych_version":"6.3.1"},{"rt":null,"stimulus":"<div style=\"font-size:24px;\">Loading puzzle:<br>1 / 16</div>","response":null,"trial_type":"html-keyboard-response","trial_index":8,"time_elapsed":73550,"internal_node_id":"0.0-7.0-0.0","experiment":"calibration","task_version":"1.0","jspsych_version":"6.3.1"},{"puzzle":"../static/img/is3/tf2/tf2_28_M_ss2.jpeg","item_order":[3,0,1,2],"correct":0,"choice":3,"accuracy":0,"rt":5921,"screen_resolution":[1440,2560],"minimum_resolution":1,"item_set":3,"item":28,"test_form":2,"distractor":"md","trial_type":"mars","trial_index":9,"time_elapsed":79476,"internal_node_id":"0.0-7.0-1.0","experiment":"calibration","task_version":"1.0","jspsych_version":"6.3.1","browser_interactions":0},{"rt":null,"stimulus":"<div style=\"font-size:24px;\">Loading puzzle:<br>2 / 16</div>","response":null,"trial_type":"html-keyboard-response","trial_index":10,"time_elapsed":80682,"internal_node_id":"0.0-8.0-0.0","experiment":"calibration","task_version":"1.0","jspsych_version":"6.3.1"},{"puzzle":"../static/img/is3/tf1/tf1_22_M_ss3.jpeg","item_order":[2,1,0,3],"correct":0,"choice":0,"accuracy":1,"rt":5482,"screen_resolution":[1440,2560],"minimum_resolution":1,"item_set":3,"item":22,"test_form":1,"distractor":"pd","trial_type":"mars","trial_index":11,"time_elapsed":86166,"internal_node_id":"0.0-8.0-1.0","experiment":"calibration","task_version":"1.0","jspsych_version":"6.3.1","browser_interactions":0},{"rt":null,"stimulus":"<div style=\"font-size:24px;\">Loading puzzle:<br>3 / 16</div>","response":null,"trial_type":"html-keyboard-response","trial_index":12,"time_elapsed":87369,"internal_node_id":"0.0-9.0-0.0","experiment":"calibration","task_version":"1.0","jspsych_version":"6.3.1"},{"puzzle":"../static/img/is3/tf2/tf2_70_M_ss2.jpeg","item_order":[3,0,2,1],"correct":0,"choice":0,"accuracy":1,"rt":5419,"screen_resolution":[1440,2560],"minimum_resolution":1,"item_set":3,"item":70,"test_form":2,"distractor":"md","trial_type":"mars","trial_index":13,"time_elapsed":92789,"internal_node_id":"0.0-9.0-1.0","experiment":"calibration","task_version":"1.0","jspsych_version":"6.3.1","browser_interactions":0},{"rt":null,"stimulus":"<div style=\"font-size:24px;\">Loading puzzle:<br>4 / 16</div>","response":null,"trial_type":"html-keyboard-response","trial_index":14,"time_elapsed":93995,"internal_node_id":"0.0-10.0-0.0","experiment":"calibration","task_version":"1.0","jspsych_version":"6.3.1"},{"puzzle":"../static/img/is3/tf1/tf1_51_M_ss2.jpeg","item_order":[0,3,1,2],"correct":0,"choice":2,"accuracy":0,"rt":5947,"screen_resolution":[1440,2560],"minimum_resolution":1,"item_set":3,"item":51,"test_form":1,"distractor":"pd","trial_type":"mars","trial_index":15,"time_elapsed":99946,"internal_node_id":"0.0-10.0-1.0","experiment":"calibration","task_version":"1.0","jspsych_version":"6.3.1","browser_interactions":0},{"rt":null,"stimulus":"<div style=\"font-size:24px;\">Loading puzzle:<br>5 / 16</div>","response":null,"trial_type":"html-keyboard-response","trial_index":16,"time_elapsed":101162,"internal_node_id":"0.0-11.0-0.0","experiment":"calibration","task_version":"1.0","jspsych_version":"6.3.1"},{"puzzle":"../static/img/is3/tf2/tf2_31_M_ss2.jpeg","item_order":[1,0,3,2],"correct":0,"choice":0,"accuracy":1,"rt":12373,"screen_resolution":[1440,2560],"minimum_resolution":1,"item_set":3,"item":31,"test_form":2,"distractor":"md","trial_type":"mars","trial_index":17,"time_elapsed":113538,"internal_node_id":"0.0-11.0-1.0","experiment":"calibration","task_version":"1.0","jspsych_version":"6.3.1","browser_interactions":0},{"rt":null,"stimulus":"<div style=\"font-size:24px;\">Loading puzzle:<br>6 / 16</div>","response":null,"trial_type":"html-keyboard-response","trial_index":18,"time_elapsed":114752,"internal_node_id":"0.0-12.0-0.0","experiment":"calibration","task_version":"1.0","jspsych_version":"6.3.1"},{"puzzle":"../static/img/is3/tf1/tf1_15_M_ss2.jpeg","item_order":[0,2,1,3],"correct":0,"choice":2,"accuracy":0,"rt":5966,"screen_resolution":[1440,2560],"minimum_resolution":1,"item_set":3,"item":15,"test_form":1,"distractor":"md","trial_type":"mars","trial_index":19,"time_elapsed":120721,"internal_node_id":"0.0-12.0-1.0","experiment":"calibration","task_version":"1.0","jspsych_version":"6.3.1","browser_interactions":0},{"rt":null,"stimulus":"<div style=\"font-size:24px;\">Loading puzzle:<br>7 / 16</div>","response":null,"trial_type":"html-keyboard-response","trial_index":20,"time_elapsed":121930,"internal_node_id":"0.0-13.0-0.0","experiment":"calibration","task_version":"1.0","jspsych_version":"6.3.1"},{"puzzle":"../static/img/is3/tf1/tf1_62_M_ss1.jpeg","item_order":[3,0,1,2],"correct":0,"choice":0,"accuracy":1,"rt":5278,"screen_resolution":[1440,2560],"minimum_resolution":1,"item_set":3,"item":62,"test_form":1,"distractor":"md","trial_type":"mars","trial_index":21,"time_elapsed":127211,"internal_node_id":"0.0-13.0-1.0","experiment":"calibration","task_version":"1.0","jspsych_version":"6.3.1","browser_interactions":0},{"rt":null,"stimulus":"<div style=\"font-size:24px;\">Loading puzzle:<br>8 / 16</div>","response":null,"trial_type":"html-keyboard-response","trial_index":22,"time_elapsed":128417,"internal_node_id":"0.0-14.0-0.0","experiment":"calibration","task_version":"1.0","jspsych_version":"6.3.1"},{"puzzle":"../static/img/is3/tf2/tf2_16_M_ss2.jpeg","item_order":[1,0,2,3],"correct":0,"choice":0,"accuracy":1,"rt":11540,"screen_resolution":[1440,2560],"minimum_resolution":1,"item_set":3,"item":16,"test_form":2,"distractor":"md","trial_type":"mars","trial_index":23,"time_elapsed":139959,"internal_node_id":"0.0-14.0-1.0","experiment":"calibration","task_version":"1.0","jspsych_version":"6.3.1","browser_interactions":0},{"rt":null,"stimulus":"<div style=\"font-size:24px;\">Loading puzzle:<br>9 / 16</div>","response":null,"trial_type":"html-keyboard-response","trial_index":24,"time_elapsed":141171,"internal_node_id":"0.0-15.0-0.0","experiment":"calibration","task_version":"1.0","jspsych_version":"6.3.1"},{"puzzle":"../static/img/is3/tf1/tf1_23_M_ss1.jpeg","item_order":[0,1,2,3],"correct":0,"choice":0,"accuracy":1,"rt":10205,"screen_resolution":[1440,2560],"minimum_resolution":1,"item_set":3,"item":23,"test_form":1,"distractor":"md","trial_type":"mars","trial_index":25,"time_elapsed":151379,"internal_node_id":"0.0-15.0-1.0","experiment":"calibration","task_version":"1.0","jspsych_version":"6.3.1","browser_interactions":0},{"rt":null,"stimulus":"<div style=\"font-size:24px;\">Loading puzzle:<br>10 / 16</div>","response":null,"trial_type":"html-keyboard-response","trial_index":26,"time_elapsed":152590,"internal_node_id":"0.0-16.0-0.0","experiment":"calibration","task_version":"1.0","jspsych_version":"6.3.1"},{"puzzle":"../static/img/is3/tf2/tf2_72_M_ss1.jpeg","item_order":[1,3,0,2],"correct":0,"choice":2,"accuracy":0,"rt":10863,"screen_resolution":[1440,2560],"minimum_resolution":1,"item_set":3,"item":72,"test_form":2,"distractor":"pd","trial_type":"mars","trial_index":27,"time_elapsed":163455,"internal_node_id":"0.0-16.0-1.0","experiment":"calibration","task_version":"1.0","jspsych_version":"6.3.1","browser_interactions":0},{"rt":null,"stimulus":"<div style=\"font-size:24px;\">Loading puzzle:<br>11 / 16</div>","response":null,"trial_type":"html-keyboard-response","trial_index":28,"time_elapsed":164665,"internal_node_id":"0.0-17.0-0.0","experiment":"calibration","task_version":"1.0","jspsych_version":"6.3.1"},{"puzzle":"../static/img/is3/tf2/tf2_63_M_ss1.jpeg","item_order":[3,2,0,1],"correct":0,"choice":0,"accuracy":1,"rt":11588,"screen_resolution":[1440,2560],"minimum_resolution":1,"item_set":3,"item":63,"test_form":2,"distractor":"md","trial_type":"mars","trial_index":29,"time_elapsed":176257,"internal_node_id":"0.0-17.0-1.0","experiment":"calibration","task_version":"1.0","jspsych_version":"6.3.1","browser_interactions":0},{"rt":null,"stimulus":"<div style=\"font-size:24px;\">Loading puzzle:<br>12 / 16</div>","response":null,"trial_type":"html-keyboard-response","trial_index":30,"time_elapsed":177463,"internal_node_id":"0.0-18.0-0.0","experiment":"calibration","task_version":"1.0","jspsych_version":"6.3.1"},{"puzzle":"../static/img/is3/tf1/tf1_26_M_ss1.jpeg","item_order":[0,3,2,1],"correct":0,"choice":3,"accuracy":0,"rt":16833,"screen_resolution":[1440,2560],"minimum_resolution":1,"item_set":3,"item":26,"test_form":1,"distractor":"pd","trial_type":"mars","trial_index":31,"time_elapsed":194299,"internal_node_id":"0.0-18.0-1.0","experiment":"calibration","task_version":"1.0","jspsych_version":"6.3.1","browser_interactions":0},{"rt":null,"stimulus":"<div style=\"font-size:24px;\">Loading puzzle:<br>13 / 16</div>","response":null,"trial_type":"html-keyboard-response","trial_index":32,"time_elapsed":195510,"internal_node_id":"0.0-19.0-0.0","experiment":"calibration","task_version":"1.0","jspsych_version":"6.3.1"},{"puzzle":"../static/img/is3/tf2/tf2_55_M_ss2.jpeg","item_order":[1,2,0,3],"correct":0,"choice":0,"accuracy":1,"rt":8218,"screen_resolution":[1440,2560],"minimum_resolution":1,"item_set":3,"item":55,"test_form":2,"distractor":"pd","trial_type":"mars","trial_index":33,"time_elapsed":203729,"internal_node_id":"0.0-19.0-1.0","experiment":"calibration","task_version":"1.0","jspsych_version":"6.3.1","browser_interactions":0},{"rt":null,"stimulus":"<div style=\"font-size:24px;\">Loading puzzle:<br>14 / 16</div>","response":null,"trial_type":"html-keyboard-response","trial_index":34,"time_elapsed":204933,"internal_node_id":"0.0-20.0-0.0","experiment":"calibration","task_version":"1.0","jspsych_version":"6.3.1"},{"puzzle":"../static/img/is3/tf1/tf1_76_M_ss3.jpeg","item_order":[3,2,0,1],"correct":0,"choice":0,"accuracy":1,"rt":12212,"screen_resolution":[1440,2560],"minimum_resolution":1,"item_set":3,"item":76,"test_form":1,"distractor":"md","trial_type":"mars","trial_index":35,"time_elapsed":217146,"internal_node_id":"0.0-20.0-1.0","experiment":"calibration","task_version":"1.0","jspsych_version":"6.3.1","browser_interactions":0},{"rt":null,"stimulus":"<div style=\"font-size:24px;\">Loading puzzle:<br>15 / 16</div>","response":null,"trial_type":"html-keyboard-response","trial_index":36,"time_elapsed":218351,"internal_node_id":"0.0-21.0-0.0","experiment":"calibration","task_version":"1.0","jspsych_version":"6.3.1"},{"puzzle":"../static/img/is3/tf2/tf2_66_M_ss1.jpeg","item_order":[0,3,1,2],"correct":0,"choice":0,"accuracy":1,"rt":10545,"screen_resolution":[1440,2560],"minimum_resolution":1,"item_set":3,"item":66,"test_form":2,"distractor":"pd","trial_type":"mars","trial_index":37,"time_elapsed":228899,"internal_node_id":"0.0-21.0-1.0","experiment":"calibration","task_version":"1.0","jspsych_version":"6.3.1","browser_interactions":0},{"rt":null,"stimulus":"<div style=\"font-size:24px;\">Loading puzzle:<br>16 / 16</div>","response":null,"trial_type":"html-keyboard-response","trial_index":38,"time_elapsed":230111,"internal_node_id":"0.0-22.0-0.0","experiment":"calibration","task_version":"1.0","jspsych_version":"6.3.1"},{"puzzle":"../static/img/is3/tf1/tf1_21_M_ss2.jpeg","item_order":[1,0,2,3],"correct":0,"choice":0,"accuracy":1,"rt":16452,"screen_resolution":[1440,2560],"minimum_resolution":1,"item_set":3,"item":21,"test_form":1,"distractor":"pd","trial_type":"mars","trial_index":39,"time_elapsed":246566,"internal_node_id":"0.0-22.0-1.0","experiment":"calibration","task_version":"1.0","jspsych_version":"6.3.1","browser_interactions":0},{"value":[0,0,0],"trial_type":"call-function","trial_index":40,"time_elapsed":246569,"internal_node_id":"0.0-23.0","experiment":"calibration","task_version":"1.0","jspsych_version":"6.3.1"},{"view_history":[{"page_index":0,"viewing_time":1863}],"rt":1863,"trial_type":"instructions","trial_index":41,"time_elapsed":248433,"internal_node_id":"0.0-24.0","experiment":"calibration","task_version":"1.0","jspsych_version":"6.3.1"},{"rt":12668,"responses":{"age":"25","gender-categorical":"Male","gender-free-response":"","ethnicity":"Not Hispanic or Latino","race":["Asian","White"],"education":"Bachelor degree","free-response":""},"trial_type":"survey-demo","trial_index":42,"time_elapsed":261106,"internal_node_id":"0.0-25.0","experiment":"calibration","task_version":"1.0","jspsych_version":"6.3.1","interactions":"[{\"event\":\"focus\",\"trial\":0,\"time\":5},{\"event\":\"fullscreenenter\",\"trial\":1,\"time\":5855},{\"event\":\"blur\",\"trial\":2,\"time\":12995},{\"event\":\"focus\",\"trial\":2,\"time\":19401},{\"event\":\"blur\",\"trial\":2,\"time\":21465},{\"event\":\"focus\",\"trial\":2,\"time\":30219},{\"event\":\"blur\",\"trial\":2,\"time\":30897},{\"event\":\"focus\",\"trial\":2,\"time\":31629},{\"event\":\"blur\",\"trial\":2,\"time\":32248},{\"event\":\"focus\",\"trial\":2,\"time\":34066}]"}]