[{"success":true,"timeout":false,"failed_images":[],"failed_audio":[],"failed_video":[],"trial_type":"preload","trial_index":0,"time_elapsed":1161,"internal_node_id":"0.0-0.0","experiment":"calibration","task_version":"1.0","jspsych_version":"6.3.1"},{"success":true,"trial_type":"fullscreen","trial_index":1,"time_elapsed":5953,"internal_node_id":"0.0-1.0","experiment":"calibration","task_version":"1.0","jspsych_version":"6.3.1"},{"view_history":[{"page_index":0,"viewing_time":12861},{"page_index":1,"viewing_time":8536},{"page_index":2,"viewing_time":2000}],"rt":23398,"trial_type":"instructions","trial_index":2,"time_elapsed":29351,"internal_node_id":"0.0-3.0","experiment":"calibration","task_version":"1.0","jspsych_version":"6.3.1"},{"puzzle":"../static/img/practice/pt1_M1.png","item_order":[0,1,2,3],"correct":0,"choice":0,"accuracy":1,"rt":13541,"screen_resolution":[1080,1920],"minimum_resolution":1,"item_set":"practice","trial_type":"mars","trial_index":3,"time_elapsed":44901,"internal_node_id":"0.0-4.0-0.0","experiment":"calibration","task_version":"1.0","jspsych_version":"6.3.1"},{"puzzle":"../static/img/practice/pt2_M1.png","item_order":[1,2,0,3],"correct":0,"choice":0,"accuracy":1,"rt":3170,"screen_resolution":[1080,1920],"minimum_resolution":1,"item_set":"practice","trial_type":"mars","trial_index":4,"time_elapsed":50091,"internal_node_id":"0.0-5.0-0.0","experiment":"calibration","task_version":"1.0","jspsych_version":"6.3.1"},{"puzzle":"../static/img/practice/pt3_M1.png","item_order":[3,1,0,2],"correct":0,"choice":0,"accuracy":1,"rt":2143,"screen_resolution":[1080,1920],"minimum_resolution":1,"item_set":"practice","trial_type":"mars","trial_index":5,"time_elapsed":54252,"internal_node_id":"0.0-6.0-0.0","experiment":"calibration","task_version":"1.0","jspsych_version":"6.3.1"},{"view_history":[{"page_index":0,"viewing_time":1354},{"page_index":1,"viewing_time":7504}],"rt":8859,"trial_type":"instructions","trial_index":6,"time_elapsed":63112,"internal_node_id":"0.0-7.0","experiment":"calibration","task_version":"1.0","jspsych_version":"6.3.1"},{"rt":null,"stimulus":"<div style=\"font-size:24px;\">Loading puzzle:<br>1 / 16</div>","response":null,"trial_type":"html-keyboard-response","trial_index":7,"time_elapsed":64327,"internal_node_id":"0.0-8.0-1.0","experiment":"calibration","task_version":"1.0","jspsych_version":"6.3.1"},{"puzzle":"../static/img/is3/tf3/tf3_25_M_ss1.jpeg","item_order":[3,1,2,0],"correct":0,"choice":0,"accuracy":1,"rt":22568,"screen_resolution":[1080,1920],"minimum_resolution":1,"item_set":3,"item":25,"test_form":3,"distractor":"pd","trial_type":"mars","trial_index":8,"time_elapsed":86897,"internal_node_id":"0.0-8.0-2.0","experiment":"calibration","task_version":"1.0","jspsych_version":"6.3.1","browser_interactions":0},{"rt":null,"stimulus":"<div style=\"font-size:24px;\">Loading puzzle:<br>2 / 16</div>","response":null,"trial_type":"html-keyboard-response","trial_index":9,"time_elapsed":88105,"internal_node_id":"0.0-9.0-1.0","experiment":"calibration","task_version":"1.0","jspsych_version":"6.3.1"},{"puzzle":"../static/img/is3/tf1/tf1_22_M_ss3.jpeg","item_order":[1,3,0,2],"correct":0,"choice":0,"accuracy":1,"rt":15147,"screen_resolution":[1080,1920],"minimum_resolution":1,"item_set":3,"item":22,"test_form":1,"distractor":"pd","trial_type":"mars","trial_index":10,"time_elapsed":103257,"internal_node_id":"0.0-9.0-2.0","experiment":"calibration","task_version":"1.0","jspsych_version":"6.3.1","browser_interactions":0},{"rt":null,"stimulus":"<div style=\"font-size:24px;\">Loading puzzle:<br>3 / 16</div>","response":null,"trial_type":"html-keyboard-response","trial_index":11,"time_elapsed":104460,"internal_node_id":"0.0-10.0-1.0","experiment":"calibration","task_version":"1.0","jspsych_version":"6.3.1"},{"puzzle":"../static/img/is3/tf2/tf2_70_M_ss2.jpeg","item_order":[1,3,2,0],"correct":0,"choice":0,"accuracy":1,"rt":12114,"screen_resolution":[1080,1920],"minimum_resolution":1,"item_set":3,"item":70,"test_form":2,"distractor":"pd","trial_type":"mars","trial_index":12,"time_elapsed":116577,"internal_node_id":"0.0-10.0-2.0","experiment":"calibration","task_version":"1.0","jspsych_version":"6.3.1","browser_interactions":0},{"rt":null,"stimulus":"<div style=\"font-size:24px;\">Loading puzzle:<br>4 / 16</div>","response":null,"trial_type":"html-keyboard-response","trial_index":13,"time_elapsed":117781,"internal_node_id":"0.0-11.0-1.0","experiment":"calibration","task_version":"1.0","jspsych_version":"6.3.1"},{"puzzle":"../static/img/is3/tf3/tf3_61_M_ss1.jpeg","item_order":[1,2,3,0],"correct":0,"choice":0,"accuracy":1,"rt":25401,"screen_resolution":[1080,1920],"minimum_resolution":1,"item_set":3,"item":61,"test_form":3,"distractor":"md","trial_type":"mars","trial_index":14,"time_elapsed":143185,"internal_node_id":"0.0-11.0-2.0","experiment":"calibration","task_version":"1.0","jspsych_version":"6.3.1","browser_interactions":0},{"rt":null,"stimulus":"<div style=\"font-size:24px;\">Loading puzzle:<br>5 / 16</div>","response":null,"trial_type":"html-keyboard-response","trial_index":15,"time_elapsed":144391,"internal_node_id":"0.0-12.0-1.0","experiment":"calibration","task_version":"1.0","jspsych_version":"6.3.1"},{"puzzle":"../static/img/is3/tf2/tf2_15_M_ss1.jpeg","item_order":[1,0,3,2],"correct":0,"choice":0,"accuracy":1,"rt":26966,"screen_resolution":[1080,1920],"minimum_resolution":1,"item_set":3,"item":15,"test_form":2,"distractor":"md","trial_type":"mars","trial_index":16,"time_elapsed":171361,"internal_node_id":"0.0-12.0-2.0","experiment":"calibration","task_version":"1.0","jspsych_version":"6.3.1","browser_interactions":0},{"rt":null,"stimulus":"<div style=\"font-size:24px;\">Loading puzzle:<br>6 / 16</div>","response":null,"trial_type":"html-keyboard-response","trial_index":17,"time_elapsed":172572,"internal_node_id":"0.0-13.0-1.0","experiment":"calibration","task_version":"1.0","jspsych_version":"6.3.1"},{"puzzle":"../static/img/is3/tf3/tf3_34_M_ss1.jpeg","item_order":[0,3,2,1],"correct":0,"choice":2,"accuracy":0,"rt":28625,"screen_resolution":[1080,1920],"minimum_resolution":1,"item_set":3,"item":34,"test_form":3,"distractor":"pd","trial_type":"mars","trial_index":18,"time_elapsed":201202,"internal_node_id":"0.0-13.0-2.0","experiment":"calibration","task_version":"1.0","jspsych_version":"6.3.1","browser_interactions":0},{"rt":null,"stimulus":"<div style=\"font-size:24px;\">Loading puzzle:<br>7 / 16</div>","response":null,"trial_type":"html-keyboard-response","trial_index":19,"time_elapsed":202404,"internal_node_id":"0.0-14.0-1.0","experiment":"calibration","task_version":"1.0","jspsych_version":"6.3.1"},{"puzzle":"../static/img/is3/tf1/tf1_56_M_ss1.jpeg","item_order":[3,1,2,0],"correct":0,"choice":0,"accuracy":1,"rt":25506,"screen_resolution":[1080,1920],"minimum_resolution":1,"item_set":3,"item":56,"test_form":1,"distractor":"md","trial_type":"mars","trial_index":20,"time_elapsed":227914,"internal_node_id":"0.0-14.0-2.0","experiment":"calibration","task_version":"1.0","jspsych_version":"6.3.1","browser_interactions":0},{"rt":null,"stimulus":"<div style=\"font-size:24px;\">Loading puzzle:<br>8 / 16</div>","response":null,"trial_type":"html-keyboard-response","trial_index":21,"time_elapsed":229116,"internal_node_id":"0.0-15.0-1.0","experiment":"calibration","task_version":"1.0","jspsych_version":"6.3.1"},{"puzzle":"../static/img/is3/tf1/tf1_12_M_ss2.jpeg","item_order":[3,1,2,0],"correct":0,"choice":null,"accuracy":null,"rt":null,"screen_resolution":[1080,1920],"minimum_resolution":1,"item_set":3,"item":12,"test_form":1,"distractor":"md","trial_type":"mars","trial_index":22,"time_elapsed":259132,"internal_node_id":"0.0-15.0-2.0","experiment":"calibration","task_version":"1.0","jspsych_version":"6.3.1","browser_interactions":0},{"rt":null,"stimulus":"<div style=\"font-size:24px;\">Loading puzzle:<br>9 / 16</div>","response":null,"trial_type":"html-keyboard-response","trial_index":23,"time_elapsed":260343,"internal_node_id":"0.0-16.0-1.0","experiment":"calibration","task_version":"1.0","jspsych_version":"6.3.1"},{"puzzle":"../static/img/is3/tf3/tf3_60_M_ss3.jpeg","item_order":[0,2,1,3],"correct":0,"choice":2,"accuracy":0,"rt":17655,"screen_resolution":[1080,1920],"minimum_resolution":1,"item_set":3,"item":60,"test_form":3,"distractor":"md","trial_type":"mars","trial_index":24,"time_elapsed":278002,"internal_node_id":"0.0-16.0-2.0","experiment":"calibration","task_version":"1.0","jspsych_version":"6.3.1","browser_interactions":0},{"rt":null,"stimulus":"<div style=\"font-size:24px;\">Loading puzzle:<br>10 / 16</div>","response":null,"trial_type":"html-keyboard-response","trial_index":25,"time_elapsed":279207,"internal_node_id":"0.0-17.0-1.0","experiment":"calibration","task_version":"1.0","jspsych_version":"6.3.1"},{"puzzle":"../static/img/is3/tf1/tf1_42_M_ss2.jpeg","item_order":[2,0,1,3],"correct":0,"choice":3,"accuracy":0,"rt":14523,"screen_resolution":[1080,1920],"minimum_resolution":1,"item_set":3,"item":42,"test_form":1,"distractor":"md","trial_type":"mars","trial_index":26,"time_elapsed":293731,"internal_node_id":"0.0-17.0-2.0","experiment":"calibration","task_version":"1.0","jspsych_version":"6.3.1","browser_interactions":0},{"rt":null,"stimulus":"<div style=\"font-size:24px;\">Loading puzzle:<br>11 / 16</div>","response":null,"trial_type":"html-keyboard-response","trial_index":27,"time_elapsed":294944,"internal_node_id":"0.0-18.0-1.0","experiment":"calibration","task_version":"1.0","jspsych_version":"6.3.1"},{"puzzle":"../static/img/is3/tf1/tf1_26_M_ss1.jpeg","item_order":[0,2,1,3],"correct":0,"choice":1,"accuracy":0,"rt":7614,"screen_resolution":[1080,1920],"minimum_resolution":1,"item_set":3,"item":26,"test_form":1,"distractor":"md","trial_type":"mars","trial_index":28,"time_elapsed":302563,"internal_node_id":"0.0-18.0-2.0","experiment":"calibration","task_version":"1.0","jspsych_version":"6.3.1","browser_interactions":0},{"rt":null,"stimulus":"<div style=\"font-size:24px;\">Loading puzzle:<br>12 / 16</div>","response":null,"trial_type":"html-keyboard-response","trial_index":29,"time_elapsed":303766,"internal_node_id":"0.0-19.0-1.0","experiment":"calibration","task_version":"1.0","jspsych_version":"6.3.1"},{"puzzle":"../static/img/is3/tf1/tf1_59_M_ss1.jpeg","item_order":[3,2,0,1],"correct":0,"choice":0,"accuracy":1,"rt":9947,"screen_resolution":[1080,1920],"minimum_resolution":1,"item_set":3,"item":59,"test_form":1,"distractor":"pd","trial_type":"mars","trial_index":30,"time_elapsed":313714,"internal_node_id":"0.0-19.0-2.0","experiment":"calibration","task_version":"1.0","jspsych_version":"6.3.1","browser_interactions":0},{"rt":null,"stimulus":"<div style=\"font-size:24px;\">Loading puzzle:<br>13 / 16</div>","response":null,"trial_type":"html-keyboard-response","trial_index":31,"time_elapsed":314921,"internal_node_id":"0.0-20.0-1.0","experiment":"calibration","task_version":"1.0","jspsych_version":"6.3.1"},{"puzzle":"../static/img/is3/tf3/tf3_75_M_ss3.jpeg","item_order":[0,2,3,1],"correct":0,"choice":0,"accuracy":1,"rt":6233,"screen_resolution":[1080,1920],"minimum_resolution":1,"item_set":3,"item":75,"test_form":3,"distractor":"md","trial_type":"mars","trial_index":32,"time_elapsed":321155,"internal_node_id":"0.0-20.0-2.0","experiment":"calibration","task_version":"1.0","jspsych_version":"6.3.1","browser_interactions":0},{"rt":null,"stimulus":"<div style=\"font-size:24px;\">Loading puzzle:<br>14 / 16</div>","response":null,"trial_type":"html-keyboard-response","trial_index":33,"time_elapsed":322367,"internal_node_id":"0.0-21.0-1.0","experiment":"calibration","task_version":"1.0","jspsych_version":"6.3.1"},{"puzzle":"../static/img/is3/tf3/tf3_36_M_ss3.jpeg","item_order":[1,3,0,2],"correct":0,"choice":0,"accuracy":1,"rt":24865,"screen_resolution":[1080,1920],"minimum_resolution":1,"item_set":3,"item":36,"test_form":3,"distractor":"md","trial_type":"mars","trial_index":34,"time_elapsed":347235,"internal_node_id":"0.0-21.0-2.0","experiment":"calibration","task_version":"1.0","jspsych_version":"6.3.1","browser_interactions":0},{"rt":null,"stimulus":"<div style=\"font-size:24px;\">Loading puzzle:<br>15 / 16</div>","response":null,"trial_type":"html-keyboard-response","trial_index":35,"time_elapsed":348438,"internal_node_id":"0.0-22.0-1.0","experiment":"calibration","task_version":"1.0","jspsych_version":"6.3.1"},{"puzzle":"../static/img/is3/tf2/tf2_24_M_ss1.jpeg","item_order":[0,2,3,1],"correct":0,"choice":3,"accuracy":0,"rt":13086,"screen_resolution":[1080,1920],"minimum_resolution":1,"item_set":3,"item":24,"test_form":2,"distractor":"pd","trial_type":"mars","trial_index":36,"time_elapsed":361531,"internal_node_id":"0.0-22.0-2.0","experiment":"calibration","task_version":"1.0","jspsych_version":"6.3.1","browser_interactions":0},{"rt":null,"stimulus":"<div style=\"font-size:24px;\">Loading puzzle:<br>16 / 16</div>","response":null,"trial_type":"html-keyboard-response","trial_index":37,"time_elapsed":362737,"internal_node_id":"0.0-23.0-1.0","experiment":"calibration","task_version":"1.0","jspsych_version":"6.3.1"},{"puzzle":"../static/img/is3/tf2/tf2_66_M_ss1.jpeg","item_order":[0,3,1,2],"correct":0,"choice":0,"accuracy":1,"rt":9161,"screen_resolution":[1080,1920],"minimum_resolution":1,"item_set":3,"item":66,"test_form":2,"distractor":"pd","trial_type":"mars","trial_index":38,"time_elapsed":371899,"internal_node_id":"0.0-23.0-2.0","experiment":"calibration","task_version":"1.0","jspsych_version":"6.3.1","browser_interactions":0},{"value":[0,1,0],"trial_type":"call-function","trial_index":39,"time_elapsed":371900,"internal_node_id":"0.0-24.0","experiment":"calibration","task_version":"1.0","jspsych_version":"6.3.1"},{"view_history":[{"page_index":0,"viewing_time":4302}],"rt":4302,"trial_type":"instructions","trial_index":40,"time_elapsed":376203,"internal_node_id":"0.0-25.0","experiment":"calibration","task_version":"1.0","jspsych_version":"6.3.1"},{"rt":10854,"responses":{"age":"32","gender-categorical":"Male","gender-free-response":"","ethnicity":"Not Hispanic or Latino","race":["White"],"education":"Bachelor degree","free-response":""},"trial_type":"survey-demo","trial_index":41,"time_elapsed":387062,"internal_node_id":"0.0-26.0","experiment":"calibration","task_version":"1.0","jspsych_version":"6.3.1","interactions":"[{\"event\":\"fullscreenenter\",\"trial\":1,\"time\":5171}]"}]