[{"success":true,"timeout":false,"failed_images":[],"failed_audio":[],"failed_video":[],"trial_type":"preload","trial_index":0,"time_elapsed":19348,"internal_node_id":"0.0-0.0","experiment":"calibration","task_version":"1.0","jspsych_version":"6.3.1"},{"success":true,"trial_type":"fullscreen","trial_index":1,"time_elapsed":27450,"internal_node_id":"0.0-1.0","experiment":"calibration","task_version":"1.0","jspsych_version":"6.3.1"},{"view_history":[{"page_index":0,"viewing_time":27683.199999999488},{"page_index":1,"viewing_time":13155.699999999342},{"page_index":2,"viewing_time":4438.500000000204}],"rt":45279.39999999944,"trial_type":"instructions","trial_index":2,"time_elapsed":72775,"internal_node_id":"0.0-2.0","experiment":"calibration","task_version":"1.0","jspsych_version":"6.3.1"},{"puzzle":"../static/img/practice/pt1_M1.png","item_order":[2,3,1,0],"correct":0,"choice":3,"accuracy":0,"rt":21967.599999999948,"screen_resolution":[764,360],"minimum_resolution":0,"item_set":"practice","trial_type":"mars","trial_index":3,"time_elapsed":96825,"internal_node_id":"0.0-3.0-0.0","experiment":"calibration","task_version":"1.0","jspsych_version":"6.3.1"},{"puzzle":"../static/img/practice/pt1_M1.png","item_order":[3,0,2,1],"correct":0,"choice":0,"accuracy":1,"rt":7431.300000000192,"screen_resolution":[764,360],"minimum_resolution":0,"item_set":"practice","trial_type":"mars","trial_index":4,"time_elapsed":106268,"internal_node_id":"0.0-3.1-0.1","experiment":"calibration","task_version":"1.0","jspsych_version":"6.3.1"},{"puzzle":"../static/img/practice/pt2_M1.png","item_order":[3,2,1,0],"correct":0,"choice":1,"accuracy":0,"rt":14977.80000000057,"screen_resolution":[764,360],"minimum_resolution":0,"item_set":"practice","trial_type":"mars","trial_index":5,"time_elapsed":123263,"internal_node_id":"0.0-4.0-0.0","experiment":"calibration","task_version":"1.0","jspsych_version":"6.3.1"},{"puzzle":"../static/img/practice/pt2_M1.png","item_order":[0,3,2,1],"correct":0,"choice":3,"accuracy":0,"rt":2806.3999999994703,"screen_resolution":[764,360],"minimum_resolution":0,"item_set":"practice","trial_type":"mars","trial_index":6,"time_elapsed":128180,"internal_node_id":"0.0-4.1-0.1","experiment":"calibration","task_version":"1.0","jspsych_version":"6.3.1"},{"puzzle":"../static/img/practice/pt2_M1.png","item_order":[2,1,3,0],"correct":0,"choice":3,"accuracy":0,"rt":21240.499999999884,"screen_resolution":[764,360],"minimum_resolution":0,"item_set":"practice","trial_type":"mars","trial_index":7,"time_elapsed":151434,"internal_node_id":"0.0-4.2-0.2","experiment":"calibration","task_version":"1.0","jspsych_version":"6.3.1"},{"puzzle":"../static/img/practice/pt2_M1.png","item_order":[0,1,2,3],"correct":0,"choice":2,"accuracy":0,"rt":15903.599999999627,"screen_resolution":[764,360],"minimum_resolution":0,"item_set":"practice","trial_type":"mars","trial_index":8,"time_elapsed":169369,"internal_node_id":"0.0-4.3-0.3","experiment":"calibration","task_version":"1.0","jspsych_version":"6.3.1"},{"puzzle":"../static/img/practice/pt2_M1.png","item_order":[1,3,0,2],"correct":0,"choice":3,"accuracy":0,"rt":15959.600000000122,"screen_resolution":[764,360],"minimum_resolution":0,"item_set":"practice","trial_type":"mars","trial_index":9,"time_elapsed":187338,"internal_node_id":"0.0-4.4-0.4","experiment":"calibration","task_version":"1.0","jspsych_version":"6.3.1"},{"puzzle":"../static/img/practice/pt2_M1.png","item_order":[2,0,1,3],"correct":0,"choice":null,"accuracy":null,"rt":null,"screen_resolution":[764,360],"minimum_resolution":0,"item_set":"practice","trial_type":"mars","trial_index":10,"time_elapsed":217364,"internal_node_id":"0.0-4.5-0.5","experiment":"calibration","task_version":"1.0","jspsych_version":"6.3.1"},{"puzzle":"../static/img/practice/pt2_M1.png","item_order":[3,0,2,1],"correct":0,"choice":0,"accuracy":1,"rt":16610.399999999587,"screen_resolution":[764,360],"minimum_resolution":0,"item_set":"practice","trial_type":"mars","trial_index":11,"time_elapsed":236001,"internal_node_id":"0.0-4.6-0.6","experiment":"calibration","task_version":"1.0","jspsych_version":"6.3.1"},{"puzzle":"../static/img/practice/pt3_M1.png","item_order":[3,1,0,2],"correct":0,"choice":0,"accuracy":1,"rt":3355.70000000007,"screen_resolution":[764,360],"minimum_resolution":0,"item_set":"practice","trial_type":"mars","trial_index":12,"time_elapsed":241383,"internal_node_id":"0.0-5.0-0.0","experiment":"calibration","task_version":"1.0","jspsych_version":"6.3.1"},{"view_history":[{"page_index":0,"viewing_time":1849.500000000262},{"page_index":1,"viewing_time":7300.1999999996915}],"rt":9150.799999999435,"trial_type":"instructions","trial_index":13,"time_elapsed":250543,"internal_node_id":"0.0-6.0","experiment":"calibration","task_version":"1.0","jspsych_version":"6.3.1"},{"rt":null,"stimulus":"<div style=\"font-size:24px;\">Loading puzzle:<br>1 / 16</div>","response":null,"trial_type":"html-keyboard-response","trial_index":14,"time_elapsed":251777,"internal_node_id":"0.0-7.0-0.0","experiment":"calibration","task_version":"1.0","jspsych_version":"6.3.1"},{"puzzle":"../static/img/is3/tf1/tf1_28_M_ss3.jpeg","item_order":[0,2,3,1],"correct":0,"choice":2,"accuracy":0,"rt":13051.900000000373,"screen_resolution":[764,360],"minimum_resolution":0,"item_set":3,"item":28,"test_form":1,"distractor":"md","trial_type":"mars","trial_index":15,"time_elapsed":264942,"internal_node_id":"0.0-7.0-1.0","experiment":"calibration","task_version":"1.0","jspsych_version":"6.3.1","browser_interactions":0},{"rt":null,"stimulus":"<div style=\"font-size:24px;\">Loading puzzle:<br>2 / 16</div>","response":null,"trial_type":"html-keyboard-response","trial_index":16,"time_elapsed":266148,"internal_node_id":"0.0-8.0-0.0","experiment":"calibration","task_version":"1.0","jspsych_version":"6.3.1"},{"puzzle":"../static/img/is3/tf2/tf2_20_M_ss3.jpeg","item_order":[2,3,0,1],"correct":0,"choice":0,"accuracy":1,"rt":7795.900000000955,"screen_resolution":[764,360],"minimum_resolution":0,"item_set":3,"item":20,"test_form":2,"distractor":"pd","trial_type":"mars","trial_index":17,"time_elapsed":274055,"internal_node_id":"0.0-8.0-1.0","experiment":"calibration","task_version":"1.0","jspsych_version":"6.3.1","browser_interactions":0},{"rt":null,"stimulus":"<div style=\"font-size:24px;\">Loading puzzle:<br>3 / 16</div>","response":null,"trial_type":"html-keyboard-response","trial_index":18,"time_elapsed":275260,"internal_node_id":"0.0-9.0-0.0","experiment":"calibration","task_version":"1.0","jspsych_version":"6.3.1"},{"puzzle":"../static/img/is3/tf1/tf1_70_M_ss3.jpeg","item_order":[1,3,2,0],"correct":0,"choice":2,"accuracy":0,"rt":10441.700000001234,"screen_resolution":[764,360],"minimum_resolution":0,"item_set":3,"item":70,"test_form":1,"distractor":"md","trial_type":"mars","trial_index":19,"time_elapsed":285813,"internal_node_id":"0.0-9.0-1.0","experiment":"calibration","task_version":"1.0","jspsych_version":"6.3.1","browser_interactions":0},{"rt":null,"stimulus":"<div style=\"font-size:24px;\">Loading puzzle:<br>4 / 16</div>","response":null,"trial_type":"html-keyboard-response","trial_index":20,"time_elapsed":287017,"internal_node_id":"0.0-10.0-0.0","experiment":"calibration","task_version":"1.0","jspsych_version":"6.3.1"},{"puzzle":"../static/img/is3/tf2/tf2_50_M_ss3.jpeg","item_order":[2,3,1,0],"correct":0,"choice":3,"accuracy":0,"rt":5215.900000001013,"screen_resolution":[764,360],"minimum_resolution":0,"item_set":3,"item":50,"test_form":2,"distractor":"pd","trial_type":"mars","trial_index":21,"time_elapsed":292337,"internal_node_id":"0.0-10.0-1.0","experiment":"calibration","task_version":"1.0","jspsych_version":"6.3.1","browser_interactions":0},{"rt":null,"stimulus":"<div style=\"font-size:24px;\">Loading puzzle:<br>5 / 16</div>","response":null,"trial_type":"html-keyboard-response","trial_index":22,"time_elapsed":293542,"internal_node_id":"0.0-11.0-0.0","experiment":"calibration","task_version":"1.0","jspsych_version":"6.3.1"},{"puzzle":"../static/img/is3/tf1/tf1_34_M_ss3.jpeg","item_order":[2,1,0,3],"correct":0,"choice":1,"accuracy":0,"rt":10137.500000000757,"screen_resolution":[764,360],"minimum_resolution":0,"item_set":3,"item":34,"test_form":1,"distractor":"md","trial_type":"mars","trial_index":23,"time_elapsed":303792,"internal_node_id":"0.0-11.0-1.0","experiment":"calibration","task_version":"1.0","jspsych_version":"6.3.1","browser_interactions":0},{"rt":null,"stimulus":"<div style=\"font-size:24px;\">Loading puzzle:<br>6 / 16</div>","response":null,"trial_type":"html-keyboard-response","trial_index":24,"time_elapsed":304997,"internal_node_id":"0.0-12.0-0.0","experiment":"calibration","task_version":"1.0","jspsych_version":"6.3.1"},{"puzzle":"../static/img/is3/tf2/tf2_15_M_ss1.jpeg","item_order":[1,0,3,2],"correct":0,"choice":0,"accuracy":1,"rt":5336.199999999721,"screen_resolution":[764,360],"minimum_resolution":0,"item_set":3,"item":15,"test_form":2,"distractor":"pd","trial_type":"mars","trial_index":25,"time_elapsed":310441,"internal_node_id":"0.0-12.0-1.0","experiment":"calibration","task_version":"1.0","jspsych_version":"6.3.1","browser_interactions":0},{"rt":null,"stimulus":"<div style=\"font-size:24px;\">Loading puzzle:<br>7 / 16</div>","response":null,"trial_type":"html-keyboard-response","trial_index":26,"time_elapsed":311646,"internal_node_id":"0.0-13.0-0.0","experiment":"calibration","task_version":"1.0","jspsych_version":"6.3.1"},{"puzzle":"../static/img/is3/tf2/tf2_56_M_ss3.jpeg","item_order":[2,3,1,0],"correct":0,"choice":3,"accuracy":0,"rt":9374.89999999886,"screen_resolution":[764,360],"minimum_resolution":0,"item_set":3,"item":56,"test_form":2,"distractor":"pd","trial_type":"mars","trial_index":27,"time_elapsed":321134,"internal_node_id":"0.0-13.0-1.0","experiment":"calibration","task_version":"1.0","jspsych_version":"6.3.1","browser_interactions":0},{"rt":null,"stimulus":"<div style=\"font-size:24px;\">Loading puzzle:<br>8 / 16</div>","response":null,"trial_type":"html-keyboard-response","trial_index":28,"time_elapsed":322339,"internal_node_id":"0.0-14.0-0.0","experiment":"calibration","task_version":"1.0","jspsych_version":"6.3.1"},{"puzzle":"../static/img/is3/tf1/tf1_16_M_ss3.jpeg","item_order":[2,0,1,3],"correct":0,"choice":1,"accuracy":0,"rt":9475.300000000047,"screen_resolution":[764,360],"minimum_resolution":0,"item_set":3,"item":16,"test_form":1,"distractor":"md","trial_type":"mars","trial_index":29,"time_elapsed":331926,"internal_node_id":"0.0-14.0-1.0","experiment":"calibration","task_version":"1.0","jspsych_version":"6.3.1","browser_interactions":0},{"rt":null,"stimulus":"<div style=\"font-size:24px;\">Loading puzzle:<br>9 / 16</div>","response":null,"trial_type":"html-keyboard-response","trial_index":30,"time_elapsed":333130,"internal_node_id":"0.0-15.0-0.0","experiment":"calibration","task_version":"1.0","jspsych_version":"6.3.1"},{"puzzle":"../static/img/is3/tf2/tf2_40_M_ss2.jpeg","item_order":[1,2,3,0],"correct":0,"choice":2,"accuracy":0,"rt":6384.799999999814,"screen_resolution":[764,360],"minimum_resolution":0,"item_set":3,"item":40,"test_form":2,"distractor":"pd","trial_type":"mars","trial_index":31,"time_elapsed":339625,"internal_node_id":"0.0-15.0-1.0","experiment":"calibration","task_version":"1.0","jspsych_version":"6.3.1","browser_interactions":0},{"rt":null,"stimulus":"<div style=\"font-size:24px;\">Loading puzzle:<br>10 / 16</div>","response":null,"trial_type":"html-keyboard-response","trial_index":32,"time_elapsed":340830,"internal_node_id":"0.0-16.0-0.0","experiment":"calibration","task_version":"1.0","jspsych_version":"6.3.1"},{"puzzle":"../static/img/is3/tf1/tf1_72_M_ss2.jpeg","item_order":[1,2,3,0],"correct":0,"choice":2,"accuracy":0,"rt":5203.900000000431,"screen_resolution":[764,360],"minimum_resolution":0,"item_set":3,"item":72,"test_form":1,"distractor":"md","trial_type":"mars","trial_index":33,"time_elapsed":346145,"internal_node_id":"0.0-16.0-1.0","experiment":"calibration","task_version":"1.0","jspsych_version":"6.3.1","browser_interactions":0},{"rt":null,"stimulus":"<div style=\"font-size:24px;\">Loading puzzle:<br>11 / 16</div>","response":null,"trial_type":"html-keyboard-response","trial_index":34,"time_elapsed":347350,"internal_node_id":"0.0-17.0-0.0","experiment":"calibration","task_version":"1.0","jspsych_version":"6.3.1"},{"puzzle":"../static/img/is3/tf2/tf2_52_M_ss2.jpeg","item_order":[0,3,2,1],"correct":0,"choice":3,"accuracy":0,"rt":7893.599999999395,"screen_resolution":[764,360],"minimum_resolution":0,"item_set":3,"item":52,"test_form":2,"distractor":"pd","trial_type":"mars","trial_index":35,"time_elapsed":355338,"internal_node_id":"0.0-17.0-1.0","experiment":"calibration","task_version":"1.0","jspsych_version":"6.3.1","browser_interactions":0},{"rt":null,"stimulus":"<div style=\"font-size:24px;\">Loading puzzle:<br>12 / 16</div>","response":null,"trial_type":"html-keyboard-response","trial_index":36,"time_elapsed":356543,"internal_node_id":"0.0-18.0-0.0","experiment":"calibration","task_version":"1.0","jspsych_version":"6.3.1"},{"puzzle":"../static/img/is3/tf1/tf1_74_M_ss1.jpeg","item_order":[1,3,0,2],"correct":0,"choice":0,"accuracy":1,"rt":4958.700000001001,"screen_resolution":[764,360],"minimum_resolution":0,"item_set":3,"item":74,"test_form":1,"distractor":"md","trial_type":"mars","trial_index":37,"time_elapsed":361511,"internal_node_id":"0.0-18.0-1.0","experiment":"calibration","task_version":"1.0","jspsych_version":"6.3.1","browser_interactions":0},{"rt":null,"stimulus":"<div style=\"font-size:24px;\">Loading puzzle:<br>13 / 16</div>","response":null,"trial_type":"html-keyboard-response","trial_index":38,"time_elapsed":362715,"internal_node_id":"0.0-19.0-0.0","experiment":"calibration","task_version":"1.0","jspsych_version":"6.3.1"},{"puzzle":"../static/img/is3/tf2/tf2_36_M_ss1.jpeg","item_order":[2,1,3,0],"correct":0,"choice":1,"accuracy":0,"rt":9492.599999999627,"screen_resolution":[764,360],"minimum_resolution":0,"item_set":3,"item":36,"test_form":2,"distractor":"pd","trial_type":"mars","trial_index":39,"time_elapsed":372320,"internal_node_id":"0.0-19.0-1.0","experiment":"calibration","task_version":"1.0","jspsych_version":"6.3.1","browser_interactions":0},{"rt":null,"stimulus":"<div style=\"font-size:24px;\">Loading puzzle:<br>14 / 16</div>","response":null,"trial_type":"html-keyboard-response","trial_index":40,"time_elapsed":373525,"internal_node_id":"0.0-20.0-0.0","experiment":"calibration","task_version":"1.0","jspsych_version":"6.3.1"},{"puzzle":"../static/img/is3/tf1/tf1_64_M_ss3.jpeg","item_order":[1,0,3,2],"correct":0,"choice":3,"accuracy":0,"rt":5516.099999998871,"screen_resolution":[764,360],"minimum_resolution":0,"item_set":3,"item":64,"test_form":1,"distractor":"md","trial_type":"mars","trial_index":41,"time_elapsed":379154,"internal_node_id":"0.0-20.0-1.0","experiment":"calibration","task_version":"1.0","jspsych_version":"6.3.1","browser_interactions":0},{"rt":null,"stimulus":"<div style=\"font-size:24px;\">Loading puzzle:<br>15 / 16</div>","response":null,"trial_type":"html-keyboard-response","trial_index":42,"time_elapsed":380360,"internal_node_id":"0.0-21.0-0.0","experiment":"calibration","task_version":"1.0","jspsych_version":"6.3.1"},{"puzzle":"../static/img/is3/tf2/tf2_24_M_ss1.jpeg","item_order":[1,0,2,3],"correct":0,"choice":2,"accuracy":0,"rt":3594.399999999907,"screen_resolution":[764,360],"minimum_resolution":0,"item_set":3,"item":24,"test_form":2,"distractor":"pd","trial_type":"mars","trial_index":43,"time_elapsed":384077,"internal_node_id":"0.0-21.0-1.0","experiment":"calibration","task_version":"1.0","jspsych_version":"6.3.1","browser_interactions":0},{"rt":null,"stimulus":"<div style=\"font-size:24px;\">Loading puzzle:<br>16 / 16</div>","response":null,"trial_type":"html-keyboard-response","trial_index":44,"time_elapsed":385281,"internal_node_id":"0.0-22.0-0.0","experiment":"calibration","task_version":"1.0","jspsych_version":"6.3.1"},{"puzzle":"../static/img/is3/tf1/tf1_35_M_ss1.jpeg","item_order":[2,3,1,0],"correct":0,"choice":1,"accuracy":0,"rt":3443.3000000008033,"screen_resolution":[764,360],"minimum_resolution":0,"item_set":3,"item":35,"test_form":1,"distractor":"md","trial_type":"mars","trial_index":45,"time_elapsed":388836,"internal_node_id":"0.0-22.0-1.0","experiment":"calibration","task_version":"1.0","jspsych_version":"6.3.1","browser_interactions":0},{"view_history":[{"page_index":0,"viewing_time":5630.999999999418}],"rt":5631.999999999651,"trial_type":"instructions","trial_index":46,"time_elapsed":394473,"internal_node_id":"0.0-23.0","experiment":"calibration","task_version":"1.0","jspsych_version":"6.3.1"},{"rt":79582.00000000035,"responses":{"age":"34","gender-categorical":"Male","gender-free-response":"","ethnicity":"Not Hispanic or Latino","race":["Black or African American"],"education":"Master degree or higher","free-response":"No comments "},"trial_type":"survey-demo","trial_index":47,"time_elapsed":474132,"internal_node_id":"0.0-24.0","experiment":"calibration","task_version":"1.0","jspsych_version":"6.3.1","interactions":"[{\"event\":\"fullscreenenter\",\"trial\":1,\"time\":26528}]"}]