[{"success":true,"timeout":false,"failed_images":[],"failed_audio":[],"failed_video":[],"trial_type":"preload","trial_index":0,"time_elapsed":16651,"internal_node_id":"0.0-0.0","experiment":"calibration","task_version":"1.0","jspsych_version":"6.3.1"},{"success":true,"trial_type":"fullscreen","trial_index":1,"time_elapsed":87913,"internal_node_id":"0.0-1.0","experiment":"calibration","task_version":"1.0","jspsych_version":"6.3.1"},{"view_history":[{"page_index":0,"viewing_time":2508},{"page_index":1,"viewing_time":92987},{"page_index":2,"viewing_time":624}],"rt":96120,"trial_type":"instructions","trial_index":2,"time_elapsed":184039,"internal_node_id":"0.0-3.0","experiment":"calibration","task_version":"1.0","jspsych_version":"6.3.1"},{"puzzle":"../static/img/practice/pt1_M1.png","item_order":[2,1,0,3],"correct":0,"choice":0,"accuracy":1,"rt":3650,"screen_resolution":[505,1366],"minimum_resolution":0,"item_set":"practice","trial_type":"mars","trial_index":3,"time_elapsed":189753,"internal_node_id":"0.0-4.0-0.0","experiment":"calibration","task_version":"1.0","jspsych_version":"6.3.1"},{"puzzle":"../static/img/practice/pt2_M1.png","item_order":[0,1,2,3],"correct":0,"choice":0,"accuracy":1,"rt":15653,"screen_resolution":[505,1366],"minimum_resolution":0,"item_set":"practice","trial_type":"mars","trial_index":4,"time_elapsed":207415,"internal_node_id":"0.0-5.0-0.0","experiment":"calibration","task_version":"1.0","jspsych_version":"6.3.1"},{"puzzle":"../static/img/practice/pt3_M1.png","item_order":[3,0,2,1],"correct":0,"choice":0,"accuracy":1,"rt":5973,"screen_resolution":[631,1708],"minimum_resolution":1,"item_set":"practice","trial_type":"mars","trial_index":5,"time_elapsed":215411,"internal_node_id":"0.0-6.0-0.0","experiment":"calibration","task_version":"1.0","jspsych_version":"6.3.1"},{"view_history":[{"page_index":0,"viewing_time":15967},{"page_index":1,"viewing_time":1004}],"rt":16971,"trial_type":"instructions","trial_index":6,"time_elapsed":232386,"internal_node_id":"0.0-7.0","experiment":"calibration","task_version":"1.0","jspsych_version":"6.3.1"},{"rt":null,"stimulus":"<div style=\"font-size:24px;\">Loading puzzle:<br>1 / 16</div>","response":null,"trial_type":"html-keyboard-response","trial_index":7,"time_elapsed":233604,"internal_node_id":"0.0-8.0-1.0","experiment":"calibration","task_version":"1.0","jspsych_version":"6.3.1"},{"puzzle":"../static/img/is3/tf1/tf1_22_M_ss3.jpeg","item_order":[2,0,3,1],"correct":0,"choice":2,"accuracy":0,"rt":4624,"screen_resolution":[631,1708],"minimum_resolution":1,"item_set":3,"item":22,"test_form":1,"distractor":"md","trial_type":"mars","trial_index":8,"time_elapsed":238232,"internal_node_id":"0.0-8.0-2.0","experiment":"calibration","task_version":"1.0","jspsych_version":"6.3.1","browser_interactions":0},{"rt":null,"stimulus":"<div style=\"font-size:24px;\">Loading puzzle:<br>2 / 16</div>","response":null,"trial_type":"html-keyboard-response","trial_index":9,"time_elapsed":239446,"internal_node_id":"0.0-9.0-1.0","experiment":"calibration","task_version":"1.0","jspsych_version":"6.3.1"},{"puzzle":"../static/img/is3/tf2/tf2_25_M_ss2.jpeg","item_order":[3,0,1,2],"correct":0,"choice":2,"accuracy":0,"rt":4447,"screen_resolution":[631,1708],"minimum_resolution":1,"item_set":3,"item":25,"test_form":2,"distractor":"pd","trial_type":"mars","trial_index":10,"time_elapsed":243896,"internal_node_id":"0.0-9.0-2.0","experiment":"calibration","task_version":"1.0","jspsych_version":"6.3.1","browser_interactions":0},{"rt":null,"stimulus":"<div style=\"font-size:24px;\">Loading puzzle:<br>3 / 16</div>","response":null,"trial_type":"html-keyboard-response","trial_index":11,"time_elapsed":245106,"internal_node_id":"0.0-10.0-1.0","experiment":"calibration","task_version":"1.0","jspsych_version":"6.3.1"},{"puzzle":"../static/img/is3/tf3/tf3_71_M_ss2.jpeg","item_order":[2,0,1,3],"correct":0,"choice":0,"accuracy":1,"rt":5300,"screen_resolution":[631,1708],"minimum_resolution":1,"item_set":3,"item":71,"test_form":3,"distractor":"md","trial_type":"mars","trial_index":12,"time_elapsed":250409,"internal_node_id":"0.0-10.0-2.0","experiment":"calibration","task_version":"1.0","jspsych_version":"6.3.1","browser_interactions":0},{"rt":null,"stimulus":"<div style=\"font-size:24px;\">Loading puzzle:<br>4 / 16</div>","response":null,"trial_type":"html-keyboard-response","trial_index":13,"time_elapsed":251626,"internal_node_id":"0.0-11.0-1.0","experiment":"calibration","task_version":"1.0","jspsych_version":"6.3.1"},{"puzzle":"../static/img/is3/tf1/tf1_51_M_ss2.jpeg","item_order":[2,0,1,3],"correct":0,"choice":1,"accuracy":0,"rt":13294,"screen_resolution":[631,1708],"minimum_resolution":1,"item_set":3,"item":51,"test_form":1,"distractor":"md","trial_type":"mars","trial_index":14,"time_elapsed":264925,"internal_node_id":"0.0-11.0-2.0","experiment":"calibration","task_version":"1.0","jspsych_version":"6.3.1","browser_interactions":2},{"rt":null,"stimulus":"<div style=\"font-size:24px;\">Loading puzzle:<br>5 / 16</div>","response":null,"trial_type":"html-keyboard-response","trial_index":15,"time_elapsed":266138,"internal_node_id":"0.0-12.0-1.0","experiment":"calibration","task_version":"1.0","jspsych_version":"6.3.1"},{"puzzle":"../static/img/is3/tf2/tf2_34_M_ss2.jpeg","item_order":[1,3,0,2],"correct":0,"choice":3,"accuracy":0,"rt":3927,"screen_resolution":[631,1708],"minimum_resolution":1,"item_set":3,"item":34,"test_form":2,"distractor":"pd","trial_type":"mars","trial_index":16,"time_elapsed":270068,"internal_node_id":"0.0-12.0-2.0","experiment":"calibration","task_version":"1.0","jspsych_version":"6.3.1","browser_interactions":0},{"rt":null,"stimulus":"<div style=\"font-size:24px;\">Loading puzzle:<br>6 / 16</div>","response":null,"trial_type":"html-keyboard-response","trial_index":17,"time_elapsed":271276,"internal_node_id":"0.0-13.0-1.0","experiment":"calibration","task_version":"1.0","jspsych_version":"6.3.1"},{"puzzle":"../static/img/is3/tf2/tf2_15_M_ss1.jpeg","item_order":[0,2,3,1],"correct":0,"choice":0,"accuracy":1,"rt":6183,"screen_resolution":[631,1708],"minimum_resolution":1,"item_set":3,"item":15,"test_form":2,"distractor":"pd","trial_type":"mars","trial_index":18,"time_elapsed":277463,"internal_node_id":"0.0-13.0-2.0","experiment":"calibration","task_version":"1.0","jspsych_version":"6.3.1","browser_interactions":0},{"rt":null,"stimulus":"<div style=\"font-size:24px;\">Loading puzzle:<br>7 / 16</div>","response":null,"trial_type":"html-keyboard-response","trial_index":19,"time_elapsed":278679,"internal_node_id":"0.0-14.0-1.0","experiment":"calibration","task_version":"1.0","jspsych_version":"6.3.1"},{"puzzle":"../static/img/is3/tf1/tf1_69_M_ss2.jpeg","item_order":[2,3,1,0],"correct":0,"choice":null,"accuracy":null,"rt":null,"screen_resolution":[631,1708],"minimum_resolution":1,"item_set":3,"item":69,"test_form":1,"distractor":"md","trial_type":"mars","trial_index":20,"time_elapsed":308689,"internal_node_id":"0.0-14.0-2.0","experiment":"calibration","task_version":"1.0","jspsych_version":"6.3.1","browser_interactions":3},{"rt":null,"stimulus":"<div style=\"font-size:24px;\">Loading puzzle:<br>8 / 16</div>","response":null,"trial_type":"html-keyboard-response","trial_index":21,"time_elapsed":309891,"internal_node_id":"0.0-15.0-1.0","experiment":"calibration","task_version":"1.0","jspsych_version":"6.3.1"},{"puzzle":"../static/img/is3/tf1/tf1_77_M_ss1.jpeg","item_order":[0,2,1,3],"correct":0,"choice":3,"accuracy":0,"rt":6910,"screen_resolution":[631,1708],"minimum_resolution":1,"item_set":3,"item":77,"test_form":1,"distractor":"pd","trial_type":"mars","trial_index":22,"time_elapsed":316805,"internal_node_id":"0.0-15.0-2.0","experiment":"calibration","task_version":"1.0","jspsych_version":"6.3.1","browser_interactions":3},{"rt":null,"stimulus":"<div style=\"font-size:24px;\">Loading puzzle:<br>9 / 16</div>","response":null,"trial_type":"html-keyboard-response","trial_index":23,"time_elapsed":318017,"internal_node_id":"0.0-16.0-1.0","experiment":"calibration","task_version":"1.0","jspsych_version":"6.3.1"},{"puzzle":"../static/img/is3/tf3/tf3_42_M_ss3.jpeg","item_order":[0,1,3,2],"correct":0,"choice":3,"accuracy":0,"rt":356,"screen_resolution":[631,1708],"minimum_resolution":1,"item_set":3,"item":42,"test_form":3,"distractor":"md","trial_type":"mars","trial_index":24,"time_elapsed":318374,"internal_node_id":"0.0-16.0-2.0","experiment":"calibration","task_version":"1.0","jspsych_version":"6.3.1","browser_interactions":0},{"rt":null,"stimulus":"<div style=\"font-size:24px;\">Loading puzzle:<br>10 / 16</div>","response":null,"trial_type":"html-keyboard-response","trial_index":25,"time_elapsed":319587,"internal_node_id":"0.0-17.0-1.0","experiment":"calibration","task_version":"1.0","jspsych_version":"6.3.1"},{"puzzle":"../static/img/is3/tf3/tf3_72_M_ss3.jpeg","item_order":[1,3,2,0],"correct":0,"choice":3,"accuracy":0,"rt":1961,"screen_resolution":[631,1708],"minimum_resolution":1,"item_set":3,"item":72,"test_form":3,"distractor":"pd","trial_type":"mars","trial_index":26,"time_elapsed":321551,"internal_node_id":"0.0-17.0-2.0","experiment":"calibration","task_version":"1.0","jspsych_version":"6.3.1","browser_interactions":2},{"rt":null,"stimulus":"<div style=\"font-size:24px;\">Loading puzzle:<br>11 / 16</div>","response":null,"trial_type":"html-keyboard-response","trial_index":27,"time_elapsed":322758,"internal_node_id":"0.0-18.0-1.0","experiment":"calibration","task_version":"1.0","jspsych_version":"6.3.1"},{"puzzle":"../static/img/is3/tf3/tf3_52_M_ss1.jpeg","item_order":[0,1,2,3],"correct":0,"choice":2,"accuracy":0,"rt":5732,"screen_resolution":[631,1708],"minimum_resolution":1,"item_set":3,"item":52,"test_form":3,"distractor":"md","trial_type":"mars","trial_index":28,"time_elapsed":328492,"internal_node_id":"0.0-18.0-2.0","experiment":"calibration","task_version":"1.0","jspsych_version":"6.3.1","browser_interactions":2},{"rt":null,"stimulus":"<div style=\"font-size:24px;\">Loading puzzle:<br>12 / 16</div>","response":null,"trial_type":"html-keyboard-response","trial_index":29,"time_elapsed":329704,"internal_node_id":"0.0-19.0-1.0","experiment":"calibration","task_version":"1.0","jspsych_version":"6.3.1"},{"puzzle":"../static/img/is3/tf3/tf3_74_M_ss2.jpeg","item_order":[2,1,3,0],"correct":0,"choice":3,"accuracy":0,"rt":1547,"screen_resolution":[631,1708],"minimum_resolution":1,"item_set":3,"item":74,"test_form":3,"distractor":"pd","trial_type":"mars","trial_index":30,"time_elapsed":331255,"internal_node_id":"0.0-19.0-2.0","experiment":"calibration","task_version":"1.0","jspsych_version":"6.3.1","browser_interactions":1},{"rt":null,"stimulus":"<div style=\"font-size:24px;\">Loading puzzle:<br>13 / 16</div>","response":null,"trial_type":"html-keyboard-response","trial_index":31,"time_elapsed":332458,"internal_node_id":"0.0-20.0-1.0","experiment":"calibration","task_version":"1.0","jspsych_version":"6.3.1"},{"puzzle":"../static/img/is3/tf1/tf1_44_M_ss1.jpeg","item_order":[2,1,0,3],"correct":0,"choice":3,"accuracy":0,"rt":193,"screen_resolution":[631,1708],"minimum_resolution":1,"item_set":3,"item":44,"test_form":1,"distractor":"pd","trial_type":"mars","trial_index":32,"time_elapsed":332654,"internal_node_id":"0.0-20.0-2.0","experiment":"calibration","task_version":"1.0","jspsych_version":"6.3.1","browser_interactions":0},{"rt":null,"stimulus":"<div style=\"font-size:24px;\">Loading puzzle:<br>14 / 16</div>","response":null,"trial_type":"html-keyboard-response","trial_index":33,"time_elapsed":333867,"internal_node_id":"0.0-21.0-1.0","experiment":"calibration","task_version":"1.0","jspsych_version":"6.3.1"},{"puzzle":"../static/img/is3/tf3/tf3_75_M_ss3.jpeg","item_order":[0,1,2,3],"correct":0,"choice":2,"accuracy":0,"rt":234,"screen_resolution":[631,1708],"minimum_resolution":1,"item_set":3,"item":75,"test_form":3,"distractor":"pd","trial_type":"mars","trial_index":34,"time_elapsed":334107,"internal_node_id":"0.0-21.0-2.0","experiment":"calibration","task_version":"1.0","jspsych_version":"6.3.1","browser_interactions":0},{"rt":null,"stimulus":"<div style=\"font-size:24px;\">Loading puzzle:<br>15 / 16</div>","response":null,"trial_type":"html-keyboard-response","trial_index":35,"time_elapsed":335319,"internal_node_id":"0.0-22.0-1.0","experiment":"calibration","task_version":"1.0","jspsych_version":"6.3.1"},{"puzzle":"../static/img/is3/tf2/tf2_35_M_ss3.jpeg","item_order":[1,3,0,2],"correct":0,"choice":0,"accuracy":1,"rt":8029,"screen_resolution":[631,1708],"minimum_resolution":1,"item_set":3,"item":35,"test_form":2,"distractor":"md","trial_type":"mars","trial_index":36,"time_elapsed":343353,"internal_node_id":"0.0-22.0-2.0","experiment":"calibration","task_version":"1.0","jspsych_version":"6.3.1","browser_interactions":1},{"rt":null,"stimulus":"<div style=\"font-size:24px;\">Loading puzzle:<br>16 / 16</div>","response":null,"trial_type":"html-keyboard-response","trial_index":37,"time_elapsed":344559,"internal_node_id":"0.0-23.0-1.0","experiment":"calibration","task_version":"1.0","jspsych_version":"6.3.1"},{"puzzle":"../static/img/is3/tf3/tf3_30_M_ss3.jpeg","item_order":[2,1,0,3],"correct":0,"choice":3,"accuracy":0,"rt":741,"screen_resolution":[631,1708],"minimum_resolution":1,"item_set":3,"item":30,"test_form":3,"distractor":"pd","trial_type":"mars","trial_index":38,"time_elapsed":345305,"internal_node_id":"0.0-23.0-2.0","experiment":"calibration","task_version":"1.0","jspsych_version":"6.3.1","browser_interactions":0},{"value":[6,1,0],"trial_type":"call-function","trial_index":39,"time_elapsed":345306,"internal_node_id":"0.0-24.0","experiment":"calibration","task_version":"1.0","jspsych_version":"6.3.1"},{"view_history":[{"page_index":0,"viewing_time":2127}],"rt":2127,"trial_type":"instructions","trial_index":40,"time_elapsed":347434,"internal_node_id":"0.0-25.0","experiment":"calibration","task_version":"1.0","jspsych_version":"6.3.1"},{"rt":9615,"responses":{"age":"43","gender-categorical":"Male","gender-free-response":"","ethnicity":"Not Hispanic or Latino","race":["White"],"education":"Master degree or higher","free-response":""},"trial_type":"survey-demo","trial_index":41,"time_elapsed":357126,"internal_node_id":"0.0-26.0","experiment":"calibration","task_version":"1.0","jspsych_version":"6.3.1","interactions":"[{\"event\":\"focus\",\"trial\":1,\"time\":44726},{\"event\":\"blur\",\"trial\":1,\"time\":45461},{\"event\":\"focus\",\"trial\":1,\"time\":86025},{\"event\":\"fullscreenenter\",\"trial\":1,\"time\":87353},{\"event\":\"fullscreenexit\",\"trial\":2,\"time\":92501},{\"event\":\"blur\",\"trial\":2,\"time\":93413},{\"event\":\"focus\",\"trial\":2,\"time\":132772},{\"event\":\"blur\",\"trial\":2,\"time\":133959},{\"event\":\"focus\",\"trial\":2,\"time\":164479},{\"event\":\"blur\",\"trial\":2,\"time\":175550},{\"event\":\"focus\",\"trial\":2,\"time\":182579},{\"event\":\"blur\",\"trial\":4,\"time\":193967},{\"event\":\"focus\",\"trial\":4,\"time\":200528},{\"event\":\"blur\",\"trial\":5,\"time\":214449},{\"event\":\"focus\",\"trial\":6,\"time\":230618},{\"event\":\"blur\",\"trial\":14,\"time\":254906},{\"event\":\"focus\",\"trial\":14,\"time\":264832},{\"event\":\"blur\",\"trial\":20,\"time\":278867},{\"event\":\"focus\",\"trial\":20,\"time\":282890},{\"event\":\"blur\",\"trial\":20,\"time\":295270},{\"event\":\"focus\",\"trial\":22,\"time\":310240},{\"event\":\"blur\",\"trial\":22,\"time\":310282},{\"event\":\"focus\",\"trial\":22,\"time\":316721},{\"event\":\"blur\",\"trial\":26,\"time\":319759},{\"event\":\"focus\",\"trial\":26,\"time\":320873},{\"event\":\"blur\",\"trial\":28,\"time\":323274},{\"event\":\"focus\",\"trial\":28,\"time\":327072},{\"event\":\"blur\",\"trial\":29,\"time\":329013},{\"event\":\"focus\",\"trial\":30,\"time\":330489},{\"event\":\"blur\",\"trial\":35,\"time\":334617},{\"event\":\"focus\",\"trial\":36,\"time\":342416}]"}]