[{"success":true,"timeout":false,"failed_images":[],"failed_audio":[],"failed_video":[],"trial_type":"preload","trial_index":0,"time_elapsed":33351,"internal_node_id":"0.0-0.0","experiment":"calibration","task_version":"1.0","jspsych_version":"6.3.1"},{"success":true,"trial_type":"fullscreen","trial_index":1,"time_elapsed":87635,"internal_node_id":"0.0-1.0","experiment":"calibration","task_version":"1.0","jspsych_version":"6.3.1"},{"view_history":[{"page_index":0,"viewing_time":38511.09999999404},{"page_index":1,"viewing_time":8702.09999999404},{"page_index":2,"viewing_time":2734.1000000089407}],"rt":49950.5,"trial_type":"instructions","trial_index":2,"time_elapsed":137620,"internal_node_id":"0.0-2.0","experiment":"calibration","task_version":"1.0","jspsych_version":"6.3.1"},{"puzzle":"../static/img/practice/pt1_M1.png","item_order":[1,0,3,2],"correct":0,"choice":2,"accuracy":0,"rt":3820.800000011921,"screen_resolution":[768,1366],"minimum_resolution":1,"item_set":"practice","trial_type":"mars","trial_index":3,"time_elapsed":143446,"internal_node_id":"0.0-3.0-0.0","experiment":"calibration","task_version":"1.0","jspsych_version":"6.3.1"},{"puzzle":"../static/img/practice/pt1_M1.png","item_order":[2,0,3,1],"correct":0,"choice":0,"accuracy":1,"rt":4109.4000000059605,"screen_resolution":[768,1366],"minimum_resolution":1,"item_set":"practice","trial_type":"mars","trial_index":4,"time_elapsed":149564,"internal_node_id":"0.0-3.1-0.1","experiment":"calibration","task_version":"1.0","jspsych_version":"6.3.1"},{"puzzle":"../static/img/practice/pt2_M1.png","item_order":[3,0,2,1],"correct":0,"choice":0,"accuracy":1,"rt":2942.2999999970198,"screen_resolution":[768,1366],"minimum_resolution":1,"item_set":"practice","trial_type":"mars","trial_index":5,"time_elapsed":154512,"internal_node_id":"0.0-4.0-0.0","experiment":"calibration","task_version":"1.0","jspsych_version":"6.3.1"},{"puzzle":"../static/img/practice/pt3_M1.png","item_order":[1,0,2,3],"correct":0,"choice":0,"accuracy":1,"rt":2521.199999988079,"screen_resolution":[768,1366],"minimum_resolution":1,"item_set":"practice","trial_type":"mars","trial_index":6,"time_elapsed":159043,"internal_node_id":"0.0-5.0-0.0","experiment":"calibration","task_version":"1.0","jspsych_version":"6.3.1"},{"view_history":[{"page_index":0,"viewing_time":2099.3999999910593},{"page_index":1,"viewing_time":20805.10000000894}],"rt":22905.39999999106,"trial_type":"instructions","trial_index":7,"time_elapsed":181951,"internal_node_id":"0.0-6.0","experiment":"calibration","task_version":"1.0","jspsych_version":"6.3.1"},{"rt":null,"stimulus":"<div style=\"font-size:24px;\">Loading puzzle:<br>1 / 16</div>","response":null,"trial_type":"html-keyboard-response","trial_index":8,"time_elapsed":183160,"internal_node_id":"0.0-7.0-0.0","experiment":"calibration","task_version":"1.0","jspsych_version":"6.3.1"},{"puzzle":"../static/img/is3/tf1/tf1_39_M_ss2.jpeg","item_order":[0,3,1,2],"correct":0,"choice":2,"accuracy":0,"rt":3621.7000000029802,"screen_resolution":[768,1366],"minimum_resolution":1,"item_set":3,"item":39,"test_form":1,"distractor":"md","trial_type":"mars","trial_index":9,"time_elapsed":186790,"internal_node_id":"0.0-7.0-1.0","experiment":"calibration","task_version":"1.0","jspsych_version":"6.3.1","browser_interactions":0},{"rt":null,"stimulus":"<div style=\"font-size:24px;\">Loading puzzle:<br>2 / 16</div>","response":null,"trial_type":"html-keyboard-response","trial_index":10,"time_elapsed":187994,"internal_node_id":"0.0-8.0-0.0","experiment":"calibration","task_version":"1.0","jspsych_version":"6.3.1"},{"puzzle":"../static/img/is3/tf2/tf2_19_M_ss2.jpeg","item_order":[0,1,3,2],"correct":0,"choice":1,"accuracy":0,"rt":3274.3999999910593,"screen_resolution":[768,1366],"minimum_resolution":1,"item_set":3,"item":19,"test_form":2,"distractor":"md","trial_type":"mars","trial_index":11,"time_elapsed":191276,"internal_node_id":"0.0-8.0-1.0","experiment":"calibration","task_version":"1.0","jspsych_version":"6.3.1","browser_interactions":0},{"rt":null,"stimulus":"<div style=\"font-size:24px;\">Loading puzzle:<br>3 / 16</div>","response":null,"trial_type":"html-keyboard-response","trial_index":12,"time_elapsed":192479,"internal_node_id":"0.0-9.0-0.0","experiment":"calibration","task_version":"1.0","jspsych_version":"6.3.1"},{"puzzle":"../static/img/is3/tf1/tf1_70_M_ss3.jpeg","item_order":[3,1,2,0],"correct":0,"choice":2,"accuracy":0,"rt":6807.100000008941,"screen_resolution":[768,1366],"minimum_resolution":1,"item_set":3,"item":70,"test_form":1,"distractor":"md","trial_type":"mars","trial_index":13,"time_elapsed":199293,"internal_node_id":"0.0-9.0-1.0","experiment":"calibration","task_version":"1.0","jspsych_version":"6.3.1","browser_interactions":0},{"rt":null,"stimulus":"<div style=\"font-size:24px;\">Loading puzzle:<br>4 / 16</div>","response":null,"trial_type":"html-keyboard-response","trial_index":14,"time_elapsed":200496,"internal_node_id":"0.0-10.0-0.0","experiment":"calibration","task_version":"1.0","jspsych_version":"6.3.1"},{"puzzle":"../static/img/is3/tf2/tf2_49_M_ss2.jpeg","item_order":[0,3,2,1],"correct":0,"choice":1,"accuracy":0,"rt":6725.29999999702,"screen_resolution":[768,1366],"minimum_resolution":1,"item_set":3,"item":49,"test_form":2,"distractor":"pd","trial_type":"mars","trial_index":15,"time_elapsed":207230,"internal_node_id":"0.0-10.0-1.0","experiment":"calibration","task_version":"1.0","jspsych_version":"6.3.1","browser_interactions":0},{"rt":null,"stimulus":"<div style=\"font-size:24px;\">Loading puzzle:<br>5 / 16</div>","response":null,"trial_type":"html-keyboard-response","trial_index":16,"time_elapsed":208434,"internal_node_id":"0.0-11.0-0.0","experiment":"calibration","task_version":"1.0","jspsych_version":"6.3.1"},{"puzzle":"../static/img/is3/tf1/tf1_27_M_ss2.jpeg","item_order":[3,0,1,2],"correct":0,"choice":3,"accuracy":0,"rt":5918.100000008941,"screen_resolution":[768,1366],"minimum_resolution":1,"item_set":3,"item":27,"test_form":1,"distractor":"pd","trial_type":"mars","trial_index":17,"time_elapsed":214355,"internal_node_id":"0.0-11.0-1.0","experiment":"calibration","task_version":"1.0","jspsych_version":"6.3.1","browser_interactions":0},{"rt":null,"stimulus":"<div style=\"font-size:24px;\">Loading puzzle:<br>6 / 16</div>","response":null,"trial_type":"html-keyboard-response","trial_index":18,"time_elapsed":215559,"internal_node_id":"0.0-12.0-0.0","experiment":"calibration","task_version":"1.0","jspsych_version":"6.3.1"},{"puzzle":"../static/img/is3/tf2/tf2_18_M_ss1.jpeg","item_order":[1,0,2,3],"correct":0,"choice":2,"accuracy":0,"rt":5464.600000008941,"screen_resolution":[768,1366],"minimum_resolution":1,"item_set":3,"item":18,"test_form":2,"distractor":"md","trial_type":"mars","trial_index":19,"time_elapsed":221028,"internal_node_id":"0.0-12.0-1.0","experiment":"calibration","task_version":"1.0","jspsych_version":"6.3.1","browser_interactions":0},{"rt":null,"stimulus":"<div style=\"font-size:24px;\">Loading puzzle:<br>7 / 16</div>","response":null,"trial_type":"html-keyboard-response","trial_index":20,"time_elapsed":222232,"internal_node_id":"0.0-13.0-0.0","experiment":"calibration","task_version":"1.0","jspsych_version":"6.3.1"},{"puzzle":"../static/img/is3/tf2/tf2_56_M_ss3.jpeg","item_order":[3,2,1,0],"correct":0,"choice":0,"accuracy":1,"rt":6044.699999988079,"screen_resolution":[768,1366],"minimum_resolution":1,"item_set":3,"item":56,"test_form":2,"distractor":"pd","trial_type":"mars","trial_index":21,"time_elapsed":228302,"internal_node_id":"0.0-13.0-1.0","experiment":"calibration","task_version":"1.0","jspsych_version":"6.3.1","browser_interactions":0},{"rt":null,"stimulus":"<div style=\"font-size:24px;\">Loading puzzle:<br>8 / 16</div>","response":null,"trial_type":"html-keyboard-response","trial_index":22,"time_elapsed":229505,"internal_node_id":"0.0-14.0-0.0","experiment":"calibration","task_version":"1.0","jspsych_version":"6.3.1"},{"puzzle":"../static/img/is3/tf1/tf1_17_M_ss1.jpeg","item_order":[2,1,3,0],"correct":0,"choice":2,"accuracy":0,"rt":6308.70000000298,"screen_resolution":[768,1366],"minimum_resolution":1,"item_set":3,"item":17,"test_form":1,"distractor":"pd","trial_type":"mars","trial_index":23,"time_elapsed":235822,"internal_node_id":"0.0-14.0-1.0","experiment":"calibration","task_version":"1.0","jspsych_version":"6.3.1","browser_interactions":0},{"rt":null,"stimulus":"<div style=\"font-size:24px;\">Loading puzzle:<br>9 / 16</div>","response":null,"trial_type":"html-keyboard-response","trial_index":24,"time_elapsed":237026,"internal_node_id":"0.0-15.0-0.0","experiment":"calibration","task_version":"1.0","jspsych_version":"6.3.1"},{"puzzle":"../static/img/is3/tf1/tf1_79_M_ss3.jpeg","item_order":[0,1,2,3],"correct":0,"choice":0,"accuracy":1,"rt":4894.79999999702,"screen_resolution":[768,1366],"minimum_resolution":1,"item_set":3,"item":79,"test_form":1,"distractor":"pd","trial_type":"mars","trial_index":25,"time_elapsed":241927,"internal_node_id":"0.0-15.0-1.0","experiment":"calibration","task_version":"1.0","jspsych_version":"6.3.1","browser_interactions":0},{"rt":null,"stimulus":"<div style=\"font-size:24px;\">Loading puzzle:<br>10 / 16</div>","response":null,"trial_type":"html-keyboard-response","trial_index":26,"time_elapsed":243131,"internal_node_id":"0.0-16.0-0.0","experiment":"calibration","task_version":"1.0","jspsych_version":"6.3.1"},{"puzzle":"../static/img/is3/tf2/tf2_42_M_ss1.jpeg","item_order":[2,0,1,3],"correct":0,"choice":2,"accuracy":0,"rt":6584.0999999940395,"screen_resolution":[768,1366],"minimum_resolution":1,"item_set":3,"item":42,"test_form":2,"distractor":"pd","trial_type":"mars","trial_index":27,"time_elapsed":249722,"internal_node_id":"0.0-16.0-1.0","experiment":"calibration","task_version":"1.0","jspsych_version":"6.3.1","browser_interactions":0},{"rt":null,"stimulus":"<div style=\"font-size:24px;\">Loading puzzle:<br>11 / 16</div>","response":null,"trial_type":"html-keyboard-response","trial_index":28,"time_elapsed":250925,"internal_node_id":"0.0-17.0-0.0","experiment":"calibration","task_version":"1.0","jspsych_version":"6.3.1"},{"puzzle":"../static/img/is3/tf2/tf2_14_M_ss3.jpeg","item_order":[3,2,1,0],"correct":0,"choice":3,"accuracy":0,"rt":3742.7000000029802,"screen_resolution":[768,1366],"minimum_resolution":1,"item_set":3,"item":14,"test_form":2,"distractor":"md","trial_type":"mars","trial_index":29,"time_elapsed":254673,"internal_node_id":"0.0-17.0-1.0","experiment":"calibration","task_version":"1.0","jspsych_version":"6.3.1","browser_interactions":0},{"rt":null,"stimulus":"<div style=\"font-size:24px;\">Loading puzzle:<br>12 / 16</div>","response":null,"trial_type":"html-keyboard-response","trial_index":30,"time_elapsed":255875,"internal_node_id":"0.0-18.0-0.0","experiment":"calibration","task_version":"1.0","jspsych_version":"6.3.1"},{"puzzle":"../static/img/is3/tf1/tf1_67_M_ss3.jpeg","item_order":[1,0,2,3],"correct":0,"choice":0,"accuracy":1,"rt":6648.600000008941,"screen_resolution":[768,1366],"minimum_resolution":1,"item_set":3,"item":67,"test_form":1,"distractor":"pd","trial_type":"mars","trial_index":31,"time_elapsed":262532,"internal_node_id":"0.0-18.0-1.0","experiment":"calibration","task_version":"1.0","jspsych_version":"6.3.1","browser_interactions":0},{"rt":null,"stimulus":"<div style=\"font-size:24px;\">Loading puzzle:<br>13 / 16</div>","response":null,"trial_type":"html-keyboard-response","trial_index":32,"time_elapsed":263736,"internal_node_id":"0.0-19.0-0.0","experiment":"calibration","task_version":"1.0","jspsych_version":"6.3.1"},{"puzzle":"../static/img/is3/tf1/tf1_55_M_ss3.jpeg","item_order":[0,3,1,2],"correct":0,"choice":0,"accuracy":1,"rt":3566.7000000029802,"screen_resolution":[768,1366],"minimum_resolution":1,"item_set":3,"item":55,"test_form":1,"distractor":"pd","trial_type":"mars","trial_index":33,"time_elapsed":267312,"internal_node_id":"0.0-19.0-1.0","experiment":"calibration","task_version":"1.0","jspsych_version":"6.3.1","browser_interactions":0},{"rt":null,"stimulus":"<div style=\"font-size:24px;\">Loading puzzle:<br>14 / 16</div>","response":null,"trial_type":"html-keyboard-response","trial_index":34,"time_elapsed":268516,"internal_node_id":"0.0-20.0-0.0","experiment":"calibration","task_version":"1.0","jspsych_version":"6.3.1"},{"puzzle":"../static/img/is3/tf2/tf2_44_M_ss3.jpeg","item_order":[1,3,2,0],"correct":0,"choice":3,"accuracy":0,"rt":6817.5,"screen_resolution":[768,1366],"minimum_resolution":1,"item_set":3,"item":44,"test_form":2,"distractor":"pd","trial_type":"mars","trial_index":35,"time_elapsed":275337,"internal_node_id":"0.0-20.0-1.0","experiment":"calibration","task_version":"1.0","jspsych_version":"6.3.1","browser_interactions":0},{"rt":null,"stimulus":"<div style=\"font-size:24px;\">Loading puzzle:<br>15 / 16</div>","response":null,"trial_type":"html-keyboard-response","trial_index":36,"time_elapsed":276540,"internal_node_id":"0.0-21.0-0.0","experiment":"calibration","task_version":"1.0","jspsych_version":"6.3.1"},{"puzzle":"../static/img/is3/tf2/tf2_30_M_ss1.jpeg","item_order":[2,0,3,1],"correct":0,"choice":3,"accuracy":0,"rt":6460.0999999940395,"screen_resolution":[768,1366],"minimum_resolution":1,"item_set":3,"item":30,"test_form":2,"distractor":"pd","trial_type":"mars","trial_index":37,"time_elapsed":283004,"internal_node_id":"0.0-21.0-1.0","experiment":"calibration","task_version":"1.0","jspsych_version":"6.3.1","browser_interactions":0},{"rt":null,"stimulus":"<div style=\"font-size:24px;\">Loading puzzle:<br>16 / 16</div>","response":null,"trial_type":"html-keyboard-response","trial_index":38,"time_elapsed":284217,"internal_node_id":"0.0-22.0-0.0","experiment":"calibration","task_version":"1.0","jspsych_version":"6.3.1"},{"puzzle":"../static/img/is3/tf1/tf1_66_M_ss2.jpeg","item_order":[2,1,3,0],"correct":0,"choice":1,"accuracy":0,"rt":7135.899999991059,"screen_resolution":[768,1366],"minimum_resolution":1,"item_set":3,"item":66,"test_form":1,"distractor":"pd","trial_type":"mars","trial_index":39,"time_elapsed":291373,"internal_node_id":"0.0-22.0-1.0","experiment":"calibration","task_version":"1.0","jspsych_version":"6.3.1","browser_interactions":0},{"value":[0,0,0],"trial_type":"call-function","trial_index":40,"time_elapsed":291375,"internal_node_id":"0.0-23.0","experiment":"calibration","task_version":"1.0","jspsych_version":"6.3.1"},{"view_history":[{"page_index":0,"viewing_time":3739.7000000029802}],"rt":3740.2999999970198,"trial_type":"instructions","trial_index":41,"time_elapsed":295118,"internal_node_id":"0.0-24.0","experiment":"calibration","task_version":"1.0","jspsych_version":"6.3.1"},{"rt":36976,"responses":{"age":"36","gender-categorical":"Male","gender-free-response":"","ethnicity":"Not Hispanic or Latino","race":["White"],"education":"Master degree or higher","free-response":"NICE STUDY"},"trial_type":"survey-demo","trial_index":42,"time_elapsed":332101,"internal_node_id":"0.0-25.0","experiment":"calibration","task_version":"1.0","jspsych_version":"6.3.1","interactions":"[{\"event\":\"fullscreenenter\",\"trial\":1,\"time\":86695}]"}]