[{"success":true,"timeout":false,"failed_images":[],"failed_audio":[],"failed_video":[],"trial_type":"preload","trial_index":0,"time_elapsed":963,"internal_node_id":"0.0-0.0","experiment":"calibration","task_version":"1.0","jspsych_version":"6.3.1"},{"success":true,"trial_type":"fullscreen","trial_index":1,"time_elapsed":5134,"internal_node_id":"0.0-1.0","experiment":"calibration","task_version":"1.0","jspsych_version":"6.3.1"},{"view_history":[{"page_index":0,"viewing_time":8641.200000047684},{"page_index":1,"viewing_time":7281.399999976158},{"page_index":2,"viewing_time":1406}],"rt":17330.400000035763,"trial_type":"instructions","trial_index":2,"time_elapsed":22474,"internal_node_id":"0.0-3.0","experiment":"calibration","task_version":"1.0","jspsych_version":"6.3.1"},{"puzzle":"../static/img/practice/pt1_M1.png","item_order":[0,2,1,3],"correct":0,"choice":0,"accuracy":1,"rt":6169,"screen_resolution":[720,1280],"minimum_resolution":1,"item_set":"practice","trial_type":"mars","trial_index":3,"time_elapsed":30654,"internal_node_id":"0.0-4.0-0.0","experiment":"calibration","task_version":"1.0","jspsych_version":"6.3.1"},{"puzzle":"../static/img/practice/pt2_M1.png","item_order":[2,1,0,3],"correct":0,"choice":0,"accuracy":1,"rt":3017.399999976158,"screen_resolution":[720,1280],"minimum_resolution":1,"item_set":"practice","trial_type":"mars","trial_index":4,"time_elapsed":35691,"internal_node_id":"0.0-5.0-0.0","experiment":"calibration","task_version":"1.0","jspsych_version":"6.3.1"},{"puzzle":"../static/img/practice/pt3_M1.png","item_order":[3,1,0,2],"correct":0,"choice":0,"accuracy":1,"rt":1882.5,"screen_resolution":[720,1280],"minimum_resolution":1,"item_set":"practice","trial_type":"mars","trial_index":5,"time_elapsed":39593,"internal_node_id":"0.0-6.0-0.0","experiment":"calibration","task_version":"1.0","jspsych_version":"6.3.1"},{"view_history":[{"page_index":0,"viewing_time":2336.399999976158},{"page_index":1,"viewing_time":8459.100000023842}],"rt":10796,"trial_type":"instructions","trial_index":6,"time_elapsed":50399,"internal_node_id":"0.0-7.0","experiment":"calibration","task_version":"1.0","jspsych_version":"6.3.1"},{"rt":null,"stimulus":"<div style=\"font-size:24px;\">Loading puzzle:<br>1 / 16</div>","response":null,"trial_type":"html-keyboard-response","trial_index":7,"time_elapsed":51618,"internal_node_id":"0.0-8.0-1.0","experiment":"calibration","task_version":"1.0","jspsych_version":"6.3.1"},{"puzzle":"../static/img/is3/tf3/tf3_19_M_ss1.jpeg","item_order":[3,2,1,0],"correct":0,"choice":0,"accuracy":1,"rt":7970.5,"screen_resolution":[720,1280],"minimum_resolution":1,"item_set":3,"item":19,"test_form":3,"distractor":"md","trial_type":"mars","trial_index":8,"time_elapsed":59593,"internal_node_id":"0.0-8.0-2.0","experiment":"calibration","task_version":"1.0","jspsych_version":"6.3.1","browser_interactions":0},{"rt":null,"stimulus":"<div style=\"font-size:24px;\">Loading puzzle:<br>2 / 16</div>","response":null,"trial_type":"html-keyboard-response","trial_index":9,"time_elapsed":60821,"internal_node_id":"0.0-9.0-1.0","experiment":"calibration","task_version":"1.0","jspsych_version":"6.3.1"},{"puzzle":"../static/img/is3/tf3/tf3_28_M_ss1.jpeg","item_order":[2,3,1,0],"correct":0,"choice":0,"accuracy":1,"rt":17249.900000035763,"screen_resolution":[720,1280],"minimum_resolution":1,"item_set":3,"item":28,"test_form":3,"distractor":"md","trial_type":"mars","trial_index":10,"time_elapsed":78075,"internal_node_id":"0.0-9.0-2.0","experiment":"calibration","task_version":"1.0","jspsych_version":"6.3.1","browser_interactions":0},{"rt":null,"stimulus":"<div style=\"font-size:24px;\">Loading puzzle:<br>3 / 16</div>","response":null,"trial_type":"html-keyboard-response","trial_index":11,"time_elapsed":79299,"internal_node_id":"0.0-10.0-1.0","experiment":"calibration","task_version":"1.0","jspsych_version":"6.3.1"},{"puzzle":"../static/img/is3/tf3/tf3_51_M_ss3.jpeg","item_order":[3,0,2,1],"correct":0,"choice":0,"accuracy":1,"rt":13595.100000023842,"screen_resolution":[720,1280],"minimum_resolution":1,"item_set":3,"item":51,"test_form":3,"distractor":"md","trial_type":"mars","trial_index":12,"time_elapsed":92898,"internal_node_id":"0.0-10.0-2.0","experiment":"calibration","task_version":"1.0","jspsych_version":"6.3.1","browser_interactions":0},{"rt":null,"stimulus":"<div style=\"font-size:24px;\">Loading puzzle:<br>4 / 16</div>","response":null,"trial_type":"html-keyboard-response","trial_index":13,"time_elapsed":94110,"internal_node_id":"0.0-11.0-1.0","experiment":"calibration","task_version":"1.0","jspsych_version":"6.3.1"},{"puzzle":"../static/img/is3/tf3/tf3_71_M_ss2.jpeg","item_order":[2,0,3,1],"correct":0,"choice":0,"accuracy":1,"rt":5951.800000011921,"screen_resolution":[720,1280],"minimum_resolution":1,"item_set":3,"item":71,"test_form":3,"distractor":"pd","trial_type":"mars","trial_index":14,"time_elapsed":100066,"internal_node_id":"0.0-11.0-2.0","experiment":"calibration","task_version":"1.0","jspsych_version":"6.3.1","browser_interactions":0},{"rt":null,"stimulus":"<div style=\"font-size:24px;\">Loading puzzle:<br>5 / 16</div>","response":null,"trial_type":"html-keyboard-response","trial_index":15,"time_elapsed":101291,"internal_node_id":"0.0-12.0-1.0","experiment":"calibration","task_version":"1.0","jspsych_version":"6.3.1"},{"puzzle":"../static/img/is3/tf3/tf3_37_M_ss1.jpeg","item_order":[3,0,1,2],"correct":0,"choice":1,"accuracy":0,"rt":24182.19999998808,"screen_resolution":[720,1280],"minimum_resolution":1,"item_set":3,"item":37,"test_form":3,"distractor":"md","trial_type":"mars","trial_index":16,"time_elapsed":125475,"internal_node_id":"0.0-12.0-2.0","experiment":"calibration","task_version":"1.0","jspsych_version":"6.3.1","browser_interactions":0},{"rt":null,"stimulus":"<div style=\"font-size:24px;\">Loading puzzle:<br>6 / 16</div>","response":null,"trial_type":"html-keyboard-response","trial_index":17,"time_elapsed":126699,"internal_node_id":"0.0-13.0-1.0","experiment":"calibration","task_version":"1.0","jspsych_version":"6.3.1"},{"puzzle":"../static/img/is3/tf3/tf3_15_M_ss3.jpeg","item_order":[0,3,1,2],"correct":0,"choice":0,"accuracy":1,"rt":15445.199999988079,"screen_resolution":[720,1280],"minimum_resolution":1,"item_set":3,"item":15,"test_form":3,"distractor":"pd","trial_type":"mars","trial_index":18,"time_elapsed":142149,"internal_node_id":"0.0-13.0-2.0","experiment":"calibration","task_version":"1.0","jspsych_version":"6.3.1","browser_interactions":0},{"rt":null,"stimulus":"<div style=\"font-size:24px;\">Loading puzzle:<br>7 / 16</div>","response":null,"trial_type":"html-keyboard-response","trial_index":19,"time_elapsed":143355,"internal_node_id":"0.0-14.0-1.0","experiment":"calibration","task_version":"1.0","jspsych_version":"6.3.1"},{"puzzle":"../static/img/is3/tf3/tf3_56_M_ss2.jpeg","item_order":[2,0,1,3],"correct":0,"choice":0,"accuracy":1,"rt":17258.400000035763,"screen_resolution":[720,1280],"minimum_resolution":1,"item_set":3,"item":56,"test_form":3,"distractor":"pd","trial_type":"mars","trial_index":20,"time_elapsed":160617,"internal_node_id":"0.0-14.0-2.0","experiment":"calibration","task_version":"1.0","jspsych_version":"6.3.1","browser_interactions":0},{"rt":null,"stimulus":"<div style=\"font-size:24px;\">Loading puzzle:<br>8 / 16</div>","response":null,"trial_type":"html-keyboard-response","trial_index":21,"time_elapsed":161838,"internal_node_id":"0.0-15.0-1.0","experiment":"calibration","task_version":"1.0","jspsych_version":"6.3.1"},{"puzzle":"../static/img/is3/tf3/tf3_12_M_ss3.jpeg","item_order":[0,3,2,1],"correct":0,"choice":0,"accuracy":1,"rt":10936.700000047684,"screen_resolution":[720,1280],"minimum_resolution":1,"item_set":3,"item":12,"test_form":3,"distractor":"pd","trial_type":"mars","trial_index":22,"time_elapsed":172778,"internal_node_id":"0.0-15.0-2.0","experiment":"calibration","task_version":"1.0","jspsych_version":"6.3.1","browser_interactions":0},{"rt":null,"stimulus":"<div style=\"font-size:24px;\">Loading puzzle:<br>9 / 16</div>","response":null,"trial_type":"html-keyboard-response","trial_index":23,"time_elapsed":174001,"internal_node_id":"0.0-16.0-1.0","experiment":"calibration","task_version":"1.0","jspsych_version":"6.3.1"},{"puzzle":"../static/img/is3/tf3/tf3_79_M_ss1.jpeg","item_order":[3,1,2,0],"correct":0,"choice":0,"accuracy":1,"rt":22984.200000047684,"screen_resolution":[720,1280],"minimum_resolution":1,"item_set":3,"item":79,"test_form":3,"distractor":"pd","trial_type":"mars","trial_index":24,"time_elapsed":196988,"internal_node_id":"0.0-16.0-2.0","experiment":"calibration","task_version":"1.0","jspsych_version":"6.3.1","browser_interactions":0},{"rt":null,"stimulus":"<div style=\"font-size:24px;\">Loading puzzle:<br>10 / 16</div>","response":null,"trial_type":"html-keyboard-response","trial_index":25,"time_elapsed":198204,"internal_node_id":"0.0-17.0-1.0","experiment":"calibration","task_version":"1.0","jspsych_version":"6.3.1"},{"puzzle":"../static/img/is3/tf3/tf3_40_M_ss1.jpeg","item_order":[0,3,2,1],"correct":0,"choice":1,"accuracy":0,"rt":12784.100000023842,"screen_resolution":[720,1280],"minimum_resolution":1,"item_set":3,"item":40,"test_form":3,"distractor":"md","trial_type":"mars","trial_index":26,"time_elapsed":210992,"internal_node_id":"0.0-17.0-2.0","experiment":"calibration","task_version":"1.0","jspsych_version":"6.3.1","browser_interactions":0},{"rt":null,"stimulus":"<div style=\"font-size:24px;\">Loading puzzle:<br>11 / 16</div>","response":null,"trial_type":"html-keyboard-response","trial_index":27,"time_elapsed":212211,"internal_node_id":"0.0-18.0-1.0","experiment":"calibration","task_version":"1.0","jspsych_version":"6.3.1"},{"puzzle":"../static/img/is3/tf3/tf3_14_M_ss2.jpeg","item_order":[0,3,2,1],"correct":0,"choice":0,"accuracy":1,"rt":26091.30000001192,"screen_resolution":[720,1280],"minimum_resolution":1,"item_set":3,"item":14,"test_form":3,"distractor":"md","trial_type":"mars","trial_index":28,"time_elapsed":238306,"internal_node_id":"0.0-18.0-2.0","experiment":"calibration","task_version":"1.0","jspsych_version":"6.3.1","browser_interactions":0},{"rt":null,"stimulus":"<div style=\"font-size:24px;\">Loading puzzle:<br>12 / 16</div>","response":null,"trial_type":"html-keyboard-response","trial_index":29,"time_elapsed":239531,"internal_node_id":"0.0-19.0-1.0","experiment":"calibration","task_version":"1.0","jspsych_version":"6.3.1"},{"puzzle":"../static/img/is3/tf3/tf3_59_M_ss2.jpeg","item_order":[1,0,2,3],"correct":0,"choice":0,"accuracy":1,"rt":17010.5,"screen_resolution":[720,1280],"minimum_resolution":1,"item_set":3,"item":59,"test_form":3,"distractor":"md","trial_type":"mars","trial_index":30,"time_elapsed":256546,"internal_node_id":"0.0-19.0-2.0","experiment":"calibration","task_version":"1.0","jspsych_version":"6.3.1","browser_interactions":0},{"rt":null,"stimulus":"<div style=\"font-size:24px;\">Loading puzzle:<br>13 / 16</div>","response":null,"trial_type":"html-keyboard-response","trial_index":31,"time_elapsed":257760,"internal_node_id":"0.0-20.0-1.0","experiment":"calibration","task_version":"1.0","jspsych_version":"6.3.1"},{"puzzle":"../static/img/is3/tf3/tf3_54_M_ss3.jpeg","item_order":[2,3,1,0],"correct":0,"choice":0,"accuracy":1,"rt":16613.5,"screen_resolution":[720,1280],"minimum_resolution":1,"item_set":3,"item":54,"test_form":3,"distractor":"pd","trial_type":"mars","trial_index":32,"time_elapsed":274377,"internal_node_id":"0.0-20.0-2.0","experiment":"calibration","task_version":"1.0","jspsych_version":"6.3.1","browser_interactions":0},{"rt":null,"stimulus":"<div style=\"font-size:24px;\">Loading puzzle:<br>14 / 16</div>","response":null,"trial_type":"html-keyboard-response","trial_index":33,"time_elapsed":275611,"internal_node_id":"0.0-21.0-1.0","experiment":"calibration","task_version":"1.0","jspsych_version":"6.3.1"},{"puzzle":"../static/img/is3/tf3/tf3_36_M_ss3.jpeg","item_order":[3,0,2,1],"correct":0,"choice":3,"accuracy":0,"rt":27022.599999964237,"screen_resolution":[720,1280],"minimum_resolution":1,"item_set":3,"item":36,"test_form":3,"distractor":"md","trial_type":"mars","trial_index":34,"time_elapsed":302639,"internal_node_id":"0.0-21.0-2.0","experiment":"calibration","task_version":"1.0","jspsych_version":"6.3.1","browser_interactions":0},{"rt":null,"stimulus":"<div style=\"font-size:24px;\">Loading puzzle:<br>15 / 16</div>","response":null,"trial_type":"html-keyboard-response","trial_index":35,"time_elapsed":303858,"internal_node_id":"0.0-22.0-1.0","experiment":"calibration","task_version":"1.0","jspsych_version":"6.3.1"},{"puzzle":"../static/img/is3/tf3/tf3_29_M_ss2.jpeg","item_order":[3,0,1,2],"correct":0,"choice":0,"accuracy":1,"rt":16162.700000047684,"screen_resolution":[720,1280],"minimum_resolution":1,"item_set":3,"item":29,"test_form":3,"distractor":"pd","trial_type":"mars","trial_index":36,"time_elapsed":320024,"internal_node_id":"0.0-22.0-2.0","experiment":"calibration","task_version":"1.0","jspsych_version":"6.3.1","browser_interactions":0},{"rt":null,"stimulus":"<div style=\"font-size:24px;\">Loading puzzle:<br>16 / 16</div>","response":null,"trial_type":"html-keyboard-response","trial_index":37,"time_elapsed":321242,"internal_node_id":"0.0-23.0-1.0","experiment":"calibration","task_version":"1.0","jspsych_version":"6.3.1"},{"puzzle":"../static/img/is3/tf3/tf3_78_M_ss3.jpeg","item_order":[0,1,2,3],"correct":0,"choice":2,"accuracy":0,"rt":20644.899999976158,"screen_resolution":[720,1280],"minimum_resolution":1,"item_set":3,"item":78,"test_form":3,"distractor":"pd","trial_type":"mars","trial_index":38,"time_elapsed":341891,"internal_node_id":"0.0-23.0-2.0","experiment":"calibration","task_version":"1.0","jspsych_version":"6.3.1","browser_interactions":0},{"value":[0,0,0],"trial_type":"call-function","trial_index":39,"time_elapsed":341904,"internal_node_id":"0.0-24.0","experiment":"calibration","task_version":"1.0","jspsych_version":"6.3.1"},{"view_history":[{"page_index":0,"viewing_time":2609.899999976158}],"rt":2610.399999976158,"trial_type":"instructions","trial_index":40,"time_elapsed":344517,"internal_node_id":"0.0-25.0","experiment":"calibration","task_version":"1.0","jspsych_version":"6.3.1"},{"rt":21153.80000001192,"responses":{"age":"20","gender-categorical":"Female","gender-free-response":"","ethnicity":"Not Hispanic or Latino","race":["White"],"education":"Some college","free-response":""},"trial_type":"survey-demo","trial_index":41,"time_elapsed":365678,"internal_node_id":"0.0-26.0","experiment":"calibration","task_version":"1.0","jspsych_version":"6.3.1","interactions":"[{\"event\":\"fullscreenenter\",\"trial\":1,\"time\":4164}]"}]