[{"success":true,"timeout":false,"failed_images":[],"failed_audio":[],"failed_video":[],"trial_type":"preload","trial_index":0,"time_elapsed":3525,"internal_node_id":"0.0-0.0","experiment":"calibration","task_version":"1.0","jspsych_version":"6.3.1"},{"success":true,"trial_type":"fullscreen","trial_index":1,"time_elapsed":6787,"internal_node_id":"0.0-1.0","experiment":"calibration","task_version":"1.0","jspsych_version":"6.3.1"},{"view_history":[{"page_index":0,"viewing_time":29755.355000001146},{"page_index":1,"viewing_time":15573.58500000555},{"page_index":2,"viewing_time":1671.4849999989383}],"rt":47004.430000000866,"trial_type":"instructions","trial_index":2,"time_elapsed":53811,"internal_node_id":"0.0-3.0","experiment":"calibration","task_version":"1.0","jspsych_version":"6.3.1"},{"puzzle":"../static/img/practice/pt1_M1.png","item_order":[2,0,1,3],"correct":0,"choice":3,"accuracy":0,"rt":9139.670000004116,"screen_resolution":[768,1366],"minimum_resolution":1,"item_set":"practice","trial_type":"mars","trial_index":3,"time_elapsed":64963,"internal_node_id":"0.0-4.0-0.0","experiment":"calibration","task_version":"1.0","jspsych_version":"6.3.1"},{"puzzle":"../static/img/practice/pt1_M1.png","item_order":[3,1,0,2],"correct":0,"choice":1,"accuracy":0,"rt":162.46500000124797,"screen_resolution":[768,1366],"minimum_resolution":1,"item_set":"practice","trial_type":"mars","trial_index":4,"time_elapsed":67140,"internal_node_id":"0.0-4.1-0.1","experiment":"calibration","task_version":"1.0","jspsych_version":"6.3.1"},{"puzzle":"../static/img/practice/pt1_M1.png","item_order":[2,0,3,1],"correct":0,"choice":0,"accuracy":1,"rt":7274.655000001076,"screen_resolution":[768,1366],"minimum_resolution":1,"item_set":"practice","trial_type":"mars","trial_index":5,"time_elapsed":76426,"internal_node_id":"0.0-4.2-0.2","experiment":"calibration","task_version":"1.0","jspsych_version":"6.3.1"},{"puzzle":"../static/img/practice/pt2_M1.png","item_order":[1,3,0,2],"correct":0,"choice":0,"accuracy":1,"rt":2805.015000005369,"screen_resolution":[768,1366],"minimum_resolution":1,"item_set":"practice","trial_type":"mars","trial_index":6,"time_elapsed":81242,"internal_node_id":"0.0-5.0-0.0","experiment":"calibration","task_version":"1.0","jspsych_version":"6.3.1"},{"puzzle":"../static/img/practice/pt3_M1.png","item_order":[3,1,0,2],"correct":0,"choice":null,"accuracy":null,"rt":null,"screen_resolution":[768,1366],"minimum_resolution":1,"item_set":"practice","trial_type":"mars","trial_index":7,"time_elapsed":111253,"internal_node_id":"0.0-6.0-0.0","experiment":"calibration","task_version":"1.0","jspsych_version":"6.3.1"},{"puzzle":"../static/img/practice/pt3_M1.png","item_order":[3,1,0,2],"correct":0,"choice":null,"accuracy":null,"rt":null,"screen_resolution":[768,1366],"minimum_resolution":1,"item_set":"practice","trial_type":"mars","trial_index":8,"time_elapsed":141264,"internal_node_id":"0.0-6.1-0.1","experiment":"calibration","task_version":"1.0","jspsych_version":"6.3.1"},{"puzzle":"../static/img/practice/pt3_M1.png","item_order":[2,3,1,0],"correct":0,"choice":null,"accuracy":null,"rt":null,"screen_resolution":[768,1366],"minimum_resolution":1,"item_set":"practice","trial_type":"mars","trial_index":9,"time_elapsed":171273,"internal_node_id":"0.0-6.2-0.2","experiment":"calibration","task_version":"1.0","jspsych_version":"6.3.1"},{"puzzle":"../static/img/practice/pt3_M1.png","item_order":[0,3,1,2],"correct":0,"choice":0,"accuracy":1,"rt":11799.855000004754,"screen_resolution":[768,1366],"minimum_resolution":1,"item_set":"practice","trial_type":"mars","trial_index":10,"time_elapsed":185084,"internal_node_id":"0.0-6.3-0.3","experiment":"calibration","task_version":"1.0","jspsych_version":"6.3.1"},{"view_history":[{"page_index":0,"viewing_time":1692.1050000091782},{"page_index":1,"viewing_time":3859.1299999970943}],"rt":5552.915000007488,"trial_type":"instructions","trial_index":11,"time_elapsed":190643,"internal_node_id":"0.0-7.0","experiment":"calibration","task_version":"1.0","jspsych_version":"6.3.1"},{"rt":null,"stimulus":"<div style=\"font-size:24px;\">Loading puzzle:<br>1 / 16</div>","response":null,"trial_type":"html-keyboard-response","trial_index":12,"time_elapsed":191863,"internal_node_id":"0.0-8.0-1.0","experiment":"calibration","task_version":"1.0","jspsych_version":"6.3.1"},{"puzzle":"../static/img/is3/tf3/tf3_22_M_ss1.jpeg","item_order":[2,3,1,0],"correct":0,"choice":0,"accuracy":1,"rt":11731.775000007474,"screen_resolution":[768,1366],"minimum_resolution":1,"item_set":3,"item":22,"test_form":3,"distractor":"md","trial_type":"mars","trial_index":13,"time_elapsed":203606,"internal_node_id":"0.0-8.0-2.0","experiment":"calibration","task_version":"1.0","jspsych_version":"6.3.1","browser_interactions":0},{"rt":null,"stimulus":"<div style=\"font-size:24px;\">Loading puzzle:<br>2 / 16</div>","response":null,"trial_type":"html-keyboard-response","trial_index":14,"time_elapsed":204817,"internal_node_id":"0.0-9.0-1.0","experiment":"calibration","task_version":"1.0","jspsych_version":"6.3.1"},{"puzzle":"../static/img/is3/tf3/tf3_47_M_ss2.jpeg","item_order":[0,2,1,3],"correct":0,"choice":2,"accuracy":0,"rt":4922.505000009551,"screen_resolution":[768,1366],"minimum_resolution":1,"item_set":3,"item":47,"test_form":3,"distractor":"pd","trial_type":"mars","trial_index":15,"time_elapsed":209747,"internal_node_id":"0.0-9.0-2.0","experiment":"calibration","task_version":"1.0","jspsych_version":"6.3.1","browser_interactions":0},{"rt":null,"stimulus":"<div style=\"font-size:24px;\">Loading puzzle:<br>3 / 16</div>","response":null,"trial_type":"html-keyboard-response","trial_index":16,"time_elapsed":210954,"internal_node_id":"0.0-10.0-1.0","experiment":"calibration","task_version":"1.0","jspsych_version":"6.3.1"},{"puzzle":"../static/img/is3/tf3/tf3_61_M_ss1.jpeg","item_order":[0,3,1,2],"correct":0,"choice":1,"accuracy":0,"rt":8782.854999997653,"screen_resolution":[768,1366],"minimum_resolution":1,"item_set":3,"item":61,"test_form":3,"distractor":"pd","trial_type":"mars","trial_index":17,"time_elapsed":219745,"internal_node_id":"0.0-10.0-2.0","experiment":"calibration","task_version":"1.0","jspsych_version":"6.3.1","browser_interactions":0},{"rt":null,"stimulus":"<div style=\"font-size:24px;\">Loading puzzle:<br>4 / 16</div>","response":null,"trial_type":"html-keyboard-response","trial_index":18,"time_elapsed":220952,"internal_node_id":"0.0-11.0-1.0","experiment":"calibration","task_version":"1.0","jspsych_version":"6.3.1"},{"puzzle":"../static/img/is3/tf3/tf3_71_M_ss2.jpeg","item_order":[1,3,2,0],"correct":0,"choice":0,"accuracy":1,"rt":15651.020000004792,"screen_resolution":[768,1366],"minimum_resolution":1,"item_set":3,"item":71,"test_form":3,"distractor":"md","trial_type":"mars","trial_index":19,"time_elapsed":236611,"internal_node_id":"0.0-11.0-2.0","experiment":"calibration","task_version":"1.0","jspsych_version":"6.3.1","browser_interactions":0},{"rt":null,"stimulus":"<div style=\"font-size:24px;\">Loading puzzle:<br>5 / 16</div>","response":null,"trial_type":"html-keyboard-response","trial_index":20,"time_elapsed":237816,"internal_node_id":"0.0-12.0-1.0","experiment":"calibration","task_version":"1.0","jspsych_version":"6.3.1"},{"puzzle":"../static/img/is3/tf3/tf3_18_M_ss3.jpeg","item_order":[1,3,0,2],"correct":0,"choice":3,"accuracy":0,"rt":18787.470000010217,"screen_resolution":[768,1366],"minimum_resolution":1,"item_set":3,"item":18,"test_form":3,"distractor":"md","trial_type":"mars","trial_index":21,"time_elapsed":256611,"internal_node_id":"0.0-12.0-2.0","experiment":"calibration","task_version":"1.0","jspsych_version":"6.3.1","browser_interactions":0},{"rt":null,"stimulus":"<div style=\"font-size:24px;\">Loading puzzle:<br>6 / 16</div>","response":null,"trial_type":"html-keyboard-response","trial_index":22,"time_elapsed":257816,"internal_node_id":"0.0-13.0-1.0","experiment":"calibration","task_version":"1.0","jspsych_version":"6.3.1"},{"puzzle":"../static/img/is3/tf3/tf3_31_M_ss1.jpeg","item_order":[3,2,1,0],"correct":0,"choice":0,"accuracy":1,"rt":26704.945000004955,"screen_resolution":[768,1366],"minimum_resolution":1,"item_set":3,"item":31,"test_form":3,"distractor":"md","trial_type":"mars","trial_index":23,"time_elapsed":284527,"internal_node_id":"0.0-13.0-2.0","experiment":"calibration","task_version":"1.0","jspsych_version":"6.3.1","browser_interactions":0},{"rt":null,"stimulus":"<div style=\"font-size:24px;\">Loading puzzle:<br>7 / 16</div>","response":null,"trial_type":"html-keyboard-response","trial_index":24,"time_elapsed":285733,"internal_node_id":"0.0-14.0-1.0","experiment":"calibration","task_version":"1.0","jspsych_version":"6.3.1"},{"puzzle":"../static/img/is3/tf3/tf3_77_M_ss2.jpeg","item_order":[3,2,1,0],"correct":0,"choice":2,"accuracy":0,"rt":3519.3400000134716,"screen_resolution":[768,1366],"minimum_resolution":1,"item_set":3,"item":77,"test_form":3,"distractor":"md","trial_type":"mars","trial_index":25,"time_elapsed":289260,"internal_node_id":"0.0-14.0-2.0","experiment":"calibration","task_version":"1.0","jspsych_version":"6.3.1","browser_interactions":0},{"rt":null,"stimulus":"<div style=\"font-size:24px;\">Loading puzzle:<br>8 / 16</div>","response":null,"trial_type":"html-keyboard-response","trial_index":26,"time_elapsed":290467,"internal_node_id":"0.0-15.0-1.0","experiment":"calibration","task_version":"1.0","jspsych_version":"6.3.1"},{"puzzle":"../static/img/is3/tf3/tf3_58_M_ss1.jpeg","item_order":[0,1,3,2],"correct":0,"choice":3,"accuracy":0,"rt":4406.954999998561,"screen_resolution":[768,1366],"minimum_resolution":1,"item_set":3,"item":58,"test_form":3,"distractor":"md","trial_type":"mars","trial_index":27,"time_elapsed":294882,"internal_node_id":"0.0-15.0-2.0","experiment":"calibration","task_version":"1.0","jspsych_version":"6.3.1","browser_interactions":0},{"rt":null,"stimulus":"<div style=\"font-size:24px;\">Loading puzzle:<br>9 / 16</div>","response":null,"trial_type":"html-keyboard-response","trial_index":28,"time_elapsed":296089,"internal_node_id":"0.0-16.0-1.0","experiment":"calibration","task_version":"1.0","jspsych_version":"6.3.1"},{"puzzle":"../static/img/is3/tf3/tf3_40_M_ss1.jpeg","item_order":[0,2,1,3],"correct":0,"choice":2,"accuracy":0,"rt":21688.469999993686,"screen_resolution":[768,1366],"minimum_resolution":1,"item_set":3,"item":40,"test_form":3,"distractor":"md","trial_type":"mars","trial_index":29,"time_elapsed":317783,"internal_node_id":"0.0-16.0-2.0","experiment":"calibration","task_version":"1.0","jspsych_version":"6.3.1","browser_interactions":0},{"rt":null,"stimulus":"<div style=\"font-size:24px;\">Loading puzzle:<br>10 / 16</div>","response":null,"trial_type":"html-keyboard-response","trial_index":30,"time_elapsed":318991,"internal_node_id":"0.0-17.0-1.0","experiment":"calibration","task_version":"1.0","jspsych_version":"6.3.1"},{"puzzle":"../static/img/is3/tf3/tf3_60_M_ss3.jpeg","item_order":[2,1,3,0],"correct":0,"choice":1,"accuracy":0,"rt":5198.959999994258,"screen_resolution":[768,1366],"minimum_resolution":1,"item_set":3,"item":60,"test_form":3,"distractor":"pd","trial_type":"mars","trial_index":31,"time_elapsed":324198,"internal_node_id":"0.0-17.0-2.0","experiment":"calibration","task_version":"1.0","jspsych_version":"6.3.1","browser_interactions":0},{"rt":null,"stimulus":"<div style=\"font-size:24px;\">Loading puzzle:<br>11 / 16</div>","response":null,"trial_type":"html-keyboard-response","trial_index":32,"time_elapsed":325404,"internal_node_id":"0.0-18.0-1.0","experiment":"calibration","task_version":"1.0","jspsych_version":"6.3.1"},{"puzzle":"../static/img/is3/tf3/tf3_74_M_ss2.jpeg","item_order":[3,2,0,1],"correct":0,"choice":1,"accuracy":0,"rt":3910.780000005616,"screen_resolution":[768,1366],"minimum_resolution":1,"item_set":3,"item":74,"test_form":3,"distractor":"md","trial_type":"mars","trial_index":33,"time_elapsed":329322,"internal_node_id":"0.0-18.0-2.0","experiment":"calibration","task_version":"1.0","jspsych_version":"6.3.1","browser_interactions":0},{"rt":null,"stimulus":"<div style=\"font-size:24px;\">Loading puzzle:<br>12 / 16</div>","response":null,"trial_type":"html-keyboard-response","trial_index":34,"time_elapsed":330529,"internal_node_id":"0.0-19.0-1.0","experiment":"calibration","task_version":"1.0","jspsych_version":"6.3.1"},{"puzzle":"../static/img/is3/tf3/tf3_26_M_ss2.jpeg","item_order":[1,0,2,3],"correct":0,"choice":0,"accuracy":1,"rt":4488.594999987981,"screen_resolution":[768,1366],"minimum_resolution":1,"item_set":3,"item":26,"test_form":3,"distractor":"pd","trial_type":"mars","trial_index":35,"time_elapsed":335024,"internal_node_id":"0.0-19.0-2.0","experiment":"calibration","task_version":"1.0","jspsych_version":"6.3.1","browser_interactions":0},{"rt":null,"stimulus":"<div style=\"font-size:24px;\">Loading puzzle:<br>13 / 16</div>","response":null,"trial_type":"html-keyboard-response","trial_index":36,"time_elapsed":336231,"internal_node_id":"0.0-20.0-1.0","experiment":"calibration","task_version":"1.0","jspsych_version":"6.3.1"},{"puzzle":"../static/img/is3/tf3/tf3_76_M_ss1.jpeg","item_order":[3,0,1,2],"correct":0,"choice":2,"accuracy":0,"rt":3187.4899999966146,"screen_resolution":[768,1366],"minimum_resolution":1,"item_set":3,"item":76,"test_form":3,"distractor":"pd","trial_type":"mars","trial_index":37,"time_elapsed":339427,"internal_node_id":"0.0-20.0-2.0","experiment":"calibration","task_version":"1.0","jspsych_version":"6.3.1","browser_interactions":0},{"rt":null,"stimulus":"<div style=\"font-size:24px;\">Loading puzzle:<br>14 / 16</div>","response":null,"trial_type":"html-keyboard-response","trial_index":38,"time_elapsed":340635,"internal_node_id":"0.0-21.0-1.0","experiment":"calibration","task_version":"1.0","jspsych_version":"6.3.1"},{"puzzle":"../static/img/is3/tf3/tf3_55_M_ss1.jpeg","item_order":[2,1,0,3],"correct":0,"choice":3,"accuracy":0,"rt":9626.269999993383,"screen_resolution":[768,1366],"minimum_resolution":1,"item_set":3,"item":55,"test_form":3,"distractor":"md","trial_type":"mars","trial_index":39,"time_elapsed":350269,"internal_node_id":"0.0-21.0-2.0","experiment":"calibration","task_version":"1.0","jspsych_version":"6.3.1","browser_interactions":0},{"rt":null,"stimulus":"<div style=\"font-size:24px;\">Loading puzzle:<br>15 / 16</div>","response":null,"trial_type":"html-keyboard-response","trial_index":40,"time_elapsed":351476,"internal_node_id":"0.0-22.0-1.0","experiment":"calibration","task_version":"1.0","jspsych_version":"6.3.1"},{"puzzle":"../static/img/is3/tf3/tf3_29_M_ss2.jpeg","item_order":[1,0,3,2],"correct":0,"choice":2,"accuracy":0,"rt":14967.734999998356,"screen_resolution":[768,1366],"minimum_resolution":1,"item_set":3,"item":29,"test_form":3,"distractor":"pd","trial_type":"mars","trial_index":41,"time_elapsed":366452,"internal_node_id":"0.0-22.0-2.0","experiment":"calibration","task_version":"1.0","jspsych_version":"6.3.1","browser_interactions":0},{"rt":null,"stimulus":"<div style=\"font-size:24px;\">Loading puzzle:<br>16 / 16</div>","response":null,"trial_type":"html-keyboard-response","trial_index":42,"time_elapsed":367659,"internal_node_id":"0.0-23.0-1.0","experiment":"calibration","task_version":"1.0","jspsych_version":"6.3.1"},{"puzzle":"../static/img/is3/tf3/tf3_35_M_ss2.jpeg","item_order":[3,1,0,2],"correct":0,"choice":0,"accuracy":1,"rt":13226.630000004661,"screen_resolution":[768,1366],"minimum_resolution":1,"item_set":3,"item":35,"test_form":3,"distractor":"pd","trial_type":"mars","trial_index":43,"time_elapsed":380894,"internal_node_id":"0.0-23.0-2.0","experiment":"calibration","task_version":"1.0","jspsych_version":"6.3.1","browser_interactions":0},{"value":[0,0,0],"trial_type":"call-function","trial_index":44,"time_elapsed":380900,"internal_node_id":"0.0-24.0","experiment":"calibration","task_version":"1.0","jspsych_version":"6.3.1"},{"view_history":[{"page_index":0,"viewing_time":3467.7300000039395}],"rt":3468.8250000035623,"trial_type":"instructions","trial_index":45,"time_elapsed":384374,"internal_node_id":"0.0-25.0","experiment":"calibration","task_version":"1.0","jspsych_version":"6.3.1"},{"rt":21573.4850000008,"responses":{"age":"21","gender-categorical":"Male","gender-free-response":"","ethnicity":"Not Hispanic or Latino","race":["Black or African American","White"],"education":"Some college","free-response":""},"trial_type":"survey-demo","trial_index":46,"time_elapsed":405966,"internal_node_id":"0.0-26.0","experiment":"calibration","task_version":"1.0","jspsych_version":"6.3.1","interactions":"[{\"event\":\"fullscreenenter\",\"trial\":1,\"time\":5804}]"}]