[{"success":true,"timeout":false,"failed_images":[],"failed_audio":[],"failed_video":[],"trial_type":"preload","trial_index":0,"time_elapsed":2770,"internal_node_id":"0.0-0.0","experiment":"calibration","task_version":"1.0","jspsych_version":"6.3.1"},{"success":true,"trial_type":"fullscreen","trial_index":1,"time_elapsed":10917,"internal_node_id":"0.0-1.0","experiment":"calibration","task_version":"1.0","jspsych_version":"6.3.1"},{"view_history":[{"page_index":0,"viewing_time":12650},{"page_index":1,"viewing_time":4285},{"page_index":2,"viewing_time":1856}],"rt":18791,"trial_type":"instructions","trial_index":2,"time_elapsed":29712,"internal_node_id":"0.0-3.0","experiment":"calibration","task_version":"1.0","jspsych_version":"6.3.1"},{"puzzle":"../static/img/practice/pt1_M1.png","item_order":[0,2,1,3],"correct":0,"choice":0,"accuracy":1,"rt":5513,"screen_resolution":[771,1329],"minimum_resolution":1,"item_set":"practice","trial_type":"mars","trial_index":3,"time_elapsed":37232,"internal_node_id":"0.0-4.0-0.0","experiment":"calibration","task_version":"1.0","jspsych_version":"6.3.1"},{"puzzle":"../static/img/practice/pt2_M1.png","item_order":[3,1,2,0],"correct":0,"choice":0,"accuracy":1,"rt":3088,"screen_resolution":[771,1329],"minimum_resolution":1,"item_set":"practice","trial_type":"mars","trial_index":4,"time_elapsed":42327,"internal_node_id":"0.0-5.0-0.0","experiment":"calibration","task_version":"1.0","jspsych_version":"6.3.1"},{"puzzle":"../static/img/practice/pt3_M1.png","item_order":[0,3,2,1],"correct":0,"choice":0,"accuracy":1,"rt":1800,"screen_resolution":[771,1329],"minimum_resolution":1,"item_set":"practice","trial_type":"mars","trial_index":5,"time_elapsed":46137,"internal_node_id":"0.0-6.0-0.0","experiment":"calibration","task_version":"1.0","jspsych_version":"6.3.1"},{"view_history":[{"page_index":0,"viewing_time":1378},{"page_index":1,"viewing_time":6298}],"rt":7676,"trial_type":"instructions","trial_index":6,"time_elapsed":53814,"internal_node_id":"0.0-7.0","experiment":"calibration","task_version":"1.0","jspsych_version":"6.3.1"},{"rt":null,"stimulus":"<div style=\"font-size:24px;\">Loading puzzle:<br>1 / 16</div>","response":null,"trial_type":"html-keyboard-response","trial_index":7,"time_elapsed":55024,"internal_node_id":"0.0-8.0-1.0","experiment":"calibration","task_version":"1.0","jspsych_version":"6.3.1"},{"puzzle":"../static/img/is3/tf3/tf3_22_M_ss1.jpeg","item_order":[3,1,2,0],"correct":0,"choice":0,"accuracy":1,"rt":9997,"screen_resolution":[771,1329],"minimum_resolution":1,"item_set":3,"item":22,"test_form":3,"distractor":"md","trial_type":"mars","trial_index":8,"time_elapsed":65023,"internal_node_id":"0.0-8.0-2.0","experiment":"calibration","task_version":"1.0","jspsych_version":"6.3.1","browser_interactions":0},{"rt":null,"stimulus":"<div style=\"font-size:24px;\">Loading puzzle:<br>2 / 16</div>","response":null,"trial_type":"html-keyboard-response","trial_index":9,"time_elapsed":66231,"internal_node_id":"0.0-9.0-1.0","experiment":"calibration","task_version":"1.0","jspsych_version":"6.3.1"},{"puzzle":"../static/img/is3/tf3/tf3_39_M_ss3.jpeg","item_order":[2,3,0,1],"correct":0,"choice":null,"accuracy":null,"rt":null,"screen_resolution":[771,1329],"minimum_resolution":1,"item_set":3,"item":39,"test_form":3,"distractor":"md","trial_type":"mars","trial_index":10,"time_elapsed":96237,"internal_node_id":"0.0-9.0-2.0","experiment":"calibration","task_version":"1.0","jspsych_version":"6.3.1","browser_interactions":2},{"rt":null,"stimulus":"<div style=\"font-size:24px;\">Loading puzzle:<br>3 / 16</div>","response":null,"trial_type":"html-keyboard-response","trial_index":11,"time_elapsed":97443,"internal_node_id":"0.0-10.0-1.0","experiment":"calibration","task_version":"1.0","jspsych_version":"6.3.1"},{"puzzle":"../static/img/is3/tf3/tf3_50_M_ss2.jpeg","item_order":[0,2,3,1],"correct":0,"choice":0,"accuracy":1,"rt":4427,"screen_resolution":[771,1329],"minimum_resolution":1,"item_set":3,"item":50,"test_form":3,"distractor":"pd","trial_type":"mars","trial_index":12,"time_elapsed":101873,"internal_node_id":"0.0-10.0-2.0","experiment":"calibration","task_version":"1.0","jspsych_version":"6.3.1","browser_interactions":0},{"rt":null,"stimulus":"<div style=\"font-size:24px;\">Loading puzzle:<br>4 / 16</div>","response":null,"trial_type":"html-keyboard-response","trial_index":13,"time_elapsed":103083,"internal_node_id":"0.0-11.0-1.0","experiment":"calibration","task_version":"1.0","jspsych_version":"6.3.1"},{"puzzle":"../static/img/is3/tf3/tf3_71_M_ss2.jpeg","item_order":[1,2,3,0],"correct":0,"choice":0,"accuracy":1,"rt":3921,"screen_resolution":[771,1329],"minimum_resolution":1,"item_set":3,"item":71,"test_form":3,"distractor":"md","trial_type":"mars","trial_index":14,"time_elapsed":107006,"internal_node_id":"0.0-11.0-2.0","experiment":"calibration","task_version":"1.0","jspsych_version":"6.3.1","browser_interactions":0},{"rt":null,"stimulus":"<div style=\"font-size:24px;\">Loading puzzle:<br>5 / 16</div>","response":null,"trial_type":"html-keyboard-response","trial_index":15,"time_elapsed":108220,"internal_node_id":"0.0-12.0-1.0","experiment":"calibration","task_version":"1.0","jspsych_version":"6.3.1"},{"puzzle":"../static/img/is3/tf3/tf3_11_M_ss2.jpeg","item_order":[0,2,3,1],"correct":0,"choice":0,"accuracy":1,"rt":9739,"screen_resolution":[771,1329],"minimum_resolution":1,"item_set":3,"item":11,"test_form":3,"distractor":"pd","trial_type":"mars","trial_index":16,"time_elapsed":117961,"internal_node_id":"0.0-12.0-2.0","experiment":"calibration","task_version":"1.0","jspsych_version":"6.3.1","browser_interactions":0},{"rt":null,"stimulus":"<div style=\"font-size:24px;\">Loading puzzle:<br>6 / 16</div>","response":null,"trial_type":"html-keyboard-response","trial_index":17,"time_elapsed":119168,"internal_node_id":"0.0-13.0-1.0","experiment":"calibration","task_version":"1.0","jspsych_version":"6.3.1"},{"puzzle":"../static/img/is3/tf3/tf3_27_M_ss3.jpeg","item_order":[1,0,3,2],"correct":0,"choice":0,"accuracy":1,"rt":26607,"screen_resolution":[771,1329],"minimum_resolution":1,"item_set":3,"item":27,"test_form":3,"distractor":"pd","trial_type":"mars","trial_index":18,"time_elapsed":145776,"internal_node_id":"0.0-13.0-2.0","experiment":"calibration","task_version":"1.0","jspsych_version":"6.3.1","browser_interactions":0},{"rt":null,"stimulus":"<div style=\"font-size:24px;\">Loading puzzle:<br>7 / 16</div>","response":null,"trial_type":"html-keyboard-response","trial_index":19,"time_elapsed":146983,"internal_node_id":"0.0-14.0-1.0","experiment":"calibration","task_version":"1.0","jspsych_version":"6.3.1"},{"puzzle":"../static/img/is3/tf3/tf3_58_M_ss1.jpeg","item_order":[0,3,1,2],"correct":0,"choice":0,"accuracy":1,"rt":8674,"screen_resolution":[771,1329],"minimum_resolution":1,"item_set":3,"item":58,"test_form":3,"distractor":"pd","trial_type":"mars","trial_index":20,"time_elapsed":155658,"internal_node_id":"0.0-14.0-2.0","experiment":"calibration","task_version":"1.0","jspsych_version":"6.3.1","browser_interactions":0},{"rt":null,"stimulus":"<div style=\"font-size:24px;\">Loading puzzle:<br>8 / 16</div>","response":null,"trial_type":"html-keyboard-response","trial_index":21,"time_elapsed":156859,"internal_node_id":"0.0-15.0-1.0","experiment":"calibration","task_version":"1.0","jspsych_version":"6.3.1"},{"puzzle":"../static/img/is3/tf3/tf3_17_M_ss2.jpeg","item_order":[3,1,2,0],"correct":0,"choice":1,"accuracy":0,"rt":19546,"screen_resolution":[771,1329],"minimum_resolution":1,"item_set":3,"item":17,"test_form":3,"distractor":"md","trial_type":"mars","trial_index":22,"time_elapsed":176408,"internal_node_id":"0.0-15.0-2.0","experiment":"calibration","task_version":"1.0","jspsych_version":"6.3.1","browser_interactions":0},{"rt":null,"stimulus":"<div style=\"font-size:24px;\">Loading puzzle:<br>9 / 16</div>","response":null,"trial_type":"html-keyboard-response","trial_index":23,"time_elapsed":177617,"internal_node_id":"0.0-16.0-1.0","experiment":"calibration","task_version":"1.0","jspsych_version":"6.3.1"},{"puzzle":"../static/img/is3/tf3/tf3_79_M_ss1.jpeg","item_order":[0,2,3,1],"correct":0,"choice":0,"accuracy":1,"rt":22733,"screen_resolution":[771,1329],"minimum_resolution":1,"item_set":3,"item":79,"test_form":3,"distractor":"md","trial_type":"mars","trial_index":24,"time_elapsed":200350,"internal_node_id":"0.0-16.0-2.0","experiment":"calibration","task_version":"1.0","jspsych_version":"6.3.1","browser_interactions":0},{"rt":null,"stimulus":"<div style=\"font-size:24px;\">Loading puzzle:<br>10 / 16</div>","response":null,"trial_type":"html-keyboard-response","trial_index":25,"time_elapsed":201565,"internal_node_id":"0.0-17.0-1.0","experiment":"calibration","task_version":"1.0","jspsych_version":"6.3.1"},{"puzzle":"../static/img/is3/tf3/tf3_23_M_ss2.jpeg","item_order":[1,2,3,0],"correct":0,"choice":0,"accuracy":1,"rt":14092,"screen_resolution":[771,1329],"minimum_resolution":1,"item_set":3,"item":23,"test_form":3,"distractor":"md","trial_type":"mars","trial_index":26,"time_elapsed":215658,"internal_node_id":"0.0-17.0-2.0","experiment":"calibration","task_version":"1.0","jspsych_version":"6.3.1","browser_interactions":0},{"rt":null,"stimulus":"<div style=\"font-size:24px;\">Loading puzzle:<br>11 / 16</div>","response":null,"trial_type":"html-keyboard-response","trial_index":27,"time_elapsed":216861,"internal_node_id":"0.0-18.0-1.0","experiment":"calibration","task_version":"1.0","jspsych_version":"6.3.1"},{"puzzle":"../static/img/is3/tf3/tf3_14_M_ss2.jpeg","item_order":[0,2,1,3],"correct":0,"choice":3,"accuracy":0,"rt":26083,"screen_resolution":[771,1329],"minimum_resolution":1,"item_set":3,"item":14,"test_form":3,"distractor":"md","trial_type":"mars","trial_index":28,"time_elapsed":242946,"internal_node_id":"0.0-18.0-2.0","experiment":"calibration","task_version":"1.0","jspsych_version":"6.3.1","browser_interactions":0},{"rt":null,"stimulus":"<div style=\"font-size:24px;\">Loading puzzle:<br>12 / 16</div>","response":null,"trial_type":"html-keyboard-response","trial_index":29,"time_elapsed":244161,"internal_node_id":"0.0-19.0-1.0","experiment":"calibration","task_version":"1.0","jspsych_version":"6.3.1"},{"puzzle":"../static/img/is3/tf3/tf3_67_M_ss1.jpeg","item_order":[3,0,2,1],"correct":0,"choice":0,"accuracy":1,"rt":20413,"screen_resolution":[771,1198],"minimum_resolution":1,"item_set":3,"item":67,"test_form":3,"distractor":"md","trial_type":"mars","trial_index":30,"time_elapsed":264576,"internal_node_id":"0.0-19.0-2.0","experiment":"calibration","task_version":"1.0","jspsych_version":"6.3.1","browser_interactions":0},{"rt":null,"stimulus":"<div style=\"font-size:24px;\">Loading puzzle:<br>13 / 16</div>","response":null,"trial_type":"html-keyboard-response","trial_index":31,"time_elapsed":265783,"internal_node_id":"0.0-20.0-1.0","experiment":"calibration","task_version":"1.0","jspsych_version":"6.3.1"},{"puzzle":"../static/img/is3/tf3/tf3_75_M_ss3.jpeg","item_order":[3,1,2,0],"correct":0,"choice":1,"accuracy":0,"rt":21308,"screen_resolution":[771,1198],"minimum_resolution":1,"item_set":3,"item":75,"test_form":3,"distractor":"md","trial_type":"mars","trial_index":32,"time_elapsed":287093,"internal_node_id":"0.0-20.0-2.0","experiment":"calibration","task_version":"1.0","jspsych_version":"6.3.1","browser_interactions":0},{"rt":null,"stimulus":"<div style=\"font-size:24px;\">Loading puzzle:<br>14 / 16</div>","response":null,"trial_type":"html-keyboard-response","trial_index":33,"time_elapsed":288308,"internal_node_id":"0.0-21.0-1.0","experiment":"calibration","task_version":"1.0","jspsych_version":"6.3.1"},{"puzzle":"../static/img/is3/tf3/tf3_36_M_ss3.jpeg","item_order":[3,1,2,0],"correct":0,"choice":2,"accuracy":0,"rt":10354,"screen_resolution":[771,1198],"minimum_resolution":1,"item_set":3,"item":36,"test_form":3,"distractor":"md","trial_type":"mars","trial_index":34,"time_elapsed":298664,"internal_node_id":"0.0-21.0-2.0","experiment":"calibration","task_version":"1.0","jspsych_version":"6.3.1","browser_interactions":0},{"rt":null,"stimulus":"<div style=\"font-size:24px;\">Loading puzzle:<br>15 / 16</div>","response":null,"trial_type":"html-keyboard-response","trial_index":35,"time_elapsed":299878,"internal_node_id":"0.0-22.0-1.0","experiment":"calibration","task_version":"1.0","jspsych_version":"6.3.1"},{"puzzle":"../static/img/is3/tf3/tf3_30_M_ss3.jpeg","item_order":[2,0,3,1],"correct":0,"choice":0,"accuracy":1,"rt":19142,"screen_resolution":[771,1198],"minimum_resolution":1,"item_set":3,"item":30,"test_form":3,"distractor":"md","trial_type":"mars","trial_index":36,"time_elapsed":319023,"internal_node_id":"0.0-22.0-2.0","experiment":"calibration","task_version":"1.0","jspsych_version":"6.3.1","browser_interactions":0},{"rt":null,"stimulus":"<div style=\"font-size:24px;\">Loading puzzle:<br>16 / 16</div>","response":null,"trial_type":"html-keyboard-response","trial_index":37,"time_elapsed":320225,"internal_node_id":"0.0-23.0-1.0","experiment":"calibration","task_version":"1.0","jspsych_version":"6.3.1"},{"puzzle":"../static/img/is3/tf3/tf3_35_M_ss2.jpeg","item_order":[1,2,0,3],"correct":0,"choice":0,"accuracy":1,"rt":17036,"screen_resolution":[771,1198],"minimum_resolution":1,"item_set":3,"item":35,"test_form":3,"distractor":"pd","trial_type":"mars","trial_index":38,"time_elapsed":337262,"internal_node_id":"0.0-23.0-2.0","experiment":"calibration","task_version":"1.0","jspsych_version":"6.3.1","browser_interactions":2},{"value":[0,1,0],"trial_type":"call-function","trial_index":39,"time_elapsed":337263,"internal_node_id":"0.0-24.0","experiment":"calibration","task_version":"1.0","jspsych_version":"6.3.1"},{"view_history":[{"page_index":0,"viewing_time":1975}],"rt":1975,"trial_type":"instructions","trial_index":40,"time_elapsed":339238,"internal_node_id":"0.0-25.0","experiment":"calibration","task_version":"1.0","jspsych_version":"6.3.1"},{"rt":17664,"responses":{"age":"43","gender-categorical":"Female","gender-free-response":"","ethnicity":"Not Hispanic or Latino","race":["White"],"education":"Bachelor degree","free-response":""},"trial_type":"survey-demo","trial_index":41,"time_elapsed":356906,"internal_node_id":"0.0-26.0","experiment":"calibration","task_version":"1.0","jspsych_version":"6.3.1","interactions":"[{\"event\":\"focus\",\"trial\":0,\"time\":0},{\"event\":\"fullscreenenter\",\"trial\":1,\"time\":10108},{\"event\":\"fullscreenexit\",\"trial\":2,\"time\":11092},{\"event\":\"blur\",\"trial\":10,\"time\":72618},{\"event\":\"focus\",\"trial\":10,\"time\":96206},{\"event\":\"blur\",\"trial\":38,\"time\":322677},{\"event\":\"focus\",\"trial\":38,\"time\":324032}]"}]