[{"success":true,"timeout":false,"failed_images":[],"failed_audio":[],"failed_video":[],"trial_type":"preload","trial_index":0,"time_elapsed":3723,"internal_node_id":"0.0-0.0","experiment":"calibration","task_version":"1.0","jspsych_version":"6.3.1"},{"success":true,"trial_type":"fullscreen","trial_index":1,"time_elapsed":7672,"internal_node_id":"0.0-1.0","experiment":"calibration","task_version":"1.0","jspsych_version":"6.3.1"},{"view_history":[{"page_index":0,"viewing_time":10493},{"page_index":1,"viewing_time":10911},{"page_index":2,"viewing_time":2542}],"rt":23947,"trial_type":"instructions","trial_index":2,"time_elapsed":31621,"internal_node_id":"0.0-2.0","experiment":"calibration","task_version":"1.0","jspsych_version":"6.3.1"},{"puzzle":"../static/img/practice/pt1_M1.png","item_order":[2,1,3,0],"correct":0,"choice":0,"accuracy":1,"rt":7369,"screen_resolution":[1440,2560],"minimum_resolution":1,"item_set":"practice","trial_type":"mars","trial_index":3,"time_elapsed":40991,"internal_node_id":"0.0-3.0-0.0","experiment":"calibration","task_version":"1.0","jspsych_version":"6.3.1"},{"puzzle":"../static/img/practice/pt2_M1.png","item_order":[2,1,3,0],"correct":0,"choice":0,"accuracy":1,"rt":4194,"screen_resolution":[1440,2560],"minimum_resolution":1,"item_set":"practice","trial_type":"mars","trial_index":4,"time_elapsed":47188,"internal_node_id":"0.0-4.0-0.0","experiment":"calibration","task_version":"1.0","jspsych_version":"6.3.1"},{"puzzle":"../static/img/practice/pt3_M1.png","item_order":[0,1,2,3],"correct":0,"choice":0,"accuracy":1,"rt":2375,"screen_resolution":[1440,2560],"minimum_resolution":1,"item_set":"practice","trial_type":"mars","trial_index":5,"time_elapsed":51566,"internal_node_id":"0.0-5.0-0.0","experiment":"calibration","task_version":"1.0","jspsych_version":"6.3.1"},{"view_history":[{"page_index":0,"viewing_time":2429},{"page_index":1,"viewing_time":10327}],"rt":12756,"trial_type":"instructions","trial_index":6,"time_elapsed":64323,"internal_node_id":"0.0-6.0","experiment":"calibration","task_version":"1.0","jspsych_version":"6.3.1"},{"rt":null,"stimulus":"<div style=\"font-size:24px;\">Loading puzzle:<br>1 / 16</div>","response":null,"trial_type":"html-keyboard-response","trial_index":7,"time_elapsed":65525,"internal_node_id":"0.0-7.0-0.0","experiment":"calibration","task_version":"1.0","jspsych_version":"6.3.1"},{"puzzle":"../static/img/is3/tf1/tf1_47_M_ss1.jpeg","item_order":[0,1,2,3],"correct":0,"choice":0,"accuracy":1,"rt":26976,"screen_resolution":[1440,2560],"minimum_resolution":1,"item_set":3,"item":47,"test_form":1,"distractor":"pd","trial_type":"mars","trial_index":8,"time_elapsed":92503,"internal_node_id":"0.0-7.0-1.0","experiment":"calibration","task_version":"1.0","jspsych_version":"6.3.1","browser_interactions":0},{"rt":null,"stimulus":"<div style=\"font-size:24px;\">Loading puzzle:<br>2 / 16</div>","response":null,"trial_type":"html-keyboard-response","trial_index":9,"time_elapsed":93705,"internal_node_id":"0.0-8.0-0.0","experiment":"calibration","task_version":"1.0","jspsych_version":"6.3.1"},{"puzzle":"../static/img/is3/tf2/tf2_19_M_ss2.jpeg","item_order":[1,2,0,3],"correct":0,"choice":0,"accuracy":1,"rt":14906,"screen_resolution":[1440,2560],"minimum_resolution":1,"item_set":3,"item":19,"test_form":2,"distractor":"md","trial_type":"mars","trial_index":10,"time_elapsed":108612,"internal_node_id":"0.0-8.0-1.0","experiment":"calibration","task_version":"1.0","jspsych_version":"6.3.1","browser_interactions":0},{"rt":null,"stimulus":"<div style=\"font-size:24px;\">Loading puzzle:<br>3 / 16</div>","response":null,"trial_type":"html-keyboard-response","trial_index":11,"time_elapsed":109814,"internal_node_id":"0.0-9.0-0.0","experiment":"calibration","task_version":"1.0","jspsych_version":"6.3.1"},{"puzzle":"../static/img/is3/tf1/tf1_65_M_ss1.jpeg","item_order":[2,3,0,1],"correct":0,"choice":0,"accuracy":1,"rt":13533.999999999985,"screen_resolution":[1440,2560],"minimum_resolution":1,"item_set":3,"item":65,"test_form":1,"distractor":"pd","trial_type":"mars","trial_index":12,"time_elapsed":123349,"internal_node_id":"0.0-9.0-1.0","experiment":"calibration","task_version":"1.0","jspsych_version":"6.3.1","browser_interactions":0},{"rt":null,"stimulus":"<div style=\"font-size:24px;\">Loading puzzle:<br>4 / 16</div>","response":null,"trial_type":"html-keyboard-response","trial_index":13,"time_elapsed":124551,"internal_node_id":"0.0-10.0-0.0","experiment":"calibration","task_version":"1.0","jspsych_version":"6.3.1"},{"puzzle":"../static/img/is3/tf2/tf2_50_M_ss3.jpeg","item_order":[3,2,1,0],"correct":0,"choice":0,"accuracy":1,"rt":10911,"screen_resolution":[1440,2560],"minimum_resolution":1,"item_set":3,"item":50,"test_form":2,"distractor":"md","trial_type":"mars","trial_index":14,"time_elapsed":135464,"internal_node_id":"0.0-10.0-1.0","experiment":"calibration","task_version":"1.0","jspsych_version":"6.3.1","browser_interactions":0},{"rt":null,"stimulus":"<div style=\"font-size:24px;\">Loading puzzle:<br>5 / 16</div>","response":null,"trial_type":"html-keyboard-response","trial_index":15,"time_elapsed":136667,"internal_node_id":"0.0-11.0-0.0","experiment":"calibration","task_version":"1.0","jspsych_version":"6.3.1"},{"puzzle":"../static/img/is3/tf1/tf1_27_M_ss2.jpeg","item_order":[3,1,0,2],"correct":0,"choice":2,"accuracy":0,"rt":11079,"screen_resolution":[1440,2560],"minimum_resolution":1,"item_set":3,"item":27,"test_form":1,"distractor":"pd","trial_type":"mars","trial_index":16,"time_elapsed":147748,"internal_node_id":"0.0-11.0-1.0","experiment":"calibration","task_version":"1.0","jspsych_version":"6.3.1","browser_interactions":0},{"rt":null,"stimulus":"<div style=\"font-size:24px;\">Loading puzzle:<br>6 / 16</div>","response":null,"trial_type":"html-keyboard-response","trial_index":17,"time_elapsed":148950,"internal_node_id":"0.0-12.0-0.0","experiment":"calibration","task_version":"1.0","jspsych_version":"6.3.1"},{"puzzle":"../static/img/is3/tf2/tf2_11_M_ss3.jpeg","item_order":[0,3,1,2],"correct":0,"choice":1,"accuracy":0,"rt":17201,"screen_resolution":[1440,2560],"minimum_resolution":1,"item_set":3,"item":11,"test_form":2,"distractor":"md","trial_type":"mars","trial_index":18,"time_elapsed":166153,"internal_node_id":"0.0-12.0-1.0","experiment":"calibration","task_version":"1.0","jspsych_version":"6.3.1","browser_interactions":0},{"rt":null,"stimulus":"<div style=\"font-size:24px;\">Loading puzzle:<br>7 / 16</div>","response":null,"trial_type":"html-keyboard-response","trial_index":19,"time_elapsed":167354,"internal_node_id":"0.0-13.0-0.0","experiment":"calibration","task_version":"1.0","jspsych_version":"6.3.1"},{"puzzle":"../static/img/is3/tf2/tf2_58_M_ss2.jpeg","item_order":[2,3,1,0],"correct":0,"choice":1,"accuracy":0,"rt":6907,"screen_resolution":[1440,2560],"minimum_resolution":1,"item_set":3,"item":58,"test_form":2,"distractor":"md","trial_type":"mars","trial_index":20,"time_elapsed":174263,"internal_node_id":"0.0-13.0-1.0","experiment":"calibration","task_version":"1.0","jspsych_version":"6.3.1","browser_interactions":0},{"rt":null,"stimulus":"<div style=\"font-size:24px;\">Loading puzzle:<br>8 / 16</div>","response":null,"trial_type":"html-keyboard-response","trial_index":21,"time_elapsed":175464,"internal_node_id":"0.0-14.0-0.0","experiment":"calibration","task_version":"1.0","jspsych_version":"6.3.1"},{"puzzle":"../static/img/is3/tf1/tf1_77_M_ss1.jpeg","item_order":[0,2,1,3],"correct":0,"choice":0,"accuracy":1,"rt":16865,"screen_resolution":[1440,2560],"minimum_resolution":1,"item_set":3,"item":77,"test_form":1,"distractor":"pd","trial_type":"mars","trial_index":22,"time_elapsed":192331,"internal_node_id":"0.0-14.0-1.0","experiment":"calibration","task_version":"1.0","jspsych_version":"6.3.1","browser_interactions":0},{"rt":null,"stimulus":"<div style=\"font-size:24px;\">Loading puzzle:<br>9 / 16</div>","response":null,"trial_type":"html-keyboard-response","trial_index":23,"time_elapsed":193532,"internal_node_id":"0.0-15.0-0.0","experiment":"calibration","task_version":"1.0","jspsych_version":"6.3.1"},{"puzzle":"../static/img/is3/tf1/tf1_79_M_ss3.jpeg","item_order":[2,0,1,3],"correct":0,"choice":2,"accuracy":0,"rt":14185,"screen_resolution":[1440,2560],"minimum_resolution":1,"item_set":3,"item":79,"test_form":1,"distractor":"pd","trial_type":"mars","trial_index":24,"time_elapsed":207719,"internal_node_id":"0.0-15.0-1.0","experiment":"calibration","task_version":"1.0","jspsych_version":"6.3.1","browser_interactions":0},{"rt":null,"stimulus":"<div style=\"font-size:24px;\">Loading puzzle:<br>10 / 16</div>","response":null,"trial_type":"html-keyboard-response","trial_index":25,"time_elapsed":208920,"internal_node_id":"0.0-16.0-0.0","experiment":"calibration","task_version":"1.0","jspsych_version":"6.3.1"},{"puzzle":"../static/img/is3/tf2/tf2_23_M_ss3.jpeg","item_order":[1,0,2,3],"correct":0,"choice":3,"accuracy":0,"rt":14760,"screen_resolution":[1440,2560],"minimum_resolution":1,"item_set":3,"item":23,"test_form":2,"distractor":"md","trial_type":"mars","trial_index":26,"time_elapsed":223682,"internal_node_id":"0.0-16.0-1.0","experiment":"calibration","task_version":"1.0","jspsych_version":"6.3.1","browser_interactions":0},{"rt":null,"stimulus":"<div style=\"font-size:24px;\">Loading puzzle:<br>11 / 16</div>","response":null,"trial_type":"html-keyboard-response","trial_index":27,"time_elapsed":224884,"internal_node_id":"0.0-17.0-0.0","experiment":"calibration","task_version":"1.0","jspsych_version":"6.3.1"},{"puzzle":"../static/img/is3/tf2/tf2_14_M_ss3.jpeg","item_order":[3,1,0,2],"correct":0,"choice":1,"accuracy":0,"rt":15050,"screen_resolution":[1440,2560],"minimum_resolution":1,"item_set":3,"item":14,"test_form":2,"distractor":"md","trial_type":"mars","trial_index":28,"time_elapsed":239937,"internal_node_id":"0.0-17.0-1.0","experiment":"calibration","task_version":"1.0","jspsych_version":"6.3.1","browser_interactions":0},{"rt":null,"stimulus":"<div style=\"font-size:24px;\">Loading puzzle:<br>12 / 16</div>","response":null,"trial_type":"html-keyboard-response","trial_index":29,"time_elapsed":241138,"internal_node_id":"0.0-18.0-0.0","experiment":"calibration","task_version":"1.0","jspsych_version":"6.3.1"},{"puzzle":"../static/img/is3/tf1/tf1_67_M_ss3.jpeg","item_order":[1,3,2,0],"correct":0,"choice":0,"accuracy":1,"rt":11823,"screen_resolution":[1440,2560],"minimum_resolution":1,"item_set":3,"item":67,"test_form":1,"distractor":"pd","trial_type":"mars","trial_index":30,"time_elapsed":252963,"internal_node_id":"0.0-18.0-1.0","experiment":"calibration","task_version":"1.0","jspsych_version":"6.3.1","browser_interactions":0},{"rt":null,"stimulus":"<div style=\"font-size:24px;\">Loading puzzle:<br>13 / 16</div>","response":null,"trial_type":"html-keyboard-response","trial_index":31,"time_elapsed":254165,"internal_node_id":"0.0-19.0-0.0","experiment":"calibration","task_version":"1.0","jspsych_version":"6.3.1"},{"puzzle":"../static/img/is3/tf1/tf1_75_M_ss2.jpeg","item_order":[3,1,0,2],"correct":0,"choice":0,"accuracy":1,"rt":6311,"screen_resolution":[1440,2560],"minimum_resolution":1,"item_set":3,"item":75,"test_form":1,"distractor":"pd","trial_type":"mars","trial_index":32,"time_elapsed":260478,"internal_node_id":"0.0-19.0-1.0","experiment":"calibration","task_version":"1.0","jspsych_version":"6.3.1","browser_interactions":0},{"rt":null,"stimulus":"<div style=\"font-size:24px;\">Loading puzzle:<br>14 / 16</div>","response":null,"trial_type":"html-keyboard-response","trial_index":33,"time_elapsed":261679,"internal_node_id":"0.0-20.0-0.0","experiment":"calibration","task_version":"1.0","jspsych_version":"6.3.1"},{"puzzle":"../static/img/is3/tf2/tf2_76_M_ss2.jpeg","item_order":[2,1,3,0],"correct":0,"choice":1,"accuracy":0,"rt":9111.999999999942,"screen_resolution":[1440,2560],"minimum_resolution":1,"item_set":3,"item":76,"test_form":2,"distractor":"md","trial_type":"mars","trial_index":34,"time_elapsed":270793,"internal_node_id":"0.0-20.0-1.0","experiment":"calibration","task_version":"1.0","jspsych_version":"6.3.1","browser_interactions":0},{"rt":null,"stimulus":"<div style=\"font-size:24px;\">Loading puzzle:<br>15 / 16</div>","response":null,"trial_type":"html-keyboard-response","trial_index":35,"time_elapsed":271995,"internal_node_id":"0.0-21.0-0.0","experiment":"calibration","task_version":"1.0","jspsych_version":"6.3.1"},{"puzzle":"../static/img/is3/tf1/tf1_45_M_ss2.jpeg","item_order":[1,3,0,2],"correct":0,"choice":0,"accuracy":1,"rt":14388,"screen_resolution":[1440,2560],"minimum_resolution":1,"item_set":3,"item":45,"test_form":1,"distractor":"pd","trial_type":"mars","trial_index":36,"time_elapsed":286385,"internal_node_id":"0.0-21.0-1.0","experiment":"calibration","task_version":"1.0","jspsych_version":"6.3.1","browser_interactions":0},{"rt":null,"stimulus":"<div style=\"font-size:24px;\">Loading puzzle:<br>16 / 16</div>","response":null,"trial_type":"html-keyboard-response","trial_index":37,"time_elapsed":287586,"internal_node_id":"0.0-22.0-0.0","experiment":"calibration","task_version":"1.0","jspsych_version":"6.3.1"},{"puzzle":"../static/img/is3/tf2/tf2_29_M_ss3.jpeg","item_order":[3,1,0,2],"correct":0,"choice":0,"accuracy":1,"rt":5971,"screen_resolution":[1440,2560],"minimum_resolution":1,"item_set":3,"item":29,"test_form":2,"distractor":"md","trial_type":"mars","trial_index":38,"time_elapsed":293562,"internal_node_id":"0.0-22.0-1.0","experiment":"calibration","task_version":"1.0","jspsych_version":"6.3.1","browser_interactions":0},{"value":[0,0,0],"trial_type":"call-function","trial_index":39,"time_elapsed":293564,"internal_node_id":"0.0-23.0","experiment":"calibration","task_version":"1.0","jspsych_version":"6.3.1"},{"view_history":[{"page_index":0,"viewing_time":2662}],"rt":2662,"trial_type":"instructions","trial_index":40,"time_elapsed":296227,"internal_node_id":"0.0-24.0","experiment":"calibration","task_version":"1.0","jspsych_version":"6.3.1"},{"rt":38532,"responses":{"age":"34","gender-categorical":"Female","gender-free-response":"","ethnicity":"Not Hispanic or Latino","race":["White"],"education":"Associate degree","free-response":"my eyes hurt, there were so many colors and patterns happening!"},"trial_type":"survey-demo","trial_index":41,"time_elapsed":334759,"internal_node_id":"0.0-25.0","experiment":"calibration","task_version":"1.0","jspsych_version":"6.3.1","interactions":"[{\"event\":\"fullscreenenter\",\"trial\":1,\"time\":6740}]"}]