[{"success":true,"timeout":false,"failed_images":[],"failed_audio":[],"failed_video":[],"trial_type":"preload","trial_index":0,"time_elapsed":27326,"internal_node_id":"0.0-0.0","experiment":"calibration","task_version":"1.0","jspsych_version":"6.3.1"},{"success":true,"trial_type":"fullscreen","trial_index":1,"time_elapsed":40949,"internal_node_id":"0.0-1.0","experiment":"calibration","task_version":"1.0","jspsych_version":"6.3.1"},{"view_history":[{"page_index":0,"viewing_time":1678},{"page_index":1,"viewing_time":738},{"page_index":2,"viewing_time":950}],"rt":3366,"trial_type":"instructions","trial_index":2,"time_elapsed":44319,"internal_node_id":"0.0-2.0","experiment":"calibration","task_version":"1.0","jspsych_version":"6.3.1"},{"puzzle":"../static/img/practice/pt1_M1.png","item_order":[0,2,3,1],"correct":0,"choice":0,"accuracy":1,"rt":2256,"screen_resolution":[637,1600],"minimum_resolution":1,"item_set":"practice","trial_type":"mars","trial_index":3,"time_elapsed":48578,"internal_node_id":"0.0-3.0-0.0","experiment":"calibration","task_version":"1.0","jspsych_version":"6.3.1"},{"puzzle":"../static/img/practice/pt2_M1.png","item_order":[3,1,2,0],"correct":0,"choice":0,"accuracy":1,"rt":2505,"screen_resolution":[637,1600],"minimum_resolution":1,"item_set":"practice","trial_type":"mars","trial_index":4,"time_elapsed":53085,"internal_node_id":"0.0-4.0-0.0","experiment":"calibration","task_version":"1.0","jspsych_version":"6.3.1"},{"puzzle":"../static/img/practice/pt3_M1.png","item_order":[2,0,1,3],"correct":0,"choice":0,"accuracy":1,"rt":16196,"screen_resolution":[637,1600],"minimum_resolution":1,"item_set":"practice","trial_type":"mars","trial_index":5,"time_elapsed":71292,"internal_node_id":"0.0-5.0-0.0","experiment":"calibration","task_version":"1.0","jspsych_version":"6.3.1"},{"view_history":[{"page_index":0,"viewing_time":1640774},{"page_index":1,"viewing_time":1655}],"rt":1642429,"trial_type":"instructions","trial_index":6,"time_elapsed":1713727,"internal_node_id":"0.0-6.0","experiment":"calibration","task_version":"1.0","jspsych_version":"6.3.1"},{"rt":null,"stimulus":"<div style=\"font-size:24px;\">Loading puzzle:<br>1 / 16</div>","response":null,"trial_type":"html-keyboard-response","trial_index":7,"time_elapsed":1714937,"internal_node_id":"0.0-7.0-0.0","experiment":"calibration","task_version":"1.0","jspsych_version":"6.3.1"},{"puzzle":"../static/img/is3/tf1/tf1_25_M_ss3.jpeg","item_order":[1,2,0,3],"correct":0,"choice":0,"accuracy":1,"rt":8868,"screen_resolution":[637,1600],"minimum_resolution":1,"item_set":3,"item":25,"test_form":1,"distractor":"pd","trial_type":"mars","trial_index":8,"time_elapsed":1723809,"internal_node_id":"0.0-7.0-1.0","experiment":"calibration","task_version":"1.0","jspsych_version":"6.3.1","browser_interactions":0},{"rt":null,"stimulus":"<div style=\"font-size:24px;\">Loading puzzle:<br>2 / 16</div>","response":null,"trial_type":"html-keyboard-response","trial_index":9,"time_elapsed":1725009,"internal_node_id":"0.0-8.0-0.0","experiment":"calibration","task_version":"1.0","jspsych_version":"6.3.1"},{"puzzle":"../static/img/is3/tf2/tf2_22_M_ss2.jpeg","item_order":[3,2,1,0],"correct":0,"choice":0,"accuracy":1,"rt":5801,"screen_resolution":[637,1600],"minimum_resolution":1,"item_set":3,"item":22,"test_form":2,"distractor":"pd","trial_type":"mars","trial_index":10,"time_elapsed":1730813,"internal_node_id":"0.0-8.0-1.0","experiment":"calibration","task_version":"1.0","jspsych_version":"6.3.1","browser_interactions":0},{"rt":null,"stimulus":"<div style=\"font-size:24px;\">Loading puzzle:<br>3 / 16</div>","response":null,"trial_type":"html-keyboard-response","trial_index":11,"time_elapsed":1732015,"internal_node_id":"0.0-9.0-0.0","experiment":"calibration","task_version":"1.0","jspsych_version":"6.3.1"},{"puzzle":"../static/img/is3/tf2/tf2_51_M_ss1.jpeg","item_order":[2,0,1,3],"correct":0,"choice":0,"accuracy":1,"rt":14633,"screen_resolution":[637,1600],"minimum_resolution":1,"item_set":3,"item":51,"test_form":2,"distractor":"md","trial_type":"mars","trial_index":12,"time_elapsed":1746652,"internal_node_id":"0.0-9.0-1.0","experiment":"calibration","task_version":"1.0","jspsych_version":"6.3.1","browser_interactions":2},{"rt":null,"stimulus":"<div style=\"font-size:24px;\">Loading puzzle:<br>4 / 16</div>","response":null,"trial_type":"html-keyboard-response","trial_index":13,"time_elapsed":1747865,"internal_node_id":"0.0-10.0-0.0","experiment":"calibration","task_version":"1.0","jspsych_version":"6.3.1"},{"puzzle":"../static/img/is3/tf1/tf1_70_M_ss3.jpeg","item_order":[0,1,2,3],"correct":0,"choice":2,"accuracy":0,"rt":8621,"screen_resolution":[637,1600],"minimum_resolution":1,"item_set":3,"item":70,"test_form":1,"distractor":"md","trial_type":"mars","trial_index":14,"time_elapsed":1756490,"internal_node_id":"0.0-10.0-1.0","experiment":"calibration","task_version":"1.0","jspsych_version":"6.3.1","browser_interactions":0},{"rt":null,"stimulus":"<div style=\"font-size:24px;\">Loading puzzle:<br>5 / 16</div>","response":null,"trial_type":"html-keyboard-response","trial_index":15,"time_elapsed":1757699,"internal_node_id":"0.0-11.0-0.0","experiment":"calibration","task_version":"1.0","jspsych_version":"6.3.1"},{"puzzle":"../static/img/is3/tf1/tf1_27_M_ss2.jpeg","item_order":[0,1,2,3],"correct":0,"choice":2,"accuracy":0,"rt":15091,"screen_resolution":[637,1600],"minimum_resolution":1,"item_set":3,"item":27,"test_form":1,"distractor":"pd","trial_type":"mars","trial_index":16,"time_elapsed":1772792,"internal_node_id":"0.0-11.0-1.0","experiment":"calibration","task_version":"1.0","jspsych_version":"6.3.1","browser_interactions":2},{"rt":null,"stimulus":"<div style=\"font-size:24px;\">Loading puzzle:<br>6 / 16</div>","response":null,"trial_type":"html-keyboard-response","trial_index":17,"time_elapsed":1774007,"internal_node_id":"0.0-12.0-0.0","experiment":"calibration","task_version":"1.0","jspsych_version":"6.3.1"},{"puzzle":"../static/img/is3/tf2/tf2_18_M_ss1.jpeg","item_order":[2,3,1,0],"correct":0,"choice":2,"accuracy":0,"rt":13439,"screen_resolution":[637,1600],"minimum_resolution":1,"item_set":3,"item":18,"test_form":2,"distractor":"pd","trial_type":"mars","trial_index":18,"time_elapsed":1787448,"internal_node_id":"0.0-12.0-1.0","experiment":"calibration","task_version":"1.0","jspsych_version":"6.3.1","browser_interactions":2},{"rt":null,"stimulus":"<div style=\"font-size:24px;\">Loading puzzle:<br>7 / 16</div>","response":null,"trial_type":"html-keyboard-response","trial_index":19,"time_elapsed":1788660,"internal_node_id":"0.0-13.0-0.0","experiment":"calibration","task_version":"1.0","jspsych_version":"6.3.1"},{"puzzle":"../static/img/is3/tf1/tf1_17_M_ss1.jpeg","item_order":[2,0,3,1],"correct":0,"choice":null,"accuracy":null,"rt":null,"screen_resolution":[637,1600],"minimum_resolution":1,"item_set":3,"item":17,"test_form":1,"distractor":"md","trial_type":"mars","trial_index":20,"time_elapsed":1818682,"internal_node_id":"0.0-13.0-1.0","experiment":"calibration","task_version":"1.0","jspsych_version":"6.3.1","browser_interactions":1},{"rt":null,"stimulus":"<div style=\"font-size:24px;\">Loading puzzle:<br>8 / 16</div>","response":null,"trial_type":"html-keyboard-response","trial_index":21,"time_elapsed":1819888,"internal_node_id":"0.0-14.0-0.0","experiment":"calibration","task_version":"1.0","jspsych_version":"6.3.1"},{"puzzle":"../static/img/is3/tf2/tf2_69_M_ss1.jpeg","item_order":[1,2,0,3],"correct":0,"choice":null,"accuracy":null,"rt":null,"screen_resolution":[637,1600],"minimum_resolution":1,"item_set":3,"item":69,"test_form":2,"distractor":"md","trial_type":"mars","trial_index":22,"time_elapsed":1849890,"internal_node_id":"0.0-14.0-1.0","experiment":"calibration","task_version":"1.0","jspsych_version":"6.3.1","browser_interactions":0},{"rt":null,"stimulus":"<div style=\"font-size:24px;\">Loading puzzle:<br>9 / 16</div>","response":null,"trial_type":"html-keyboard-response","trial_index":23,"time_elapsed":1851091,"internal_node_id":"0.0-15.0-0.0","experiment":"calibration","task_version":"1.0","jspsych_version":"6.3.1"},{"puzzle":"../static/img/is3/tf2/tf2_42_M_ss1.jpeg","item_order":[0,2,3,1],"correct":0,"choice":3,"accuracy":0,"rt":27482,"screen_resolution":[637,1600],"minimum_resolution":1,"item_set":3,"item":42,"test_form":2,"distractor":"md","trial_type":"mars","trial_index":24,"time_elapsed":1878576,"internal_node_id":"0.0-15.0-1.0","experiment":"calibration","task_version":"1.0","jspsych_version":"6.3.1","browser_interactions":1},{"rt":null,"stimulus":"<div style=\"font-size:24px;\">Loading puzzle:<br>10 / 16</div>","response":null,"trial_type":"html-keyboard-response","trial_index":25,"time_elapsed":1879786,"internal_node_id":"0.0-16.0-0.0","experiment":"calibration","task_version":"1.0","jspsych_version":"6.3.1"},{"puzzle":"../static/img/is3/tf1/tf1_60_M_ss2.jpeg","item_order":[1,0,3,2],"correct":0,"choice":0,"accuracy":1,"rt":1185,"screen_resolution":[637,1600],"minimum_resolution":1,"item_set":3,"item":60,"test_form":1,"distractor":"md","trial_type":"mars","trial_index":26,"time_elapsed":1880972,"internal_node_id":"0.0-16.0-1.0","experiment":"calibration","task_version":"1.0","jspsych_version":"6.3.1","browser_interactions":0},{"rt":null,"stimulus":"<div style=\"font-size:24px;\">Loading puzzle:<br>11 / 16</div>","response":null,"trial_type":"html-keyboard-response","trial_index":27,"time_elapsed":1882174,"internal_node_id":"0.0-17.0-0.0","experiment":"calibration","task_version":"1.0","jspsych_version":"6.3.1"},{"puzzle":"../static/img/is3/tf2/tf2_80_M_ss3.jpeg","item_order":[0,1,2,3],"correct":0,"choice":1,"accuracy":0,"rt":8444,"screen_resolution":[637,1600],"minimum_resolution":1,"item_set":3,"item":80,"test_form":2,"distractor":"md","trial_type":"mars","trial_index":28,"time_elapsed":1890621,"internal_node_id":"0.0-17.0-1.0","experiment":"calibration","task_version":"1.0","jspsych_version":"6.3.1","browser_interactions":0},{"rt":null,"stimulus":"<div style=\"font-size:24px;\">Loading puzzle:<br>12 / 16</div>","response":null,"trial_type":"html-keyboard-response","trial_index":29,"time_elapsed":1891822,"internal_node_id":"0.0-18.0-0.0","experiment":"calibration","task_version":"1.0","jspsych_version":"6.3.1"},{"puzzle":"../static/img/is3/tf1/tf1_74_M_ss1.jpeg","item_order":[3,1,2,0],"correct":0,"choice":1,"accuracy":0,"rt":8476,"screen_resolution":[637,1600],"minimum_resolution":1,"item_set":3,"item":74,"test_form":1,"distractor":"md","trial_type":"mars","trial_index":30,"time_elapsed":1900302,"internal_node_id":"0.0-18.0-1.0","experiment":"calibration","task_version":"1.0","jspsych_version":"6.3.1","browser_interactions":0},{"rt":null,"stimulus":"<div style=\"font-size:24px;\">Loading puzzle:<br>13 / 16</div>","response":null,"trial_type":"html-keyboard-response","trial_index":31,"time_elapsed":1901510,"internal_node_id":"0.0-19.0-0.0","experiment":"calibration","task_version":"1.0","jspsych_version":"6.3.1"},{"puzzle":"../static/img/is3/tf1/tf1_55_M_ss3.jpeg","item_order":[0,3,1,2],"correct":0,"choice":2,"accuracy":0,"rt":7343,"screen_resolution":[637,1600],"minimum_resolution":1,"item_set":3,"item":55,"test_form":1,"distractor":"pd","trial_type":"mars","trial_index":32,"time_elapsed":1908855,"internal_node_id":"0.0-19.0-1.0","experiment":"calibration","task_version":"1.0","jspsych_version":"6.3.1","browser_interactions":0},{"rt":null,"stimulus":"<div style=\"font-size:24px;\">Loading puzzle:<br>14 / 16</div>","response":null,"trial_type":"html-keyboard-response","trial_index":33,"time_elapsed":1910056,"internal_node_id":"0.0-20.0-0.0","experiment":"calibration","task_version":"1.0","jspsych_version":"6.3.1"},{"puzzle":"../static/img/is3/tf2/tf2_46_M_ss2.jpeg","item_order":[3,0,2,1],"correct":0,"choice":0,"accuracy":1,"rt":2703,"screen_resolution":[637,1600],"minimum_resolution":1,"item_set":3,"item":46,"test_form":2,"distractor":"md","trial_type":"mars","trial_index":34,"time_elapsed":1912761,"internal_node_id":"0.0-20.0-1.0","experiment":"calibration","task_version":"1.0","jspsych_version":"6.3.1","browser_interactions":0},{"rt":null,"stimulus":"<div style=\"font-size:24px;\">Loading puzzle:<br>15 / 16</div>","response":null,"trial_type":"html-keyboard-response","trial_index":35,"time_elapsed":1913975,"internal_node_id":"0.0-21.0-0.0","experiment":"calibration","task_version":"1.0","jspsych_version":"6.3.1"},{"puzzle":"../static/img/is3/tf2/tf2_24_M_ss1.jpeg","item_order":[0,3,1,2],"correct":0,"choice":1,"accuracy":0,"rt":8439,"screen_resolution":[637,1600],"minimum_resolution":1,"item_set":3,"item":24,"test_form":2,"distractor":"md","trial_type":"mars","trial_index":36,"time_elapsed":1922416,"internal_node_id":"0.0-21.0-1.0","experiment":"calibration","task_version":"1.0","jspsych_version":"6.3.1","browser_interactions":0},{"rt":null,"stimulus":"<div style=\"font-size:24px;\">Loading puzzle:<br>16 / 16</div>","response":null,"trial_type":"html-keyboard-response","trial_index":37,"time_elapsed":1923625,"internal_node_id":"0.0-22.0-0.0","experiment":"calibration","task_version":"1.0","jspsych_version":"6.3.1"},{"puzzle":"../static/img/is3/tf1/tf1_35_M_ss1.jpeg","item_order":[1,3,0,2],"correct":0,"choice":0,"accuracy":1,"rt":11431,"screen_resolution":[637,1600],"minimum_resolution":1,"item_set":3,"item":35,"test_form":1,"distractor":"md","trial_type":"mars","trial_index":38,"time_elapsed":1935057,"internal_node_id":"0.0-22.0-1.0","experiment":"calibration","task_version":"1.0","jspsych_version":"6.3.1","browser_interactions":0},{"value":[2,2,0],"trial_type":"call-function","trial_index":39,"time_elapsed":1935059,"internal_node_id":"0.0-23.0","experiment":"calibration","task_version":"1.0","jspsych_version":"6.3.1"},{"view_history":[{"page_index":0,"viewing_time":2635}],"rt":2635,"trial_type":"instructions","trial_index":40,"time_elapsed":1937695,"internal_node_id":"0.0-24.0","experiment":"calibration","task_version":"1.0","jspsych_version":"6.3.1"},{"rt":80380,"responses":{"age":"39","gender-categorical":"Male","gender-free-response":"","ethnicity":"Not Hispanic or Latino","race":["White"],"education":"Master degree or higher","free-response":"nice survey"},"trial_type":"survey-demo","trial_index":41,"time_elapsed":2018080,"internal_node_id":"0.0-25.0","experiment":"calibration","task_version":"1.0","jspsych_version":"6.3.1","interactions":"[{\"event\":\"focus\",\"trial\":0,\"time\":7},{\"event\":\"blur\",\"trial\":0,\"time\":12333},{\"event\":\"focus\",\"trial\":0,\"time\":19895},{\"event\":\"blur\",\"trial\":0,\"time\":20266},{\"event\":\"focus\",\"trial\":1,\"time\":38980},{\"event\":\"fullscreenenter\",\"trial\":1,\"time\":40155},{\"event\":\"blur\",\"trial\":2,\"time\":41105},{\"event\":\"focus\",\"trial\":2,\"time\":41436},{\"event\":\"fullscreenexit\",\"trial\":2,\"time\":41440},{\"event\":\"blur\",\"trial\":6,\"time\":78508},{\"event\":\"focus\",\"trial\":6,\"time\":192362},{\"event\":\"blur\",\"trial\":6,\"time\":194037},{\"event\":\"focus\",\"trial\":6,\"time\":209633},{\"event\":\"blur\",\"trial\":6,\"time\":212294},{\"event\":\"focus\",\"trial\":6,\"time\":251127},{\"event\":\"blur\",\"trial\":6,\"time\":258036},{\"event\":\"focus\",\"trial\":6,\"time\":949758},{\"event\":\"blur\",\"trial\":6,\"time\":951983},{\"event\":\"focus\",\"trial\":6,\"time\":953173},{\"event\":\"blur\",\"trial\":6,\"time\":954637},{\"event\":\"focus\",\"trial\":6,\"time\":1702659},{\"event\":\"blur\",\"trial\":6,\"time\":1703187},{\"event\":\"focus\",\"trial\":6,\"time\":1710722},{\"event\":\"blur\",\"trial\":12,\"time\":1732940},{\"event\":\"focus\",\"trial\":12,\"time\":1742275},{\"event\":\"blur\",\"trial\":16,\"time\":1758701},{\"event\":\"focus\",\"trial\":16,\"time\":1765325},{\"event\":\"blur\",\"trial\":18,\"time\":1775094},{\"event\":\"focus\",\"trial\":18,\"time\":1778605},{\"event\":\"blur\",\"trial\":20,\"time\":1789914},{\"event\":\"focus\",\"trial\":24,\"time\":1875292},{\"event\":\"blur\",\"trial\":41,\"time\":1940894},{\"event\":\"focus\",\"trial\":41,\"time\":1995223}]"}]