[{"success":true,"timeout":false,"failed_images":[],"failed_audio":[],"failed_video":[],"trial_type":"preload","trial_index":0,"time_elapsed":2506,"internal_node_id":"0.0-0.0","experiment":"calibration","task_version":"1.0","jspsych_version":"6.3.1"},{"success":true,"trial_type":"fullscreen","trial_index":1,"time_elapsed":7903,"internal_node_id":"0.0-1.0","experiment":"calibration","task_version":"1.0","jspsych_version":"6.3.1"},{"view_history":[{"page_index":0,"viewing_time":32628.600000000093},{"page_index":1,"viewing_time":4388.300000000047},{"page_index":2,"viewing_time":1640.5}],"rt":38658.80000000005,"trial_type":"instructions","trial_index":2,"time_elapsed":46572,"internal_node_id":"0.0-3.0","experiment":"calibration","task_version":"1.0","jspsych_version":"6.3.1"},{"puzzle":"../static/img/practice/pt1_M1.png","item_order":[3,2,0,1],"correct":0,"choice":0,"accuracy":1,"rt":10089.800000000047,"screen_resolution":[768,1366],"minimum_resolution":1,"item_set":"practice","trial_type":"mars","trial_index":3,"time_elapsed":58670,"internal_node_id":"0.0-4.0-0.0","experiment":"calibration","task_version":"1.0","jspsych_version":"6.3.1"},{"puzzle":"../static/img/practice/pt2_M1.png","item_order":[2,3,1,0],"correct":0,"choice":0,"accuracy":1,"rt":4357.59999999986,"screen_resolution":[768,1366],"minimum_resolution":1,"item_set":"practice","trial_type":"mars","trial_index":4,"time_elapsed":65039,"internal_node_id":"0.0-5.0-0.0","experiment":"calibration","task_version":"1.0","jspsych_version":"6.3.1"},{"puzzle":"../static/img/practice/pt3_M1.png","item_order":[3,1,2,0],"correct":0,"choice":0,"accuracy":1,"rt":1752.5999999998603,"screen_resolution":[768,1366],"minimum_resolution":1,"item_set":"practice","trial_type":"mars","trial_index":5,"time_elapsed":68806,"internal_node_id":"0.0-6.0-0.0","experiment":"calibration","task_version":"1.0","jspsych_version":"6.3.1"},{"view_history":[{"page_index":0,"viewing_time":4325.100000000093},{"page_index":1,"viewing_time":2864.899999999907}],"rt":7190.199999999953,"trial_type":"instructions","trial_index":6,"time_elapsed":75999,"internal_node_id":"0.0-7.0","experiment":"calibration","task_version":"1.0","jspsych_version":"6.3.1"},{"rt":null,"stimulus":"<div style=\"font-size:24px;\">Loading puzzle:<br>1 / 16</div>","response":null,"trial_type":"html-keyboard-response","trial_index":7,"time_elapsed":77206,"internal_node_id":"0.0-8.0-1.0","experiment":"calibration","task_version":"1.0","jspsych_version":"6.3.1"},{"puzzle":"../static/img/is3/tf3/tf3_19_M_ss1.jpeg","item_order":[3,1,0,2],"correct":0,"choice":0,"accuracy":1,"rt":7929.700000000186,"screen_resolution":[768,1366],"minimum_resolution":1,"item_set":3,"item":19,"test_form":3,"distractor":"pd","trial_type":"mars","trial_index":8,"time_elapsed":85149,"internal_node_id":"0.0-8.0-2.0","experiment":"calibration","task_version":"1.0","jspsych_version":"6.3.1","browser_interactions":0},{"rt":null,"stimulus":"<div style=\"font-size:24px;\">Loading puzzle:<br>2 / 16</div>","response":null,"trial_type":"html-keyboard-response","trial_index":9,"time_elapsed":86358,"internal_node_id":"0.0-9.0-1.0","experiment":"calibration","task_version":"1.0","jspsych_version":"6.3.1"},{"puzzle":"../static/img/is3/tf3/tf3_28_M_ss1.jpeg","item_order":[0,2,3,1],"correct":0,"choice":0,"accuracy":1,"rt":18145,"screen_resolution":[768,1366],"minimum_resolution":1,"item_set":3,"item":28,"test_form":3,"distractor":"pd","trial_type":"mars","trial_index":10,"time_elapsed":104513,"internal_node_id":"0.0-9.0-2.0","experiment":"calibration","task_version":"1.0","jspsych_version":"6.3.1","browser_interactions":0},{"rt":null,"stimulus":"<div style=\"font-size:24px;\">Loading puzzle:<br>3 / 16</div>","response":null,"trial_type":"html-keyboard-response","trial_index":11,"time_elapsed":105718,"internal_node_id":"0.0-10.0-1.0","experiment":"calibration","task_version":"1.0","jspsych_version":"6.3.1"},{"puzzle":"../static/img/is3/tf3/tf3_50_M_ss2.jpeg","item_order":[3,1,0,2],"correct":0,"choice":0,"accuracy":1,"rt":17757.800000000047,"screen_resolution":[768,1366],"minimum_resolution":1,"item_set":3,"item":50,"test_form":3,"distractor":"md","trial_type":"mars","trial_index":12,"time_elapsed":123481,"internal_node_id":"0.0-10.0-2.0","experiment":"calibration","task_version":"1.0","jspsych_version":"6.3.1","browser_interactions":0},{"rt":null,"stimulus":"<div style=\"font-size:24px;\">Loading puzzle:<br>4 / 16</div>","response":null,"trial_type":"html-keyboard-response","trial_index":13,"time_elapsed":124686,"internal_node_id":"0.0-11.0-1.0","experiment":"calibration","task_version":"1.0","jspsych_version":"6.3.1"},{"puzzle":"../static/img/is3/tf3/tf3_10_M_ss1.jpeg","item_order":[2,0,1,3],"correct":0,"choice":0,"accuracy":1,"rt":19908.09999999986,"screen_resolution":[768,1366],"minimum_resolution":1,"item_set":3,"item":10,"test_form":3,"distractor":"md","trial_type":"mars","trial_index":14,"time_elapsed":144606,"internal_node_id":"0.0-11.0-2.0","experiment":"calibration","task_version":"1.0","jspsych_version":"6.3.1","browser_interactions":0},{"rt":null,"stimulus":"<div style=\"font-size:24px;\">Loading puzzle:<br>5 / 16</div>","response":null,"trial_type":"html-keyboard-response","trial_index":15,"time_elapsed":145819,"internal_node_id":"0.0-12.0-1.0","experiment":"calibration","task_version":"1.0","jspsych_version":"6.3.1"},{"puzzle":"../static/img/is3/tf3/tf3_13_M_ss1.jpeg","item_order":[2,0,1,3],"correct":0,"choice":3,"accuracy":0,"rt":10721.100000000093,"screen_resolution":[768,1366],"minimum_resolution":1,"item_set":3,"item":13,"test_form":3,"distractor":"pd","trial_type":"mars","trial_index":16,"time_elapsed":156552,"internal_node_id":"0.0-12.0-2.0","experiment":"calibration","task_version":"1.0","jspsych_version":"6.3.1","browser_interactions":0},{"rt":null,"stimulus":"<div style=\"font-size:24px;\">Loading puzzle:<br>6 / 16</div>","response":null,"trial_type":"html-keyboard-response","trial_index":17,"time_elapsed":157768,"internal_node_id":"0.0-13.0-1.0","experiment":"calibration","task_version":"1.0","jspsych_version":"6.3.1"},{"puzzle":"../static/img/is3/tf3/tf3_27_M_ss3.jpeg","item_order":[0,1,2,3],"correct":0,"choice":0,"accuracy":1,"rt":13317.300000000047,"screen_resolution":[768,1366],"minimum_resolution":1,"item_set":3,"item":27,"test_form":3,"distractor":"pd","trial_type":"mars","trial_index":18,"time_elapsed":171097,"internal_node_id":"0.0-13.0-2.0","experiment":"calibration","task_version":"1.0","jspsych_version":"6.3.1","browser_interactions":0},{"rt":null,"stimulus":"<div style=\"font-size:24px;\">Loading puzzle:<br>7 / 16</div>","response":null,"trial_type":"html-keyboard-response","trial_index":19,"time_elapsed":172308,"internal_node_id":"0.0-14.0-1.0","experiment":"calibration","task_version":"1.0","jspsych_version":"6.3.1"},{"puzzle":"../static/img/is3/tf3/tf3_16_M_ss1.jpeg","item_order":[0,2,3,1],"correct":0,"choice":0,"accuracy":1,"rt":9301.800000000047,"screen_resolution":[768,1366],"minimum_resolution":1,"item_set":3,"item":16,"test_form":3,"distractor":"pd","trial_type":"mars","trial_index":20,"time_elapsed":181618,"internal_node_id":"0.0-14.0-2.0","experiment":"calibration","task_version":"1.0","jspsych_version":"6.3.1","browser_interactions":0},{"rt":null,"stimulus":"<div style=\"font-size:24px;\">Loading puzzle:<br>8 / 16</div>","response":null,"trial_type":"html-keyboard-response","trial_index":21,"time_elapsed":182823,"internal_node_id":"0.0-15.0-1.0","experiment":"calibration","task_version":"1.0","jspsych_version":"6.3.1"},{"puzzle":"../static/img/is3/tf3/tf3_58_M_ss1.jpeg","item_order":[0,2,3,1],"correct":0,"choice":0,"accuracy":1,"rt":11140.40000000014,"screen_resolution":[768,1366],"minimum_resolution":1,"item_set":3,"item":58,"test_form":3,"distractor":"md","trial_type":"mars","trial_index":22,"time_elapsed":193975,"internal_node_id":"0.0-15.0-2.0","experiment":"calibration","task_version":"1.0","jspsych_version":"6.3.1","browser_interactions":0},{"rt":null,"stimulus":"<div style=\"font-size:24px;\">Loading puzzle:<br>9 / 16</div>","response":null,"trial_type":"html-keyboard-response","trial_index":23,"time_elapsed":195183,"internal_node_id":"0.0-16.0-1.0","experiment":"calibration","task_version":"1.0","jspsych_version":"6.3.1"},{"puzzle":"../static/img/is3/tf3/tf3_72_M_ss3.jpeg","item_order":[1,2,3,0],"correct":0,"choice":0,"accuracy":1,"rt":15834,"screen_resolution":[768,1366],"minimum_resolution":1,"item_set":3,"item":72,"test_form":3,"distractor":"md","trial_type":"mars","trial_index":24,"time_elapsed":211032,"internal_node_id":"0.0-16.0-2.0","experiment":"calibration","task_version":"1.0","jspsych_version":"6.3.1","browser_interactions":0},{"rt":null,"stimulus":"<div style=\"font-size:24px;\">Loading puzzle:<br>10 / 16</div>","response":null,"trial_type":"html-keyboard-response","trial_index":25,"time_elapsed":212250,"internal_node_id":"0.0-17.0-1.0","experiment":"calibration","task_version":"1.0","jspsych_version":"6.3.1"},{"puzzle":"../static/img/is3/tf3/tf3_23_M_ss2.jpeg","item_order":[0,3,2,1],"correct":0,"choice":3,"accuracy":0,"rt":26144.299999999814,"screen_resolution":[768,1366],"minimum_resolution":1,"item_set":3,"item":23,"test_form":3,"distractor":"md","trial_type":"mars","trial_index":26,"time_elapsed":238406,"internal_node_id":"0.0-17.0-2.0","experiment":"calibration","task_version":"1.0","jspsych_version":"6.3.1","browser_interactions":0},{"rt":null,"stimulus":"<div style=\"font-size:24px;\">Loading puzzle:<br>11 / 16</div>","response":null,"trial_type":"html-keyboard-response","trial_index":27,"time_elapsed":239623,"internal_node_id":"0.0-18.0-1.0","experiment":"calibration","task_version":"1.0","jspsych_version":"6.3.1"},{"puzzle":"../static/img/is3/tf3/tf3_74_M_ss2.jpeg","item_order":[3,0,2,1],"correct":0,"choice":0,"accuracy":1,"rt":11007.899999999907,"screen_resolution":[768,1366],"minimum_resolution":1,"item_set":3,"item":74,"test_form":3,"distractor":"pd","trial_type":"mars","trial_index":28,"time_elapsed":250634,"internal_node_id":"0.0-18.0-2.0","experiment":"calibration","task_version":"1.0","jspsych_version":"6.3.1","browser_interactions":0},{"rt":null,"stimulus":"<div style=\"font-size:24px;\">Loading puzzle:<br>12 / 16</div>","response":null,"trial_type":"html-keyboard-response","trial_index":29,"time_elapsed":251841,"internal_node_id":"0.0-19.0-1.0","experiment":"calibration","task_version":"1.0","jspsych_version":"6.3.1"},{"puzzle":"../static/img/is3/tf3/tf3_26_M_ss2.jpeg","item_order":[0,2,1,3],"correct":0,"choice":1,"accuracy":0,"rt":25200.099999999627,"screen_resolution":[768,1366],"minimum_resolution":1,"item_set":3,"item":26,"test_form":3,"distractor":"md","trial_type":"mars","trial_index":30,"time_elapsed":277053,"internal_node_id":"0.0-19.0-2.0","experiment":"calibration","task_version":"1.0","jspsych_version":"6.3.1","browser_interactions":0},{"rt":null,"stimulus":"<div style=\"font-size:24px;\">Loading puzzle:<br>13 / 16</div>","response":null,"trial_type":"html-keyboard-response","trial_index":31,"time_elapsed":278270,"internal_node_id":"0.0-20.0-1.0","experiment":"calibration","task_version":"1.0","jspsych_version":"6.3.1"},{"puzzle":"../static/img/is3/tf3/tf3_36_M_ss3.jpeg","item_order":[0,1,3,2],"correct":0,"choice":null,"accuracy":null,"rt":null,"screen_resolution":[768,1366],"minimum_resolution":1,"item_set":3,"item":36,"test_form":3,"distractor":"md","trial_type":"mars","trial_index":32,"time_elapsed":308272,"internal_node_id":"0.0-20.0-2.0","experiment":"calibration","task_version":"1.0","jspsych_version":"6.3.1","browser_interactions":0},{"rt":null,"stimulus":"<div style=\"font-size:24px;\">Loading puzzle:<br>14 / 16</div>","response":null,"trial_type":"html-keyboard-response","trial_index":33,"time_elapsed":309482,"internal_node_id":"0.0-21.0-1.0","experiment":"calibration","task_version":"1.0","jspsych_version":"6.3.1"},{"puzzle":"../static/img/is3/tf3/tf3_64_M_ss1.jpeg","item_order":[0,3,2,1],"correct":0,"choice":0,"accuracy":1,"rt":26468.19999999972,"screen_resolution":[768,1366],"minimum_resolution":1,"item_set":3,"item":64,"test_form":3,"distractor":"md","trial_type":"mars","trial_index":34,"time_elapsed":335954,"internal_node_id":"0.0-21.0-2.0","experiment":"calibration","task_version":"1.0","jspsych_version":"6.3.1","browser_interactions":0},{"rt":null,"stimulus":"<div style=\"font-size:24px;\">Loading puzzle:<br>15 / 16</div>","response":null,"trial_type":"html-keyboard-response","trial_index":35,"time_elapsed":337161,"internal_node_id":"0.0-22.0-1.0","experiment":"calibration","task_version":"1.0","jspsych_version":"6.3.1"},{"puzzle":"../static/img/is3/tf3/tf3_66_M_ss3.jpeg","item_order":[0,1,3,2],"correct":0,"choice":2,"accuracy":0,"rt":12251.100000000093,"screen_resolution":[768,1366],"minimum_resolution":1,"item_set":3,"item":66,"test_form":3,"distractor":"md","trial_type":"mars","trial_index":36,"time_elapsed":349418,"internal_node_id":"0.0-22.0-2.0","experiment":"calibration","task_version":"1.0","jspsych_version":"6.3.1","browser_interactions":0},{"rt":null,"stimulus":"<div style=\"font-size:24px;\">Loading puzzle:<br>16 / 16</div>","response":null,"trial_type":"html-keyboard-response","trial_index":37,"time_elapsed":350629,"internal_node_id":"0.0-23.0-1.0","experiment":"calibration","task_version":"1.0","jspsych_version":"6.3.1"},{"puzzle":"../static/img/is3/tf3/tf3_29_M_ss2.jpeg","item_order":[1,0,2,3],"correct":0,"choice":0,"accuracy":1,"rt":14454.600000000093,"screen_resolution":[768,1366],"minimum_resolution":1,"item_set":3,"item":29,"test_form":3,"distractor":"pd","trial_type":"mars","trial_index":38,"time_elapsed":365088,"internal_node_id":"0.0-23.0-2.0","experiment":"calibration","task_version":"1.0","jspsych_version":"6.3.1","browser_interactions":0},{"value":[0,1,0],"trial_type":"call-function","trial_index":39,"time_elapsed":365090,"internal_node_id":"0.0-24.0","experiment":"calibration","task_version":"1.0","jspsych_version":"6.3.1"},{"view_history":[{"page_index":0,"viewing_time":3251.5999999996275}],"rt":3251.7999999998137,"trial_type":"instructions","trial_index":40,"time_elapsed":368343,"internal_node_id":"0.0-25.0","experiment":"calibration","task_version":"1.0","jspsych_version":"6.3.1"},{"rt":18705.899999999907,"responses":{"age":"22","gender-categorical":"Female","gender-free-response":"","ethnicity":"Hispanic or Latino","race":["White"],"education":"Some college","free-response":""},"trial_type":"survey-demo","trial_index":41,"time_elapsed":387052,"internal_node_id":"0.0-26.0","experiment":"calibration","task_version":"1.0","jspsych_version":"6.3.1","interactions":"[{\"event\":\"fullscreenenter\",\"trial\":1,\"time\":6942}]"}]