[{"success":true,"timeout":false,"failed_images":[],"failed_audio":[],"failed_video":[],"trial_type":"preload","trial_index":0,"time_elapsed":2420,"internal_node_id":"0.0-0.0","experiment":"calibration","task_version":"1.0","jspsych_version":"6.3.1"},{"success":true,"trial_type":"fullscreen","trial_index":1,"time_elapsed":6742,"internal_node_id":"0.0-1.0","experiment":"calibration","task_version":"1.0","jspsych_version":"6.3.1"},{"view_history":[{"page_index":0,"viewing_time":9664.800000011921},{"page_index":1,"viewing_time":5066.800000011921},{"page_index":2,"viewing_time":3198.100000023842}],"rt":17933.400000035763,"trial_type":"instructions","trial_index":2,"time_elapsed":24683,"internal_node_id":"0.0-3.0","experiment":"calibration","task_version":"1.0","jspsych_version":"6.3.1"},{"puzzle":"../static/img/practice/pt1_M1.png","item_order":[2,1,0,3],"correct":0,"choice":0,"accuracy":1,"rt":4678.300000011921,"screen_resolution":[900,1440],"minimum_resolution":1,"item_set":"practice","trial_type":"mars","trial_index":3,"time_elapsed":31374,"internal_node_id":"0.0-4.0-0.0","experiment":"calibration","task_version":"1.0","jspsych_version":"6.3.1"},{"puzzle":"../static/img/practice/pt2_M1.png","item_order":[3,1,0,2],"correct":0,"choice":0,"accuracy":1,"rt":5407.100000023842,"screen_resolution":[900,1440],"minimum_resolution":1,"item_set":"practice","trial_type":"mars","trial_index":4,"time_elapsed":38795,"internal_node_id":"0.0-5.0-0.0","experiment":"calibration","task_version":"1.0","jspsych_version":"6.3.1"},{"puzzle":"../static/img/practice/pt3_M1.png","item_order":[3,0,2,1],"correct":0,"choice":0,"accuracy":1,"rt":2051.699999988079,"screen_resolution":[900,1440],"minimum_resolution":1,"item_set":"practice","trial_type":"mars","trial_index":5,"time_elapsed":42858,"internal_node_id":"0.0-6.0-0.0","experiment":"calibration","task_version":"1.0","jspsych_version":"6.3.1"},{"view_history":[{"page_index":0,"viewing_time":5602.899999976158},{"page_index":1,"viewing_time":9903.399999976158}],"rt":15506.699999988079,"trial_type":"instructions","trial_index":6,"time_elapsed":58372,"internal_node_id":"0.0-7.0","experiment":"calibration","task_version":"1.0","jspsych_version":"6.3.1"},{"rt":null,"stimulus":"<div style=\"font-size:24px;\">Loading puzzle:<br>1 / 16</div>","response":null,"trial_type":"html-keyboard-response","trial_index":7,"time_elapsed":59583,"internal_node_id":"0.0-8.0-1.0","experiment":"calibration","task_version":"1.0","jspsych_version":"6.3.1"},{"puzzle":"../static/img/is3/tf2/tf2_47_M_ss3.jpeg","item_order":[0,1,2,3],"correct":0,"choice":2,"accuracy":0,"rt":12527.300000011921,"screen_resolution":[900,1440],"minimum_resolution":1,"item_set":3,"item":47,"test_form":2,"distractor":"md","trial_type":"mars","trial_index":8,"time_elapsed":72115,"internal_node_id":"0.0-8.0-2.0","experiment":"calibration","task_version":"1.0","jspsych_version":"6.3.1","browser_interactions":0},{"rt":null,"stimulus":"<div style=\"font-size:24px;\">Loading puzzle:<br>2 / 16</div>","response":null,"trial_type":"html-keyboard-response","trial_index":9,"time_elapsed":73326,"internal_node_id":"0.0-9.0-1.0","experiment":"calibration","task_version":"1.0","jspsych_version":"6.3.1"},{"puzzle":"../static/img/is3/tf3/tf3_20_M_ss2.jpeg","item_order":[3,0,1,2],"correct":0,"choice":2,"accuracy":0,"rt":9167.800000011921,"screen_resolution":[900,1440],"minimum_resolution":1,"item_set":3,"item":20,"test_form":3,"distractor":"pd","trial_type":"mars","trial_index":10,"time_elapsed":82497,"internal_node_id":"0.0-9.0-2.0","experiment":"calibration","task_version":"1.0","jspsych_version":"6.3.1","browser_interactions":0},{"rt":null,"stimulus":"<div style=\"font-size:24px;\">Loading puzzle:<br>3 / 16</div>","response":null,"trial_type":"html-keyboard-response","trial_index":11,"time_elapsed":83709,"internal_node_id":"0.0-10.0-1.0","experiment":"calibration","task_version":"1.0","jspsych_version":"6.3.1"},{"puzzle":"../static/img/is3/tf2/tf2_71_M_ss3.jpeg","item_order":[1,3,0,2],"correct":0,"choice":0,"accuracy":1,"rt":10168.700000047684,"screen_resolution":[900,1440],"minimum_resolution":1,"item_set":3,"item":71,"test_form":2,"distractor":"pd","trial_type":"mars","trial_index":12,"time_elapsed":93881,"internal_node_id":"0.0-10.0-2.0","experiment":"calibration","task_version":"1.0","jspsych_version":"6.3.1","browser_interactions":0},{"rt":null,"stimulus":"<div style=\"font-size:24px;\">Loading puzzle:<br>4 / 16</div>","response":null,"trial_type":"html-keyboard-response","trial_index":13,"time_elapsed":95095,"internal_node_id":"0.0-11.0-1.0","experiment":"calibration","task_version":"1.0","jspsych_version":"6.3.1"},{"puzzle":"../static/img/is3/tf3/tf3_50_M_ss2.jpeg","item_order":[0,1,3,2],"correct":0,"choice":1,"accuracy":0,"rt":5624.099999964237,"screen_resolution":[900,1440],"minimum_resolution":1,"item_set":3,"item":50,"test_form":3,"distractor":"md","trial_type":"mars","trial_index":14,"time_elapsed":100722,"internal_node_id":"0.0-11.0-2.0","experiment":"calibration","task_version":"1.0","jspsych_version":"6.3.1","browser_interactions":0},{"rt":null,"stimulus":"<div style=\"font-size:24px;\">Loading puzzle:<br>5 / 16</div>","response":null,"trial_type":"html-keyboard-response","trial_index":15,"time_elapsed":101933,"internal_node_id":"0.0-12.0-1.0","experiment":"calibration","task_version":"1.0","jspsych_version":"6.3.1"},{"puzzle":"../static/img/is3/tf2/tf2_31_M_ss2.jpeg","item_order":[0,2,3,1],"correct":0,"choice":0,"accuracy":1,"rt":13784.899999976158,"screen_resolution":[900,1440],"minimum_resolution":1,"item_set":3,"item":31,"test_form":2,"distractor":"pd","trial_type":"mars","trial_index":16,"time_elapsed":115722,"internal_node_id":"0.0-12.0-2.0","experiment":"calibration","task_version":"1.0","jspsych_version":"6.3.1","browser_interactions":0},{"rt":null,"stimulus":"<div style=\"font-size:24px;\">Loading puzzle:<br>6 / 16</div>","response":null,"trial_type":"html-keyboard-response","trial_index":17,"time_elapsed":116934,"internal_node_id":"0.0-13.0-1.0","experiment":"calibration","task_version":"1.0","jspsych_version":"6.3.1"},{"puzzle":"../static/img/is3/tf2/tf2_11_M_ss3.jpeg","item_order":[3,2,0,1],"correct":0,"choice":0,"accuracy":1,"rt":20033.599999964237,"screen_resolution":[900,1440],"minimum_resolution":1,"item_set":3,"item":11,"test_form":2,"distractor":"md","trial_type":"mars","trial_index":18,"time_elapsed":136971,"internal_node_id":"0.0-13.0-2.0","experiment":"calibration","task_version":"1.0","jspsych_version":"6.3.1","browser_interactions":0},{"rt":null,"stimulus":"<div style=\"font-size:24px;\">Loading puzzle:<br>7 / 16</div>","response":null,"trial_type":"html-keyboard-response","trial_index":19,"time_elapsed":138183,"internal_node_id":"0.0-14.0-1.0","experiment":"calibration","task_version":"1.0","jspsych_version":"6.3.1"},{"puzzle":"../static/img/is3/tf1/tf1_12_M_ss2.jpeg","item_order":[0,2,3,1],"correct":0,"choice":1,"accuracy":0,"rt":12415.699999988079,"screen_resolution":[900,1440],"minimum_resolution":1,"item_set":3,"item":12,"test_form":1,"distractor":"md","trial_type":"mars","trial_index":20,"time_elapsed":150602,"internal_node_id":"0.0-14.0-2.0","experiment":"calibration","task_version":"1.0","jspsych_version":"6.3.1","browser_interactions":0},{"rt":null,"stimulus":"<div style=\"font-size:24px;\">Loading puzzle:<br>8 / 16</div>","response":null,"trial_type":"html-keyboard-response","trial_index":21,"time_elapsed":151813,"internal_node_id":"0.0-15.0-1.0","experiment":"calibration","task_version":"1.0","jspsych_version":"6.3.1"},{"puzzle":"../static/img/is3/tf3/tf3_58_M_ss1.jpeg","item_order":[3,1,0,2],"correct":0,"choice":0,"accuracy":1,"rt":9861.199999988079,"screen_resolution":[900,1440],"minimum_resolution":1,"item_set":3,"item":58,"test_form":3,"distractor":"md","trial_type":"mars","trial_index":22,"time_elapsed":161678,"internal_node_id":"0.0-15.0-2.0","experiment":"calibration","task_version":"1.0","jspsych_version":"6.3.1","browser_interactions":0},{"rt":null,"stimulus":"<div style=\"font-size:24px;\">Loading puzzle:<br>9 / 16</div>","response":null,"trial_type":"html-keyboard-response","trial_index":23,"time_elapsed":162889,"internal_node_id":"0.0-16.0-1.0","experiment":"calibration","task_version":"1.0","jspsych_version":"6.3.1"},{"puzzle":"../static/img/is3/tf1/tf1_60_M_ss2.jpeg","item_order":[0,2,1,3],"correct":0,"choice":3,"accuracy":0,"rt":27555.19999998808,"screen_resolution":[900,1440],"minimum_resolution":1,"item_set":3,"item":60,"test_form":1,"distractor":"pd","trial_type":"mars","trial_index":24,"time_elapsed":190449,"internal_node_id":"0.0-16.0-2.0","experiment":"calibration","task_version":"1.0","jspsych_version":"6.3.1","browser_interactions":0},{"rt":null,"stimulus":"<div style=\"font-size:24px;\">Loading puzzle:<br>10 / 16</div>","response":null,"trial_type":"html-keyboard-response","trial_index":25,"time_elapsed":191660,"internal_node_id":"0.0-17.0-1.0","experiment":"calibration","task_version":"1.0","jspsych_version":"6.3.1"},{"puzzle":"../static/img/is3/tf3/tf3_53_M_ss2.jpeg","item_order":[2,1,0,3],"correct":0,"choice":0,"accuracy":1,"rt":15002.099999964237,"screen_resolution":[900,1440],"minimum_resolution":1,"item_set":3,"item":53,"test_form":3,"distractor":"pd","trial_type":"mars","trial_index":26,"time_elapsed":206666,"internal_node_id":"0.0-17.0-2.0","experiment":"calibration","task_version":"1.0","jspsych_version":"6.3.1","browser_interactions":0},{"rt":null,"stimulus":"<div style=\"font-size:24px;\">Loading puzzle:<br>11 / 16</div>","response":null,"trial_type":"html-keyboard-response","trial_index":27,"time_elapsed":207878,"internal_node_id":"0.0-18.0-1.0","experiment":"calibration","task_version":"1.0","jspsych_version":"6.3.1"},{"puzzle":"../static/img/is3/tf2/tf2_67_M_ss2.jpeg","item_order":[1,2,0,3],"correct":0,"choice":0,"accuracy":1,"rt":7372,"screen_resolution":[900,1440],"minimum_resolution":1,"item_set":3,"item":67,"test_form":2,"distractor":"pd","trial_type":"mars","trial_index":28,"time_elapsed":215253,"internal_node_id":"0.0-18.0-2.0","experiment":"calibration","task_version":"1.0","jspsych_version":"6.3.1","browser_interactions":0},{"rt":null,"stimulus":"<div style=\"font-size:24px;\">Loading puzzle:<br>12 / 16</div>","response":null,"trial_type":"html-keyboard-response","trial_index":29,"time_elapsed":216463,"internal_node_id":"0.0-19.0-1.0","experiment":"calibration","task_version":"1.0","jspsych_version":"6.3.1"},{"puzzle":"../static/img/is3/tf2/tf2_52_M_ss2.jpeg","item_order":[3,2,0,1],"correct":0,"choice":0,"accuracy":1,"rt":27503.900000035763,"screen_resolution":[900,1440],"minimum_resolution":1,"item_set":3,"item":52,"test_form":2,"distractor":"md","trial_type":"mars","trial_index":30,"time_elapsed":243972,"internal_node_id":"0.0-19.0-2.0","experiment":"calibration","task_version":"1.0","jspsych_version":"6.3.1","browser_interactions":0},{"rt":null,"stimulus":"<div style=\"font-size:24px;\">Loading puzzle:<br>13 / 16</div>","response":null,"trial_type":"html-keyboard-response","trial_index":31,"time_elapsed":245181,"internal_node_id":"0.0-20.0-1.0","experiment":"calibration","task_version":"1.0","jspsych_version":"6.3.1"},{"puzzle":"../static/img/is3/tf2/tf2_36_M_ss1.jpeg","item_order":[3,2,0,1],"correct":0,"choice":0,"accuracy":1,"rt":12475.199999988079,"screen_resolution":[900,1440],"minimum_resolution":1,"item_set":3,"item":36,"test_form":2,"distractor":"md","trial_type":"mars","trial_index":32,"time_elapsed":257660,"internal_node_id":"0.0-20.0-2.0","experiment":"calibration","task_version":"1.0","jspsych_version":"6.3.1","browser_interactions":0},{"rt":null,"stimulus":"<div style=\"font-size:24px;\">Loading puzzle:<br>14 / 16</div>","response":null,"trial_type":"html-keyboard-response","trial_index":33,"time_elapsed":258872,"internal_node_id":"0.0-21.0-1.0","experiment":"calibration","task_version":"1.0","jspsych_version":"6.3.1"},{"puzzle":"../static/img/is3/tf2/tf2_75_M_ss1.jpeg","item_order":[2,1,0,3],"correct":0,"choice":1,"accuracy":0,"rt":12537.199999988079,"screen_resolution":[900,1440],"minimum_resolution":1,"item_set":3,"item":75,"test_form":2,"distractor":"pd","trial_type":"mars","trial_index":34,"time_elapsed":271413,"internal_node_id":"0.0-21.0-2.0","experiment":"calibration","task_version":"1.0","jspsych_version":"6.3.1","browser_interactions":0},{"rt":null,"stimulus":"<div style=\"font-size:24px;\">Loading puzzle:<br>15 / 16</div>","response":null,"trial_type":"html-keyboard-response","trial_index":35,"time_elapsed":272622,"internal_node_id":"0.0-22.0-1.0","experiment":"calibration","task_version":"1.0","jspsych_version":"6.3.1"},{"puzzle":"../static/img/is3/tf3/tf3_30_M_ss3.jpeg","item_order":[1,3,2,0],"correct":0,"choice":2,"accuracy":0,"rt":14480.399999976158,"screen_resolution":[900,1440],"minimum_resolution":1,"item_set":3,"item":30,"test_form":3,"distractor":"md","trial_type":"mars","trial_index":36,"time_elapsed":287107,"internal_node_id":"0.0-22.0-2.0","experiment":"calibration","task_version":"1.0","jspsych_version":"6.3.1","browser_interactions":0},{"rt":null,"stimulus":"<div style=\"font-size:24px;\">Loading puzzle:<br>16 / 16</div>","response":null,"trial_type":"html-keyboard-response","trial_index":37,"time_elapsed":288318,"internal_node_id":"0.0-23.0-1.0","experiment":"calibration","task_version":"1.0","jspsych_version":"6.3.1"},{"puzzle":"../static/img/is3/tf3/tf3_45_M_ss3.jpeg","item_order":[0,1,2,3],"correct":0,"choice":0,"accuracy":1,"rt":12038.699999988079,"screen_resolution":[900,1440],"minimum_resolution":1,"item_set":3,"item":45,"test_form":3,"distractor":"pd","trial_type":"mars","trial_index":38,"time_elapsed":300360,"internal_node_id":"0.0-23.0-2.0","experiment":"calibration","task_version":"1.0","jspsych_version":"6.3.1","browser_interactions":0},{"value":[0,0,0],"trial_type":"call-function","trial_index":39,"time_elapsed":300367,"internal_node_id":"0.0-24.0","experiment":"calibration","task_version":"1.0","jspsych_version":"6.3.1"},{"view_history":[{"page_index":0,"viewing_time":2799.400000035763}],"rt":2799.800000011921,"trial_type":"instructions","trial_index":40,"time_elapsed":303169,"internal_node_id":"0.0-25.0","experiment":"calibration","task_version":"1.0","jspsych_version":"6.3.1"},{"rt":14298.899999976158,"responses":{"age":"31","gender-categorical":"Female","gender-free-response":"","ethnicity":"Not Hispanic or Latino","race":["Black or African American","White"],"education":"Bachelor degree","free-response":""},"trial_type":"survey-demo","trial_index":41,"time_elapsed":317488,"internal_node_id":"0.0-26.0","experiment":"calibration","task_version":"1.0","jspsych_version":"6.3.1","interactions":"[{\"event\":\"fullscreenenter\",\"trial\":1,\"time\":6074}]"}]