[{"success":true,"timeout":false,"failed_images":[],"failed_audio":[],"failed_video":[],"trial_type":"preload","trial_index":0,"time_elapsed":5044,"internal_node_id":"0.0-0.0","experiment":"calibration","task_version":"1.0","jspsych_version":"6.3.1"},{"success":true,"trial_type":"fullscreen","trial_index":1,"time_elapsed":9543,"internal_node_id":"0.0-1.0","experiment":"calibration","task_version":"1.0","jspsych_version":"6.3.1"},{"view_history":[{"page_index":0,"viewing_time":13431.09999999404},{"page_index":1,"viewing_time":9688.10000000149},{"page_index":2,"viewing_time":2488}],"rt":25609,"trial_type":"instructions","trial_index":2,"time_elapsed":35161,"internal_node_id":"0.0-2.0","experiment":"calibration","task_version":"1.0","jspsych_version":"6.3.1"},{"puzzle":"../static/img/practice/pt1_M1.png","item_order":[0,2,3,1],"correct":0,"choice":0,"accuracy":1,"rt":5367.5,"screen_resolution":[1003,1504],"minimum_resolution":1,"item_set":"practice","trial_type":"mars","trial_index":3,"time_elapsed":42532,"internal_node_id":"0.0-3.0-0.0","experiment":"calibration","task_version":"1.0","jspsych_version":"6.3.1"},{"puzzle":"../static/img/practice/pt2_M1.png","item_order":[1,2,3,0],"correct":0,"choice":0,"accuracy":1,"rt":2540.60000000149,"screen_resolution":[1003,1504],"minimum_resolution":1,"item_set":"practice","trial_type":"mars","trial_index":4,"time_elapsed":47076,"internal_node_id":"0.0-4.0-0.0","experiment":"calibration","task_version":"1.0","jspsych_version":"6.3.1"},{"puzzle":"../static/img/practice/pt3_M1.png","item_order":[0,2,1,3],"correct":0,"choice":0,"accuracy":1,"rt":2670.10000000149,"screen_resolution":[1003,1504],"minimum_resolution":1,"item_set":"practice","trial_type":"mars","trial_index":5,"time_elapsed":51750,"internal_node_id":"0.0-5.0-0.0","experiment":"calibration","task_version":"1.0","jspsych_version":"6.3.1"},{"view_history":[{"page_index":0,"viewing_time":1544.2999999970198},{"page_index":1,"viewing_time":8743.10000000149}],"rt":10287.79999999702,"trial_type":"instructions","trial_index":6,"time_elapsed":62040,"internal_node_id":"0.0-6.0","experiment":"calibration","task_version":"1.0","jspsych_version":"6.3.1"},{"rt":null,"stimulus":"<div style=\"font-size:24px;\">Loading puzzle:<br>1 / 16</div>","response":null,"trial_type":"html-keyboard-response","trial_index":7,"time_elapsed":63246,"internal_node_id":"0.0-7.0-0.0","experiment":"calibration","task_version":"1.0","jspsych_version":"6.3.1"},{"puzzle":"../static/img/is3/tf2/tf2_22_M_ss2.jpeg","item_order":[2,1,3,0],"correct":0,"choice":0,"accuracy":1,"rt":13872.5,"screen_resolution":[1003,1504],"minimum_resolution":1,"item_set":3,"item":22,"test_form":2,"distractor":"pd","trial_type":"mars","trial_index":8,"time_elapsed":77123,"internal_node_id":"0.0-7.0-1.0","experiment":"calibration","task_version":"1.0","jspsych_version":"6.3.1","browser_interactions":0},{"rt":null,"stimulus":"<div style=\"font-size:24px;\">Loading puzzle:<br>2 / 16</div>","response":null,"trial_type":"html-keyboard-response","trial_index":9,"time_elapsed":78327,"internal_node_id":"0.0-8.0-0.0","experiment":"calibration","task_version":"1.0","jspsych_version":"6.3.1"},{"puzzle":"../static/img/is3/tf1/tf1_28_M_ss3.jpeg","item_order":[1,3,2,0],"correct":0,"choice":0,"accuracy":1,"rt":23375.5,"screen_resolution":[1003,1504],"minimum_resolution":1,"item_set":3,"item":28,"test_form":1,"distractor":"pd","trial_type":"mars","trial_index":10,"time_elapsed":101708,"internal_node_id":"0.0-8.0-1.0","experiment":"calibration","task_version":"1.0","jspsych_version":"6.3.1","browser_interactions":0},{"rt":null,"stimulus":"<div style=\"font-size:24px;\">Loading puzzle:<br>3 / 16</div>","response":null,"trial_type":"html-keyboard-response","trial_index":11,"time_elapsed":102912,"internal_node_id":"0.0-9.0-0.0","experiment":"calibration","task_version":"1.0","jspsych_version":"6.3.1"},{"puzzle":"../static/img/is3/tf1/tf1_70_M_ss3.jpeg","item_order":[1,2,0,3],"correct":0,"choice":0,"accuracy":1,"rt":10007.60000000149,"screen_resolution":[1003,1504],"minimum_resolution":1,"item_set":3,"item":70,"test_form":1,"distractor":"md","trial_type":"mars","trial_index":12,"time_elapsed":112924,"internal_node_id":"0.0-9.0-1.0","experiment":"calibration","task_version":"1.0","jspsych_version":"6.3.1","browser_interactions":0},{"rt":null,"stimulus":"<div style=\"font-size:24px;\">Loading puzzle:<br>4 / 16</div>","response":null,"trial_type":"html-keyboard-response","trial_index":13,"time_elapsed":114127,"internal_node_id":"0.0-10.0-0.0","experiment":"calibration","task_version":"1.0","jspsych_version":"6.3.1"},{"puzzle":"../static/img/is3/tf2/tf2_49_M_ss2.jpeg","item_order":[2,3,0,1],"correct":0,"choice":0,"accuracy":1,"rt":9524.30000000447,"screen_resolution":[1003,1504],"minimum_resolution":1,"item_set":3,"item":49,"test_form":2,"distractor":"md","trial_type":"mars","trial_index":14,"time_elapsed":123655,"internal_node_id":"0.0-10.0-1.0","experiment":"calibration","task_version":"1.0","jspsych_version":"6.3.1","browser_interactions":0},{"rt":null,"stimulus":"<div style=\"font-size:24px;\">Loading puzzle:<br>5 / 16</div>","response":null,"trial_type":"html-keyboard-response","trial_index":15,"time_elapsed":124857,"internal_node_id":"0.0-11.0-0.0","experiment":"calibration","task_version":"1.0","jspsych_version":"6.3.1"},{"puzzle":"../static/img/is3/tf1/tf1_37_M_ss3.jpeg","item_order":[2,1,0,3],"correct":0,"choice":3,"accuracy":0,"rt":29050.09999999404,"screen_resolution":[1003,1504],"minimum_resolution":1,"item_set":3,"item":37,"test_form":1,"distractor":"pd","trial_type":"mars","trial_index":16,"time_elapsed":153912,"internal_node_id":"0.0-11.0-1.0","experiment":"calibration","task_version":"1.0","jspsych_version":"6.3.1","browser_interactions":0},{"rt":null,"stimulus":"<div style=\"font-size:24px;\">Loading puzzle:<br>6 / 16</div>","response":null,"trial_type":"html-keyboard-response","trial_index":17,"time_elapsed":155116,"internal_node_id":"0.0-12.0-0.0","experiment":"calibration","task_version":"1.0","jspsych_version":"6.3.1"},{"puzzle":"../static/img/is3/tf2/tf2_18_M_ss1.jpeg","item_order":[2,1,3,0],"correct":0,"choice":0,"accuracy":1,"rt":25595.30000000447,"screen_resolution":[1003,1504],"minimum_resolution":1,"item_set":3,"item":18,"test_form":2,"distractor":"pd","trial_type":"mars","trial_index":18,"time_elapsed":180717,"internal_node_id":"0.0-12.0-1.0","experiment":"calibration","task_version":"1.0","jspsych_version":"6.3.1","browser_interactions":0},{"rt":null,"stimulus":"<div style=\"font-size:24px;\">Loading puzzle:<br>7 / 16</div>","response":null,"trial_type":"html-keyboard-response","trial_index":19,"time_elapsed":181920,"internal_node_id":"0.0-13.0-0.0","experiment":"calibration","task_version":"1.0","jspsych_version":"6.3.1"},{"puzzle":"../static/img/is3/tf1/tf1_16_M_ss3.jpeg","item_order":[2,3,1,0],"correct":0,"choice":0,"accuracy":1,"rt":20940.5,"screen_resolution":[1003,1504],"minimum_resolution":1,"item_set":3,"item":16,"test_form":1,"distractor":"md","trial_type":"mars","trial_index":20,"time_elapsed":202867,"internal_node_id":"0.0-13.0-1.0","experiment":"calibration","task_version":"1.0","jspsych_version":"6.3.1","browser_interactions":0},{"rt":null,"stimulus":"<div style=\"font-size:24px;\">Loading puzzle:<br>8 / 16</div>","response":null,"trial_type":"html-keyboard-response","trial_index":21,"time_elapsed":204089,"internal_node_id":"0.0-14.0-0.0","experiment":"calibration","task_version":"1.0","jspsych_version":"6.3.1"},{"puzzle":"../static/img/is3/tf2/tf2_62_M_ss3.jpeg","item_order":[0,2,1,3],"correct":0,"choice":0,"accuracy":1,"rt":12963.89999999851,"screen_resolution":[1003,1504],"minimum_resolution":1,"item_set":3,"item":62,"test_form":2,"distractor":"pd","trial_type":"mars","trial_index":22,"time_elapsed":217055,"internal_node_id":"0.0-14.0-1.0","experiment":"calibration","task_version":"1.0","jspsych_version":"6.3.1","browser_interactions":0},{"rt":null,"stimulus":"<div style=\"font-size:24px;\">Loading puzzle:<br>9 / 16</div>","response":null,"trial_type":"html-keyboard-response","trial_index":23,"time_elapsed":218257,"internal_node_id":"0.0-15.0-0.0","experiment":"calibration","task_version":"1.0","jspsych_version":"6.3.1"},{"puzzle":"../static/img/is3/tf1/tf1_72_M_ss2.jpeg","item_order":[0,3,1,2],"correct":0,"choice":0,"accuracy":1,"rt":29147.19999999553,"screen_resolution":[1003,1504],"minimum_resolution":1,"item_set":3,"item":72,"test_form":1,"distractor":"pd","trial_type":"mars","trial_index":24,"time_elapsed":247410,"internal_node_id":"0.0-15.0-1.0","experiment":"calibration","task_version":"1.0","jspsych_version":"6.3.1","browser_interactions":0},{"rt":null,"stimulus":"<div style=\"font-size:24px;\">Loading puzzle:<br>10 / 16</div>","response":null,"trial_type":"html-keyboard-response","trial_index":25,"time_elapsed":248612,"internal_node_id":"0.0-16.0-0.0","experiment":"calibration","task_version":"1.0","jspsych_version":"6.3.1"},{"puzzle":"../static/img/is3/tf2/tf2_53_M_ss3.jpeg","item_order":[1,0,3,2],"correct":0,"choice":2,"accuracy":0,"rt":21321.20000000298,"screen_resolution":[1003,1504],"minimum_resolution":1,"item_set":3,"item":53,"test_form":2,"distractor":"md","trial_type":"mars","trial_index":26,"time_elapsed":269938,"internal_node_id":"0.0-16.0-1.0","experiment":"calibration","task_version":"1.0","jspsych_version":"6.3.1","browser_interactions":0},{"rt":null,"stimulus":"<div style=\"font-size:24px;\">Loading puzzle:<br>11 / 16</div>","response":null,"trial_type":"html-keyboard-response","trial_index":27,"time_elapsed":271142,"internal_node_id":"0.0-17.0-0.0","experiment":"calibration","task_version":"1.0","jspsych_version":"6.3.1"},{"puzzle":"../static/img/is3/tf2/tf2_80_M_ss3.jpeg","item_order":[0,1,2,3],"correct":0,"choice":0,"accuracy":1,"rt":20055.10000000149,"screen_resolution":[1003,1504],"minimum_resolution":1,"item_set":3,"item":80,"test_form":2,"distractor":"md","trial_type":"mars","trial_index":28,"time_elapsed":291201,"internal_node_id":"0.0-17.0-1.0","experiment":"calibration","task_version":"1.0","jspsych_version":"6.3.1","browser_interactions":0},{"rt":null,"stimulus":"<div style=\"font-size:24px;\">Loading puzzle:<br>12 / 16</div>","response":null,"trial_type":"html-keyboard-response","trial_index":29,"time_elapsed":292404,"internal_node_id":"0.0-18.0-0.0","experiment":"calibration","task_version":"1.0","jspsych_version":"6.3.1"},{"puzzle":"../static/img/is3/tf1/tf1_63_M_ss2.jpeg","item_order":[3,1,0,2],"correct":0,"choice":0,"accuracy":1,"rt":20100.60000000149,"screen_resolution":[1003,1504],"minimum_resolution":1,"item_set":3,"item":63,"test_form":1,"distractor":"md","trial_type":"mars","trial_index":30,"time_elapsed":312510,"internal_node_id":"0.0-18.0-1.0","experiment":"calibration","task_version":"1.0","jspsych_version":"6.3.1","browser_interactions":0},{"rt":null,"stimulus":"<div style=\"font-size:24px;\">Loading puzzle:<br>13 / 16</div>","response":null,"trial_type":"html-keyboard-response","trial_index":31,"time_elapsed":313714,"internal_node_id":"0.0-19.0-0.0","experiment":"calibration","task_version":"1.0","jspsych_version":"6.3.1"},{"puzzle":"../static/img/is3/tf1/tf1_64_M_ss3.jpeg","item_order":[0,1,3,2],"correct":0,"choice":0,"accuracy":1,"rt":28073.5,"screen_resolution":[1003,1504],"minimum_resolution":1,"item_set":3,"item":64,"test_form":1,"distractor":"pd","trial_type":"mars","trial_index":32,"time_elapsed":341796,"internal_node_id":"0.0-19.0-1.0","experiment":"calibration","task_version":"1.0","jspsych_version":"6.3.1","browser_interactions":0},{"rt":null,"stimulus":"<div style=\"font-size:24px;\">Loading puzzle:<br>14 / 16</div>","response":null,"trial_type":"html-keyboard-response","trial_index":33,"time_elapsed":343004,"internal_node_id":"0.0-20.0-0.0","experiment":"calibration","task_version":"1.0","jspsych_version":"6.3.1"},{"puzzle":"../static/img/is3/tf2/tf2_36_M_ss1.jpeg","item_order":[2,3,0,1],"correct":0,"choice":0,"accuracy":1,"rt":27181.39999999851,"screen_resolution":[1003,1504],"minimum_resolution":1,"item_set":3,"item":36,"test_form":2,"distractor":"md","trial_type":"mars","trial_index":34,"time_elapsed":370190,"internal_node_id":"0.0-20.0-1.0","experiment":"calibration","task_version":"1.0","jspsych_version":"6.3.1","browser_interactions":0},{"rt":null,"stimulus":"<div style=\"font-size:24px;\">Loading puzzle:<br>15 / 16</div>","response":null,"trial_type":"html-keyboard-response","trial_index":35,"time_elapsed":371394,"internal_node_id":"0.0-21.0-0.0","experiment":"calibration","task_version":"1.0","jspsych_version":"6.3.1"},{"puzzle":"../static/img/is3/tf2/tf2_29_M_ss3.jpeg","item_order":[1,3,0,2],"correct":0,"choice":0,"accuracy":1,"rt":28277.29999999702,"screen_resolution":[1003,1504],"minimum_resolution":1,"item_set":3,"item":29,"test_form":2,"distractor":"md","trial_type":"mars","trial_index":36,"time_elapsed":399675,"internal_node_id":"0.0-21.0-1.0","experiment":"calibration","task_version":"1.0","jspsych_version":"6.3.1","browser_interactions":0},{"rt":null,"stimulus":"<div style=\"font-size:24px;\">Loading puzzle:<br>16 / 16</div>","response":null,"trial_type":"html-keyboard-response","trial_index":37,"time_elapsed":400880,"internal_node_id":"0.0-22.0-0.0","experiment":"calibration","task_version":"1.0","jspsych_version":"6.3.1"},{"puzzle":"../static/img/is3/tf1/tf1_66_M_ss2.jpeg","item_order":[0,3,2,1],"correct":0,"choice":0,"accuracy":1,"rt":15517.60000000149,"screen_resolution":[1003,1504],"minimum_resolution":1,"item_set":3,"item":66,"test_form":1,"distractor":"pd","trial_type":"mars","trial_index":38,"time_elapsed":416403,"internal_node_id":"0.0-22.0-1.0","experiment":"calibration","task_version":"1.0","jspsych_version":"6.3.1","browser_interactions":0},{"value":[0,0,0],"trial_type":"call-function","trial_index":39,"time_elapsed":416409,"internal_node_id":"0.0-23.0","experiment":"calibration","task_version":"1.0","jspsych_version":"6.3.1"},{"view_history":[{"page_index":0,"viewing_time":2239.5}],"rt":2240.0999999940395,"trial_type":"instructions","trial_index":40,"time_elapsed":418654,"internal_node_id":"0.0-24.0","experiment":"calibration","task_version":"1.0","jspsych_version":"6.3.1"},{"rt":14841.60000000149,"responses":{"age":"22","gender-categorical":"Male","gender-free-response":"","ethnicity":"Not Hispanic or Latino","race":["White"],"education":"Some college","free-response":""},"trial_type":"survey-demo","trial_index":41,"time_elapsed":433503,"internal_node_id":"0.0-25.0","experiment":"calibration","task_version":"1.0","jspsych_version":"6.3.1","interactions":"[{\"event\":\"fullscreenenter\",\"trial\":1,\"time\":8583}]"}]