[{"success":true,"timeout":false,"failed_images":[],"failed_audio":[],"failed_video":[],"trial_type":"preload","trial_index":0,"time_elapsed":21717,"internal_node_id":"0.0-0.0","experiment":"calibration","task_version":"1.0","jspsych_version":"6.3.1"},{"success":true,"trial_type":"fullscreen","trial_index":1,"time_elapsed":65646,"internal_node_id":"0.0-1.0","experiment":"calibration","task_version":"1.0","jspsych_version":"6.3.1"},{"view_history":[{"page_index":0,"viewing_time":213649},{"page_index":1,"viewing_time":12989},{"page_index":2,"viewing_time":11066}],"rt":237704,"trial_type":"instructions","trial_index":2,"time_elapsed":303355,"internal_node_id":"0.0-3.0","experiment":"calibration","task_version":"1.0","jspsych_version":"6.3.1"},{"puzzle":"../static/img/practice/pt1_M1.png","item_order":[3,2,0,1],"correct":0,"choice":0,"accuracy":1,"rt":1019,"screen_resolution":[505,1366],"minimum_resolution":0,"item_set":"practice","trial_type":"mars","trial_index":3,"time_elapsed":306378,"internal_node_id":"0.0-4.0-0.0","experiment":"calibration","task_version":"1.0","jspsych_version":"6.3.1"},{"puzzle":"../static/img/practice/pt2_M1.png","item_order":[1,0,3,2],"correct":0,"choice":0,"accuracy":1,"rt":11166,"screen_resolution":[505,1366],"minimum_resolution":0,"item_set":"practice","trial_type":"mars","trial_index":4,"time_elapsed":319548,"internal_node_id":"0.0-5.0-0.0","experiment":"calibration","task_version":"1.0","jspsych_version":"6.3.1"},{"puzzle":"../static/img/practice/pt3_M1.png","item_order":[1,3,0,2],"correct":0,"choice":0,"accuracy":1,"rt":6277,"screen_resolution":[505,1366],"minimum_resolution":0,"item_set":"practice","trial_type":"mars","trial_index":5,"time_elapsed":327828,"internal_node_id":"0.0-6.0-0.0","experiment":"calibration","task_version":"1.0","jspsych_version":"6.3.1"},{"view_history":[{"page_index":0,"viewing_time":6267},{"page_index":1,"viewing_time":6633}],"rt":12900,"trial_type":"instructions","trial_index":6,"time_elapsed":340730,"internal_node_id":"0.0-7.0","experiment":"calibration","task_version":"1.0","jspsych_version":"6.3.1"},{"min_width":640,"min_height":600,"inner_width":1708,"inner_height":631,"trial_type":"screen-check","trial_index":7,"time_elapsed":398630,"internal_node_id":"0.0-8.0-0.0-0.0","experiment":"calibration","task_version":"1.0","jspsych_version":"6.3.1"},{"rt":null,"stimulus":"<div style=\"font-size:24px;\">Loading puzzle:<br>1 / 16</div>","response":null,"trial_type":"html-keyboard-response","trial_index":8,"time_elapsed":399833,"internal_node_id":"0.0-8.0-1.0","experiment":"calibration","task_version":"1.0","jspsych_version":"6.3.1"},{"puzzle":"../static/img/is3/tf3/tf3_25_M_ss1.jpeg","item_order":[0,3,1,2],"correct":0,"choice":0,"accuracy":1,"rt":9611,"screen_resolution":[758,2049],"minimum_resolution":1,"item_set":3,"item":25,"test_form":3,"distractor":"pd","trial_type":"mars","trial_index":9,"time_elapsed":409447,"internal_node_id":"0.0-8.0-2.0","experiment":"calibration","task_version":"1.0","jspsych_version":"6.3.1","browser_interactions":2},{"rt":null,"stimulus":"<div style=\"font-size:24px;\">Loading puzzle:<br>2 / 16</div>","response":null,"trial_type":"html-keyboard-response","trial_index":10,"time_elapsed":410649,"internal_node_id":"0.0-9.0-1.0","experiment":"calibration","task_version":"1.0","jspsych_version":"6.3.1"},{"puzzle":"../static/img/is3/tf3/tf3_19_M_ss1.jpeg","item_order":[3,1,2,0],"correct":0,"choice":2,"accuracy":0,"rt":16836,"screen_resolution":[758,2049],"minimum_resolution":1,"item_set":3,"item":19,"test_form":3,"distractor":"pd","trial_type":"mars","trial_index":11,"time_elapsed":427486,"internal_node_id":"0.0-9.0-2.0","experiment":"calibration","task_version":"1.0","jspsych_version":"6.3.1","browser_interactions":1},{"rt":null,"stimulus":"<div style=\"font-size:24px;\">Loading puzzle:<br>3 / 16</div>","response":null,"trial_type":"html-keyboard-response","trial_index":12,"time_elapsed":428688,"internal_node_id":"0.0-10.0-1.0","experiment":"calibration","task_version":"1.0","jspsych_version":"6.3.1"},{"puzzle":"../static/img/is3/tf3/tf3_50_M_ss2.jpeg","item_order":[0,2,1,3],"correct":0,"choice":3,"accuracy":0,"rt":28926,"screen_resolution":[758,2049],"minimum_resolution":1,"item_set":3,"item":50,"test_form":3,"distractor":"pd","trial_type":"mars","trial_index":13,"time_elapsed":457616,"internal_node_id":"0.0-10.0-2.0","experiment":"calibration","task_version":"1.0","jspsych_version":"6.3.1","browser_interactions":2},{"rt":null,"stimulus":"<div style=\"font-size:24px;\">Loading puzzle:<br>4 / 16</div>","response":null,"trial_type":"html-keyboard-response","trial_index":14,"time_elapsed":458817,"internal_node_id":"0.0-11.0-1.0","experiment":"calibration","task_version":"1.0","jspsych_version":"6.3.1"},{"puzzle":"../static/img/is3/tf3/tf3_65_M_ss2.jpeg","item_order":[1,0,3,2],"correct":0,"choice":1,"accuracy":0,"rt":19418,"screen_resolution":[758,2049],"minimum_resolution":1,"item_set":3,"item":65,"test_form":3,"distractor":"md","trial_type":"mars","trial_index":15,"time_elapsed":478236,"internal_node_id":"0.0-11.0-2.0","experiment":"calibration","task_version":"1.0","jspsych_version":"6.3.1","browser_interactions":1},{"rt":null,"stimulus":"<div style=\"font-size:24px;\">Loading puzzle:<br>5 / 16</div>","response":null,"trial_type":"html-keyboard-response","trial_index":16,"time_elapsed":479438,"internal_node_id":"0.0-12.0-1.0","experiment":"calibration","task_version":"1.0","jspsych_version":"6.3.1"},{"puzzle":"../static/img/is3/tf3/tf3_37_M_ss1.jpeg","item_order":[0,2,3,1],"correct":0,"choice":1,"accuracy":0,"rt":15081,"screen_resolution":[758,2049],"minimum_resolution":1,"item_set":3,"item":37,"test_form":3,"distractor":"pd","trial_type":"mars","trial_index":17,"time_elapsed":494521,"internal_node_id":"0.0-12.0-2.0","experiment":"calibration","task_version":"1.0","jspsych_version":"6.3.1","browser_interactions":2},{"rt":null,"stimulus":"<div style=\"font-size:24px;\">Loading puzzle:<br>6 / 16</div>","response":null,"trial_type":"html-keyboard-response","trial_index":18,"time_elapsed":495724,"internal_node_id":"0.0-13.0-1.0","experiment":"calibration","task_version":"1.0","jspsych_version":"6.3.1"},{"puzzle":"../static/img/is3/tf2/tf2_18_M_ss1.jpeg","item_order":[3,1,2,0],"correct":0,"choice":0,"accuracy":1,"rt":11801,"screen_resolution":[758,2049],"minimum_resolution":1,"item_set":3,"item":18,"test_form":2,"distractor":"md","trial_type":"mars","trial_index":19,"time_elapsed":507526,"internal_node_id":"0.0-13.0-2.0","experiment":"calibration","task_version":"1.0","jspsych_version":"6.3.1","browser_interactions":2},{"rt":null,"stimulus":"<div style=\"font-size:24px;\">Loading puzzle:<br>7 / 16</div>","response":null,"trial_type":"html-keyboard-response","trial_index":20,"time_elapsed":508729,"internal_node_id":"0.0-14.0-1.0","experiment":"calibration","task_version":"1.0","jspsych_version":"6.3.1"},{"puzzle":"../static/img/is3/tf3/tf3_56_M_ss2.jpeg","item_order":[3,1,2,0],"correct":0,"choice":2,"accuracy":0,"rt":11569,"screen_resolution":[758,2049],"minimum_resolution":1,"item_set":3,"item":56,"test_form":3,"distractor":"pd","trial_type":"mars","trial_index":21,"time_elapsed":520301,"internal_node_id":"0.0-14.0-2.0","experiment":"calibration","task_version":"1.0","jspsych_version":"6.3.1","browser_interactions":1},{"rt":null,"stimulus":"<div style=\"font-size:24px;\">Loading puzzle:<br>8 / 16</div>","response":null,"trial_type":"html-keyboard-response","trial_index":22,"time_elapsed":521504,"internal_node_id":"0.0-15.0-1.0","experiment":"calibration","task_version":"1.0","jspsych_version":"6.3.1"},{"puzzle":"../static/img/is3/tf1/tf1_12_M_ss2.jpeg","item_order":[2,3,0,1],"correct":0,"choice":1,"accuracy":0,"rt":14181,"screen_resolution":[758,2049],"minimum_resolution":1,"item_set":3,"item":12,"test_form":1,"distractor":"md","trial_type":"mars","trial_index":23,"time_elapsed":535687,"internal_node_id":"0.0-15.0-2.0","experiment":"calibration","task_version":"1.0","jspsych_version":"6.3.1","browser_interactions":2},{"rt":null,"stimulus":"<div style=\"font-size:24px;\">Loading puzzle:<br>9 / 16</div>","response":null,"trial_type":"html-keyboard-response","trial_index":24,"time_elapsed":536887,"internal_node_id":"0.0-16.0-1.0","experiment":"calibration","task_version":"1.0","jspsych_version":"6.3.1"},{"puzzle":"../static/img/is3/tf1/tf1_79_M_ss3.jpeg","item_order":[3,0,2,1],"correct":0,"choice":1,"accuracy":0,"rt":16459,"screen_resolution":[758,2049],"minimum_resolution":1,"item_set":3,"item":79,"test_form":1,"distractor":"pd","trial_type":"mars","trial_index":25,"time_elapsed":553349,"internal_node_id":"0.0-16.0-2.0","experiment":"calibration","task_version":"1.0","jspsych_version":"6.3.1","browser_interactions":1},{"rt":null,"stimulus":"<div style=\"font-size:24px;\">Loading puzzle:<br>10 / 16</div>","response":null,"trial_type":"html-keyboard-response","trial_index":26,"time_elapsed":554549,"internal_node_id":"0.0-17.0-1.0","experiment":"calibration","task_version":"1.0","jspsych_version":"6.3.1"},{"puzzle":"../static/img/is3/tf3/tf3_42_M_ss3.jpeg","item_order":[1,0,3,2],"correct":0,"choice":2,"accuracy":0,"rt":24943,"screen_resolution":[758,2049],"minimum_resolution":1,"item_set":3,"item":42,"test_form":3,"distractor":"md","trial_type":"mars","trial_index":27,"time_elapsed":579494,"internal_node_id":"0.0-17.0-2.0","experiment":"calibration","task_version":"1.0","jspsych_version":"6.3.1","browser_interactions":1},{"rt":null,"stimulus":"<div style=\"font-size:24px;\">Loading puzzle:<br>11 / 16</div>","response":null,"trial_type":"html-keyboard-response","trial_index":28,"time_elapsed":580697,"internal_node_id":"0.0-18.0-1.0","experiment":"calibration","task_version":"1.0","jspsych_version":"6.3.1"},{"puzzle":"../static/img/is3/tf3/tf3_67_M_ss1.jpeg","item_order":[0,3,1,2],"correct":0,"choice":2,"accuracy":0,"rt":13161,"screen_resolution":[758,2049],"minimum_resolution":1,"item_set":3,"item":67,"test_form":3,"distractor":"pd","trial_type":"mars","trial_index":29,"time_elapsed":593859,"internal_node_id":"0.0-18.0-2.0","experiment":"calibration","task_version":"1.0","jspsych_version":"6.3.1","browser_interactions":1},{"rt":null,"stimulus":"<div style=\"font-size:24px;\">Loading puzzle:<br>12 / 16</div>","response":null,"trial_type":"html-keyboard-response","trial_index":30,"time_elapsed":595062,"internal_node_id":"0.0-19.0-1.0","experiment":"calibration","task_version":"1.0","jspsych_version":"6.3.1"},{"puzzle":"../static/img/is3/tf2/tf2_52_M_ss2.jpeg","item_order":[0,2,3,1],"correct":0,"choice":1,"accuracy":0,"rt":14041,"screen_resolution":[758,2049],"minimum_resolution":1,"item_set":3,"item":52,"test_form":2,"distractor":"md","trial_type":"mars","trial_index":31,"time_elapsed":609104,"internal_node_id":"0.0-19.0-2.0","experiment":"calibration","task_version":"1.0","jspsych_version":"6.3.1","browser_interactions":2},{"rt":null,"stimulus":"<div style=\"font-size:24px;\">Loading puzzle:<br>13 / 16</div>","response":null,"trial_type":"html-keyboard-response","trial_index":32,"time_elapsed":610307,"internal_node_id":"0.0-20.0-1.0","experiment":"calibration","task_version":"1.0","jspsych_version":"6.3.1"},{"puzzle":"../static/img/is3/tf1/tf1_55_M_ss3.jpeg","item_order":[0,2,3,1],"correct":0,"choice":2,"accuracy":0,"rt":8176,"screen_resolution":[758,2049],"minimum_resolution":1,"item_set":3,"item":55,"test_form":1,"distractor":"pd","trial_type":"mars","trial_index":33,"time_elapsed":618484,"internal_node_id":"0.0-20.0-2.0","experiment":"calibration","task_version":"1.0","jspsych_version":"6.3.1","browser_interactions":1},{"rt":null,"stimulus":"<div style=\"font-size:24px;\">Loading puzzle:<br>14 / 16</div>","response":null,"trial_type":"html-keyboard-response","trial_index":34,"time_elapsed":619685,"internal_node_id":"0.0-21.0-1.0","experiment":"calibration","task_version":"1.0","jspsych_version":"6.3.1"},{"puzzle":"../static/img/is3/tf3/tf3_44_M_ss2.jpeg","item_order":[0,3,2,1],"correct":0,"choice":0,"accuracy":1,"rt":22233,"screen_resolution":[758,2049],"minimum_resolution":1,"item_set":3,"item":44,"test_form":3,"distractor":"pd","trial_type":"mars","trial_index":35,"time_elapsed":641921,"internal_node_id":"0.0-21.0-2.0","experiment":"calibration","task_version":"1.0","jspsych_version":"6.3.1","browser_interactions":1},{"rt":null,"stimulus":"<div style=\"font-size:24px;\">Loading puzzle:<br>15 / 16</div>","response":null,"trial_type":"html-keyboard-response","trial_index":36,"time_elapsed":643122,"internal_node_id":"0.0-22.0-1.0","experiment":"calibration","task_version":"1.0","jspsych_version":"6.3.1"},{"puzzle":"../static/img/is3/tf1/tf1_30_M_ss2.jpeg","item_order":[0,2,1,3],"correct":0,"choice":3,"accuracy":0,"rt":5589,"screen_resolution":[758,2049],"minimum_resolution":1,"item_set":3,"item":30,"test_form":1,"distractor":"pd","trial_type":"mars","trial_index":37,"time_elapsed":648713,"internal_node_id":"0.0-22.0-2.0","experiment":"calibration","task_version":"1.0","jspsych_version":"6.3.1","browser_interactions":1},{"rt":null,"stimulus":"<div style=\"font-size:24px;\">Loading puzzle:<br>16 / 16</div>","response":null,"trial_type":"html-keyboard-response","trial_index":38,"time_elapsed":649915,"internal_node_id":"0.0-23.0-1.0","experiment":"calibration","task_version":"1.0","jspsych_version":"6.3.1"},{"puzzle":"../static/img/is3/tf2/tf2_66_M_ss1.jpeg","item_order":[3,0,2,1],"correct":0,"choice":1,"accuracy":0,"rt":13923,"screen_resolution":[758,2049],"minimum_resolution":1,"item_set":3,"item":66,"test_form":2,"distractor":"pd","trial_type":"mars","trial_index":39,"time_elapsed":663840,"internal_node_id":"0.0-23.0-2.0","experiment":"calibration","task_version":"1.0","jspsych_version":"6.3.1","browser_interactions":1},{"value":[0,0,0],"trial_type":"call-function","trial_index":40,"time_elapsed":663841,"internal_node_id":"0.0-24.0","experiment":"calibration","task_version":"1.0","jspsych_version":"6.3.1"},{"view_history":[{"page_index":0,"viewing_time":2150}],"rt":2150,"trial_type":"instructions","trial_index":41,"time_elapsed":665992,"internal_node_id":"0.0-25.0","experiment":"calibration","task_version":"1.0","jspsych_version":"6.3.1"},{"rt":83939,"responses":{"age":"50","gender-categorical":"Male","gender-free-response":"","ethnicity":"Not Hispanic or Latino","race":["White"],"education":"Master degree or higher","free-response":""},"trial_type":"survey-demo","trial_index":42,"time_elapsed":749939,"internal_node_id":"0.0-26.0","experiment":"calibration","task_version":"1.0","jspsych_version":"6.3.1","interactions":"[{\"event\":\"focus\",\"trial\":1,\"time\":63341},{\"event\":\"fullscreenenter\",\"trial\":1,\"time\":64860},{\"event\":\"fullscreenexit\",\"trial\":2,\"time\":65920},{\"event\":\"blur\",\"trial\":2,\"time\":68464},{\"event\":\"focus\",\"trial\":2,\"time\":278237},{\"event\":\"blur\",\"trial\":2,\"time\":282434},{\"event\":\"focus\",\"trial\":2,\"time\":291430},{\"event\":\"blur\",\"trial\":2,\"time\":293007},{\"event\":\"focus\",\"trial\":2,\"time\":302329},{\"event\":\"blur\",\"trial\":3,\"time\":305010},{\"event\":\"focus\",\"trial\":4,\"time\":316031},{\"event\":\"blur\",\"trial\":4,\"time\":318332},{\"event\":\"focus\",\"trial\":5,\"time\":324693},{\"event\":\"blur\",\"trial\":5,\"time\":326681},{\"event\":\"focus\",\"trial\":6,\"time\":333202},{\"event\":\"blur\",\"trial\":6,\"time\":334860},{\"event\":\"focus\",\"trial\":6,\"time\":339978},{\"event\":\"blur\",\"trial\":7,\"time\":341453},{\"event\":\"focus\",\"trial\":7,\"time\":397619},{\"event\":\"blur\",\"trial\":9,\"time\":400160},{\"event\":\"focus\",\"trial\":9,\"time\":406097},{\"event\":\"blur\",\"trial\":10,\"time\":410257},{\"event\":\"focus\",\"trial\":11,\"time\":425110},{\"event\":\"blur\",\"trial\":13,\"time\":429051},{\"event\":\"focus\",\"trial\":13,\"time\":451398},{\"event\":\"blur\",\"trial\":14,\"time\":458681},{\"event\":\"focus\",\"trial\":15,\"time\":471917},{\"event\":\"blur\",\"trial\":17,\"time\":479585},{\"event\":\"focus\",\"trial\":17,\"time\":492776},{\"event\":\"blur\",\"trial\":19,\"time\":496526},{\"event\":\"focus\",\"trial\":19,\"time\":506336},{\"event\":\"blur\",\"trial\":20,\"time\":508270},{\"event\":\"focus\",\"trial\":21,\"time\":516809},{\"event\":\"blur\",\"trial\":23,\"time\":521627},{\"event\":\"focus\",\"trial\":23,\"time\":533453},{\"event\":\"blur\",\"trial\":24,\"time\":536473},{\"event\":\"focus\",\"trial\":25,\"time\":549138},{\"event\":\"blur\",\"trial\":26,\"time\":554211},{\"event\":\"focus\",\"trial\":27,\"time\":574681},{\"event\":\"blur\",\"trial\":28,\"time\":580139},{\"event\":\"focus\",\"trial\":29,\"time\":590376},{\"event\":\"blur\",\"trial\":31,\"time\":595389},{\"event\":\"focus\",\"trial\":31,\"time\":606025},{\"event\":\"blur\",\"trial\":32,\"time\":610261},{\"event\":\"focus\",\"trial\":33,\"time\":615916},{\"event\":\"blur\",\"trial\":34,\"time\":619638},{\"event\":\"focus\",\"trial\":35,\"time\":637075},{\"event\":\"blur\",\"trial\":36,\"time\":642818},{\"event\":\"focus\",\"trial\":37,\"time\":647626},{\"event\":\"blur\",\"trial\":38,\"time\":649888},{\"event\":\"focus\",\"trial\":39,\"time\":662683},{\"event\":\"blur\",\"trial\":42,\"time\":667911},{\"event\":\"focus\",\"trial\":42,\"time\":694323},{\"event\":\"blur\",\"trial\":42,\"time\":707885},{\"event\":\"focus\",\"trial\":42,\"time\":737974}]"}]