[{"success":true,"timeout":false,"failed_images":[],"failed_audio":[],"failed_video":[],"trial_type":"preload","trial_index":0,"time_elapsed":3616,"internal_node_id":"0.0-0.0","experiment":"calibration","task_version":"1.0","jspsych_version":"6.3.1"},{"success":true,"trial_type":"fullscreen","trial_index":1,"time_elapsed":7207,"internal_node_id":"0.0-1.0","experiment":"calibration","task_version":"1.0","jspsych_version":"6.3.1"},{"view_history":[{"page_index":0,"viewing_time":5471.0999999940395},{"page_index":1,"viewing_time":4109.300000011921},{"page_index":2,"viewing_time":5037.9000000059605}],"rt":14620.699999988079,"trial_type":"instructions","trial_index":2,"time_elapsed":21831,"internal_node_id":"0.0-3.0","experiment":"calibration","task_version":"1.0","jspsych_version":"6.3.1"},{"puzzle":"../static/img/practice/pt1_M1.png","item_order":[2,1,0,3],"correct":0,"choice":0,"accuracy":1,"rt":12496.5,"screen_resolution":[900,1440],"minimum_resolution":1,"item_set":"practice","trial_type":"mars","trial_index":3,"time_elapsed":36335,"internal_node_id":"0.0-4.0-0.0","experiment":"calibration","task_version":"1.0","jspsych_version":"6.3.1"},{"puzzle":"../static/img/practice/pt2_M1.png","item_order":[0,1,2,3],"correct":0,"choice":0,"accuracy":1,"rt":6353.199999988079,"screen_resolution":[900,1440],"minimum_resolution":1,"item_set":"practice","trial_type":"mars","trial_index":4,"time_elapsed":44702,"internal_node_id":"0.0-5.0-0.0","experiment":"calibration","task_version":"1.0","jspsych_version":"6.3.1"},{"puzzle":"../static/img/practice/pt3_M1.png","item_order":[1,3,2,0],"correct":0,"choice":0,"accuracy":1,"rt":2217.0999999940395,"screen_resolution":[900,1440],"minimum_resolution":1,"item_set":"practice","trial_type":"mars","trial_index":5,"time_elapsed":48931,"internal_node_id":"0.0-6.0-0.0","experiment":"calibration","task_version":"1.0","jspsych_version":"6.3.1"},{"view_history":[{"page_index":0,"viewing_time":7279.200000017881},{"page_index":1,"viewing_time":2375.7999999821186}],"rt":9655.5,"trial_type":"instructions","trial_index":6,"time_elapsed":58595,"internal_node_id":"0.0-7.0","experiment":"calibration","task_version":"1.0","jspsych_version":"6.3.1"},{"rt":null,"stimulus":"<div style=\"font-size:24px;\">Loading puzzle:<br>1 / 16</div>","response":null,"trial_type":"html-keyboard-response","trial_index":7,"time_elapsed":59806,"internal_node_id":"0.0-8.0-1.0","experiment":"calibration","task_version":"1.0","jspsych_version":"6.3.1"},{"puzzle":"../static/img/is3/tf3/tf3_20_M_ss2.jpeg","item_order":[0,3,2,1],"correct":0,"choice":2,"accuracy":0,"rt":21404.30000001192,"screen_resolution":[900,1440],"minimum_resolution":1,"item_set":3,"item":20,"test_form":3,"distractor":"md","trial_type":"mars","trial_index":8,"time_elapsed":81214,"internal_node_id":"0.0-8.0-2.0","experiment":"calibration","task_version":"1.0","jspsych_version":"6.3.1","browser_interactions":0},{"rt":null,"stimulus":"<div style=\"font-size:24px;\">Loading puzzle:<br>2 / 16</div>","response":null,"trial_type":"html-keyboard-response","trial_index":9,"time_elapsed":82424,"internal_node_id":"0.0-9.0-1.0","experiment":"calibration","task_version":"1.0","jspsych_version":"6.3.1"},{"puzzle":"../static/img/is3/tf3/tf3_28_M_ss1.jpeg","item_order":[0,1,2,3],"correct":0,"choice":0,"accuracy":1,"rt":16148.40000000596,"screen_resolution":[900,1440],"minimum_resolution":1,"item_set":3,"item":28,"test_form":3,"distractor":"pd","trial_type":"mars","trial_index":10,"time_elapsed":98576,"internal_node_id":"0.0-9.0-2.0","experiment":"calibration","task_version":"1.0","jspsych_version":"6.3.1","browser_interactions":0},{"rt":null,"stimulus":"<div style=\"font-size:24px;\">Loading puzzle:<br>3 / 16</div>","response":null,"trial_type":"html-keyboard-response","trial_index":11,"time_elapsed":99788,"internal_node_id":"0.0-10.0-1.0","experiment":"calibration","task_version":"1.0","jspsych_version":"6.3.1"},{"puzzle":"../static/img/is3/tf3/tf3_65_M_ss2.jpeg","item_order":[1,2,0,3],"correct":0,"choice":0,"accuracy":1,"rt":6598.0999999940395,"screen_resolution":[900,1440],"minimum_resolution":1,"item_set":3,"item":65,"test_form":3,"distractor":"md","trial_type":"mars","trial_index":12,"time_elapsed":106390,"internal_node_id":"0.0-10.0-2.0","experiment":"calibration","task_version":"1.0","jspsych_version":"6.3.1","browser_interactions":0},{"rt":null,"stimulus":"<div style=\"font-size:24px;\">Loading puzzle:<br>4 / 16</div>","response":null,"trial_type":"html-keyboard-response","trial_index":13,"time_elapsed":107604,"internal_node_id":"0.0-11.0-1.0","experiment":"calibration","task_version":"1.0","jspsych_version":"6.3.1"},{"puzzle":"../static/img/is3/tf3/tf3_50_M_ss2.jpeg","item_order":[3,2,1,0],"correct":0,"choice":0,"accuracy":1,"rt":7416.5,"screen_resolution":[900,1440],"minimum_resolution":1,"item_set":3,"item":50,"test_form":3,"distractor":"md","trial_type":"mars","trial_index":14,"time_elapsed":115024,"internal_node_id":"0.0-11.0-2.0","experiment":"calibration","task_version":"1.0","jspsych_version":"6.3.1","browser_interactions":0},{"rt":null,"stimulus":"<div style=\"font-size:24px;\">Loading puzzle:<br>5 / 16</div>","response":null,"trial_type":"html-keyboard-response","trial_index":15,"time_elapsed":116233,"internal_node_id":"0.0-12.0-1.0","experiment":"calibration","task_version":"1.0","jspsych_version":"6.3.1"},{"puzzle":"../static/img/is3/tf3/tf3_15_M_ss3.jpeg","item_order":[2,0,1,3],"correct":0,"choice":0,"accuracy":1,"rt":7667.200000017881,"screen_resolution":[900,1440],"minimum_resolution":1,"item_set":3,"item":15,"test_form":3,"distractor":"pd","trial_type":"mars","trial_index":16,"time_elapsed":123904,"internal_node_id":"0.0-12.0-2.0","experiment":"calibration","task_version":"1.0","jspsych_version":"6.3.1","browser_interactions":0},{"rt":null,"stimulus":"<div style=\"font-size:24px;\">Loading puzzle:<br>6 / 16</div>","response":null,"trial_type":"html-keyboard-response","trial_index":17,"time_elapsed":125116,"internal_node_id":"0.0-13.0-1.0","experiment":"calibration","task_version":"1.0","jspsych_version":"6.3.1"},{"puzzle":"../static/img/is3/tf3/tf3_34_M_ss1.jpeg","item_order":[0,3,2,1],"correct":0,"choice":2,"accuracy":0,"rt":14386,"screen_resolution":[900,1440],"minimum_resolution":1,"item_set":3,"item":34,"test_form":3,"distractor":"md","trial_type":"mars","trial_index":18,"time_elapsed":139506,"internal_node_id":"0.0-13.0-2.0","experiment":"calibration","task_version":"1.0","jspsych_version":"6.3.1","browser_interactions":0},{"rt":null,"stimulus":"<div style=\"font-size:24px;\">Loading puzzle:<br>7 / 16</div>","response":null,"trial_type":"html-keyboard-response","trial_index":19,"time_elapsed":140717,"internal_node_id":"0.0-14.0-1.0","experiment":"calibration","task_version":"1.0","jspsych_version":"6.3.1"},{"puzzle":"../static/img/is3/tf3/tf3_62_M_ss2.jpeg","item_order":[0,2,3,1],"correct":0,"choice":0,"accuracy":1,"rt":10023.59999999404,"screen_resolution":[900,1440],"minimum_resolution":1,"item_set":3,"item":62,"test_form":3,"distractor":"md","trial_type":"mars","trial_index":20,"time_elapsed":150744,"internal_node_id":"0.0-14.0-2.0","experiment":"calibration","task_version":"1.0","jspsych_version":"6.3.1","browser_interactions":0},{"rt":null,"stimulus":"<div style=\"font-size:24px;\">Loading puzzle:<br>8 / 16</div>","response":null,"trial_type":"html-keyboard-response","trial_index":21,"time_elapsed":151953,"internal_node_id":"0.0-15.0-1.0","experiment":"calibration","task_version":"1.0","jspsych_version":"6.3.1"},{"puzzle":"../static/img/is3/tf3/tf3_12_M_ss3.jpeg","item_order":[1,3,2,0],"correct":0,"choice":1,"accuracy":0,"rt":6706.5999999940395,"screen_resolution":[900,1440],"minimum_resolution":1,"item_set":3,"item":12,"test_form":3,"distractor":"pd","trial_type":"mars","trial_index":22,"time_elapsed":158664,"internal_node_id":"0.0-15.0-2.0","experiment":"calibration","task_version":"1.0","jspsych_version":"6.3.1","browser_interactions":0},{"rt":null,"stimulus":"<div style=\"font-size:24px;\">Loading puzzle:<br>9 / 16</div>","response":null,"trial_type":"html-keyboard-response","trial_index":23,"time_elapsed":159875,"internal_node_id":"0.0-16.0-1.0","experiment":"calibration","task_version":"1.0","jspsych_version":"6.3.1"},{"puzzle":"../static/img/is3/tf3/tf3_23_M_ss2.jpeg","item_order":[1,2,0,3],"correct":0,"choice":0,"accuracy":1,"rt":28415,"screen_resolution":[900,1440],"minimum_resolution":1,"item_set":3,"item":23,"test_form":3,"distractor":"md","trial_type":"mars","trial_index":24,"time_elapsed":188293,"internal_node_id":"0.0-16.0-2.0","experiment":"calibration","task_version":"1.0","jspsych_version":"6.3.1","browser_interactions":0},{"rt":null,"stimulus":"<div style=\"font-size:24px;\">Loading puzzle:<br>10 / 16</div>","response":null,"trial_type":"html-keyboard-response","trial_index":25,"time_elapsed":189503,"internal_node_id":"0.0-17.0-1.0","experiment":"calibration","task_version":"1.0","jspsych_version":"6.3.1"},{"puzzle":"../static/img/is3/tf3/tf3_60_M_ss3.jpeg","item_order":[1,2,0,3],"correct":0,"choice":0,"accuracy":1,"rt":5682.0999999940395,"screen_resolution":[900,1440],"minimum_resolution":1,"item_set":3,"item":60,"test_form":3,"distractor":"md","trial_type":"mars","trial_index":26,"time_elapsed":195189,"internal_node_id":"0.0-17.0-2.0","experiment":"calibration","task_version":"1.0","jspsych_version":"6.3.1","browser_interactions":0},{"rt":null,"stimulus":"<div style=\"font-size:24px;\">Loading puzzle:<br>11 / 16</div>","response":null,"trial_type":"html-keyboard-response","trial_index":27,"time_elapsed":196400,"internal_node_id":"0.0-18.0-1.0","experiment":"calibration","task_version":"1.0","jspsych_version":"6.3.1"},{"puzzle":"../static/img/is3/tf3/tf3_52_M_ss1.jpeg","item_order":[0,3,2,1],"correct":0,"choice":2,"accuracy":0,"rt":11489.100000023842,"screen_resolution":[900,1440],"minimum_resolution":1,"item_set":3,"item":52,"test_form":3,"distractor":"md","trial_type":"mars","trial_index":28,"time_elapsed":207893,"internal_node_id":"0.0-18.0-2.0","experiment":"calibration","task_version":"1.0","jspsych_version":"6.3.1","browser_interactions":0},{"rt":null,"stimulus":"<div style=\"font-size:24px;\">Loading puzzle:<br>12 / 16</div>","response":null,"trial_type":"html-keyboard-response","trial_index":29,"time_elapsed":209103,"internal_node_id":"0.0-19.0-1.0","experiment":"calibration","task_version":"1.0","jspsych_version":"6.3.1"},{"puzzle":"../static/img/is3/tf3/tf3_59_M_ss2.jpeg","item_order":[1,3,0,2],"correct":0,"choice":0,"accuracy":1,"rt":7381.5,"screen_resolution":[900,1440],"minimum_resolution":1,"item_set":3,"item":59,"test_form":3,"distractor":"md","trial_type":"mars","trial_index":30,"time_elapsed":216489,"internal_node_id":"0.0-19.0-2.0","experiment":"calibration","task_version":"1.0","jspsych_version":"6.3.1","browser_interactions":0},{"rt":null,"stimulus":"<div style=\"font-size:24px;\">Loading puzzle:<br>13 / 16</div>","response":null,"trial_type":"html-keyboard-response","trial_index":31,"time_elapsed":217701,"internal_node_id":"0.0-20.0-1.0","experiment":"calibration","task_version":"1.0","jspsych_version":"6.3.1"},{"puzzle":"../static/img/is3/tf3/tf3_76_M_ss1.jpeg","item_order":[0,1,3,2],"correct":0,"choice":0,"accuracy":1,"rt":14334,"screen_resolution":[900,1440],"minimum_resolution":1,"item_set":3,"item":76,"test_form":3,"distractor":"pd","trial_type":"mars","trial_index":32,"time_elapsed":232038,"internal_node_id":"0.0-20.0-2.0","experiment":"calibration","task_version":"1.0","jspsych_version":"6.3.1","browser_interactions":0},{"rt":null,"stimulus":"<div style=\"font-size:24px;\">Loading puzzle:<br>14 / 16</div>","response":null,"trial_type":"html-keyboard-response","trial_index":33,"time_elapsed":233247,"internal_node_id":"0.0-21.0-1.0","experiment":"calibration","task_version":"1.0","jspsych_version":"6.3.1"},{"puzzle":"../static/img/is3/tf3/tf3_55_M_ss1.jpeg","item_order":[3,1,2,0],"correct":0,"choice":1,"accuracy":0,"rt":8234.600000023842,"screen_resolution":[900,1440],"minimum_resolution":1,"item_set":3,"item":55,"test_form":3,"distractor":"pd","trial_type":"mars","trial_index":34,"time_elapsed":241485,"internal_node_id":"0.0-21.0-2.0","experiment":"calibration","task_version":"1.0","jspsych_version":"6.3.1","browser_interactions":0},{"rt":null,"stimulus":"<div style=\"font-size:24px;\">Loading puzzle:<br>15 / 16</div>","response":null,"trial_type":"html-keyboard-response","trial_index":35,"time_elapsed":242697,"internal_node_id":"0.0-22.0-1.0","experiment":"calibration","task_version":"1.0","jspsych_version":"6.3.1"},{"puzzle":"../static/img/is3/tf3/tf3_30_M_ss3.jpeg","item_order":[3,2,0,1],"correct":0,"choice":1,"accuracy":0,"rt":11977.40000000596,"screen_resolution":[900,1440],"minimum_resolution":1,"item_set":3,"item":30,"test_form":3,"distractor":"md","trial_type":"mars","trial_index":36,"time_elapsed":254679,"internal_node_id":"0.0-22.0-2.0","experiment":"calibration","task_version":"1.0","jspsych_version":"6.3.1","browser_interactions":0},{"rt":null,"stimulus":"<div style=\"font-size:24px;\">Loading puzzle:<br>16 / 16</div>","response":null,"trial_type":"html-keyboard-response","trial_index":37,"time_elapsed":255887,"internal_node_id":"0.0-23.0-1.0","experiment":"calibration","task_version":"1.0","jspsych_version":"6.3.1"},{"puzzle":"../static/img/is3/tf3/tf3_45_M_ss3.jpeg","item_order":[0,1,3,2],"correct":0,"choice":2,"accuracy":0,"rt":5649.699999988079,"screen_resolution":[900,1440],"minimum_resolution":1,"item_set":3,"item":45,"test_form":3,"distractor":"pd","trial_type":"mars","trial_index":38,"time_elapsed":261540,"internal_node_id":"0.0-23.0-2.0","experiment":"calibration","task_version":"1.0","jspsych_version":"6.3.1","browser_interactions":0},{"value":[0,0,0],"trial_type":"call-function","trial_index":39,"time_elapsed":261548,"internal_node_id":"0.0-24.0","experiment":"calibration","task_version":"1.0","jspsych_version":"6.3.1"},{"view_history":[{"page_index":0,"viewing_time":2512.800000011921}],"rt":2513.4000000059605,"trial_type":"instructions","trial_index":40,"time_elapsed":264063,"internal_node_id":"0.0-25.0","experiment":"calibration","task_version":"1.0","jspsych_version":"6.3.1"},{"rt":17139.80000001192,"responses":{"age":"19","gender-categorical":"Female","gender-free-response":"","ethnicity":"Not Hispanic or Latino","race":["White"],"education":"Some college","free-response":""},"trial_type":"survey-demo","trial_index":41,"time_elapsed":281207,"internal_node_id":"0.0-26.0","experiment":"calibration","task_version":"1.0","jspsych_version":"6.3.1","interactions":"[{\"event\":\"fullscreenenter\",\"trial\":1,\"time\":6246}]"}]