[{"success":true,"timeout":false,"failed_images":[],"failed_audio":[],"failed_video":[],"trial_type":"preload","trial_index":0,"time_elapsed":1855,"internal_node_id":"0.0-0.0","experiment":"calibration","task_version":"1.0","jspsych_version":"6.3.1"},{"success":true,"trial_type":"fullscreen","trial_index":1,"time_elapsed":7483,"internal_node_id":"0.0-1.0","experiment":"calibration","task_version":"1.0","jspsych_version":"6.3.1"},{"view_history":[{"page_index":0,"viewing_time":28793.800000000745},{"page_index":1,"viewing_time":12246.900000000373},{"page_index":2,"viewing_time":4927.89999999851}],"rt":45969.59999999963,"trial_type":"instructions","trial_index":2,"time_elapsed":53472,"internal_node_id":"0.0-2.0","experiment":"calibration","task_version":"1.0","jspsych_version":"6.3.1"},{"puzzle":"../static/img/practice/pt1_M1.png","item_order":[2,0,3,1],"correct":0,"choice":0,"accuracy":1,"rt":9957.5,"screen_resolution":[900,1600],"minimum_resolution":1,"item_set":"practice","trial_type":"mars","trial_index":3,"time_elapsed":65434,"internal_node_id":"0.0-3.0-0.0","experiment":"calibration","task_version":"1.0","jspsych_version":"6.3.1"},{"puzzle":"../static/img/practice/pt2_M1.png","item_order":[2,0,1,3],"correct":0,"choice":0,"accuracy":1,"rt":4400.299999998882,"screen_resolution":[900,1600],"minimum_resolution":1,"item_set":"practice","trial_type":"mars","trial_index":4,"time_elapsed":71841,"internal_node_id":"0.0-4.0-0.0","experiment":"calibration","task_version":"1.0","jspsych_version":"6.3.1"},{"puzzle":"../static/img/practice/pt3_M1.png","item_order":[1,2,3,0],"correct":0,"choice":0,"accuracy":1,"rt":2763.2000000011176,"screen_resolution":[900,1600],"minimum_resolution":1,"item_set":"practice","trial_type":"mars","trial_index":5,"time_elapsed":76609,"internal_node_id":"0.0-5.0-0.0","experiment":"calibration","task_version":"1.0","jspsych_version":"6.3.1"},{"view_history":[{"page_index":0,"viewing_time":4341},{"page_index":1,"viewing_time":17695.800000000745}],"rt":22037.200000001118,"trial_type":"instructions","trial_index":6,"time_elapsed":98648,"internal_node_id":"0.0-6.0","experiment":"calibration","task_version":"1.0","jspsych_version":"6.3.1"},{"rt":null,"stimulus":"<div style=\"font-size:24px;\">Loading puzzle:<br>1 / 16</div>","response":null,"trial_type":"html-keyboard-response","trial_index":7,"time_elapsed":99853,"internal_node_id":"0.0-7.0-0.0","experiment":"calibration","task_version":"1.0","jspsych_version":"6.3.1"},{"puzzle":"../static/img/is3/tf1/tf1_22_M_ss3.jpeg","item_order":[0,2,1,3],"correct":0,"choice":0,"accuracy":1,"rt":8071.799999998882,"screen_resolution":[900,1600],"minimum_resolution":1,"item_set":3,"item":22,"test_form":1,"distractor":"pd","trial_type":"mars","trial_index":8,"time_elapsed":107931,"internal_node_id":"0.0-7.0-1.0","experiment":"calibration","task_version":"1.0","jspsych_version":"6.3.1","browser_interactions":0},{"rt":null,"stimulus":"<div style=\"font-size:24px;\">Loading puzzle:<br>2 / 16</div>","response":null,"trial_type":"html-keyboard-response","trial_index":9,"time_elapsed":109135,"internal_node_id":"0.0-8.0-0.0","experiment":"calibration","task_version":"1.0","jspsych_version":"6.3.1"},{"puzzle":"../static/img/is3/tf2/tf2_39_M_ss1.jpeg","item_order":[0,2,1,3],"correct":0,"choice":0,"accuracy":1,"rt":28597.900000000373,"screen_resolution":[900,1600],"minimum_resolution":1,"item_set":3,"item":39,"test_form":2,"distractor":"md","trial_type":"mars","trial_index":10,"time_elapsed":137739,"internal_node_id":"0.0-8.0-1.0","experiment":"calibration","task_version":"1.0","jspsych_version":"6.3.1","browser_interactions":0},{"rt":null,"stimulus":"<div style=\"font-size:24px;\">Loading puzzle:<br>3 / 16</div>","response":null,"trial_type":"html-keyboard-response","trial_index":11,"time_elapsed":138940,"internal_node_id":"0.0-9.0-0.0","experiment":"calibration","task_version":"1.0","jspsych_version":"6.3.1"},{"puzzle":"../static/img/is3/tf1/tf1_61_M_ss3.jpeg","item_order":[3,1,2,0],"correct":0,"choice":0,"accuracy":1,"rt":21123.5,"screen_resolution":[900,1600],"minimum_resolution":1,"item_set":3,"item":61,"test_form":1,"distractor":"pd","trial_type":"mars","trial_index":12,"time_elapsed":160067,"internal_node_id":"0.0-9.0-1.0","experiment":"calibration","task_version":"1.0","jspsych_version":"6.3.1","browser_interactions":0},{"rt":null,"stimulus":"<div style=\"font-size:24px;\">Loading puzzle:<br>4 / 16</div>","response":null,"trial_type":"html-keyboard-response","trial_index":13,"time_elapsed":161270,"internal_node_id":"0.0-10.0-0.0","experiment":"calibration","task_version":"1.0","jspsych_version":"6.3.1"},{"puzzle":"../static/img/is3/tf2/tf2_71_M_ss3.jpeg","item_order":[1,0,2,3],"correct":0,"choice":0,"accuracy":1,"rt":20871.400000000373,"screen_resolution":[900,1600],"minimum_resolution":1,"item_set":3,"item":71,"test_form":2,"distractor":"pd","trial_type":"mars","trial_index":14,"time_elapsed":182150,"internal_node_id":"0.0-10.0-1.0","experiment":"calibration","task_version":"1.0","jspsych_version":"6.3.1","browser_interactions":0},{"rt":null,"stimulus":"<div style=\"font-size:24px;\">Loading puzzle:<br>5 / 16</div>","response":null,"trial_type":"html-keyboard-response","trial_index":15,"time_elapsed":183352,"internal_node_id":"0.0-11.0-0.0","experiment":"calibration","task_version":"1.0","jspsych_version":"6.3.1"},{"puzzle":"../static/img/is3/tf2/tf2_34_M_ss2.jpeg","item_order":[0,1,2,3],"correct":0,"choice":0,"accuracy":1,"rt":15761.5,"screen_resolution":[900,1600],"minimum_resolution":1,"item_set":3,"item":34,"test_form":2,"distractor":"pd","trial_type":"mars","trial_index":16,"time_elapsed":199117,"internal_node_id":"0.0-11.0-1.0","experiment":"calibration","task_version":"1.0","jspsych_version":"6.3.1","browser_interactions":0},{"rt":null,"stimulus":"<div style=\"font-size:24px;\">Loading puzzle:<br>6 / 16</div>","response":null,"trial_type":"html-keyboard-response","trial_index":17,"time_elapsed":200319,"internal_node_id":"0.0-12.0-0.0","experiment":"calibration","task_version":"1.0","jspsych_version":"6.3.1"},{"puzzle":"../static/img/is3/tf1/tf1_18_M_ss2.jpeg","item_order":[0,2,1,3],"correct":0,"choice":0,"accuracy":1,"rt":20297.700000001118,"screen_resolution":[900,1600],"minimum_resolution":1,"item_set":3,"item":18,"test_form":1,"distractor":"md","trial_type":"mars","trial_index":18,"time_elapsed":220621,"internal_node_id":"0.0-12.0-1.0","experiment":"calibration","task_version":"1.0","jspsych_version":"6.3.1","browser_interactions":0},{"rt":null,"stimulus":"<div style=\"font-size:24px;\">Loading puzzle:<br>7 / 16</div>","response":null,"trial_type":"html-keyboard-response","trial_index":19,"time_elapsed":221822,"internal_node_id":"0.0-13.0-0.0","experiment":"calibration","task_version":"1.0","jspsych_version":"6.3.1"},{"puzzle":"../static/img/is3/tf2/tf2_17_M_ss3.jpeg","item_order":[0,3,1,2],"correct":0,"choice":2,"accuracy":0,"rt":25779.5,"screen_resolution":[900,1600],"minimum_resolution":1,"item_set":3,"item":17,"test_form":2,"distractor":"md","trial_type":"mars","trial_index":20,"time_elapsed":247608,"internal_node_id":"0.0-13.0-1.0","experiment":"calibration","task_version":"1.0","jspsych_version":"6.3.1","browser_interactions":0},{"rt":null,"stimulus":"<div style=\"font-size:24px;\">Loading puzzle:<br>8 / 16</div>","response":null,"trial_type":"html-keyboard-response","trial_index":21,"time_elapsed":248811,"internal_node_id":"0.0-14.0-0.0","experiment":"calibration","task_version":"1.0","jspsych_version":"6.3.1"},{"puzzle":"../static/img/is3/tf1/tf1_58_M_ss3.jpeg","item_order":[2,1,3,0],"correct":0,"choice":0,"accuracy":1,"rt":18094.300000000745,"screen_resolution":[900,1600],"minimum_resolution":1,"item_set":3,"item":58,"test_form":1,"distractor":"md","trial_type":"mars","trial_index":22,"time_elapsed":266910,"internal_node_id":"0.0-14.0-1.0","experiment":"calibration","task_version":"1.0","jspsych_version":"6.3.1","browser_interactions":0},{"rt":null,"stimulus":"<div style=\"font-size:24px;\">Loading puzzle:<br>9 / 16</div>","response":null,"trial_type":"html-keyboard-response","trial_index":23,"time_elapsed":268112,"internal_node_id":"0.0-15.0-0.0","experiment":"calibration","task_version":"1.0","jspsych_version":"6.3.1"},{"puzzle":"../static/img/is3/tf2/tf2_72_M_ss1.jpeg","item_order":[3,1,2,0],"correct":0,"choice":0,"accuracy":1,"rt":27499.5,"screen_resolution":[900,1600],"minimum_resolution":1,"item_set":3,"item":72,"test_form":2,"distractor":"pd","trial_type":"mars","trial_index":24,"time_elapsed":295616,"internal_node_id":"0.0-15.0-1.0","experiment":"calibration","task_version":"1.0","jspsych_version":"6.3.1","browser_interactions":0},{"rt":null,"stimulus":"<div style=\"font-size:24px;\">Loading puzzle:<br>10 / 16</div>","response":null,"trial_type":"html-keyboard-response","trial_index":25,"time_elapsed":296817,"internal_node_id":"0.0-16.0-0.0","experiment":"calibration","task_version":"1.0","jspsych_version":"6.3.1"},{"puzzle":"../static/img/is3/tf1/tf1_42_M_ss2.jpeg","item_order":[2,1,3,0],"correct":0,"choice":0,"accuracy":1,"rt":21338.200000001118,"screen_resolution":[900,1600],"minimum_resolution":1,"item_set":3,"item":42,"test_form":1,"distractor":"md","trial_type":"mars","trial_index":26,"time_elapsed":318160,"internal_node_id":"0.0-16.0-1.0","experiment":"calibration","task_version":"1.0","jspsych_version":"6.3.1","browser_interactions":0},{"rt":null,"stimulus":"<div style=\"font-size:24px;\">Loading puzzle:<br>11 / 16</div>","response":null,"trial_type":"html-keyboard-response","trial_index":27,"time_elapsed":319361,"internal_node_id":"0.0-17.0-0.0","experiment":"calibration","task_version":"1.0","jspsych_version":"6.3.1"},{"puzzle":"../static/img/is3/tf1/tf1_80_M_ss1.jpeg","item_order":[0,3,1,2],"correct":0,"choice":0,"accuracy":1,"rt":29538.299999998882,"screen_resolution":[900,1600],"minimum_resolution":1,"item_set":3,"item":80,"test_form":1,"distractor":"md","trial_type":"mars","trial_index":28,"time_elapsed":348903,"internal_node_id":"0.0-17.0-1.0","experiment":"calibration","task_version":"1.0","jspsych_version":"6.3.1","browser_interactions":0},{"rt":null,"stimulus":"<div style=\"font-size:24px;\">Loading puzzle:<br>12 / 16</div>","response":null,"trial_type":"html-keyboard-response","trial_index":29,"time_elapsed":350105,"internal_node_id":"0.0-18.0-0.0","experiment":"calibration","task_version":"1.0","jspsych_version":"6.3.1"},{"puzzle":"../static/img/is3/tf2/tf2_74_M_ss3.jpeg","item_order":[1,3,0,2],"correct":0,"choice":2,"accuracy":0,"rt":29866.89999999851,"screen_resolution":[900,1600],"minimum_resolution":1,"item_set":3,"item":74,"test_form":2,"distractor":"md","trial_type":"mars","trial_index":30,"time_elapsed":379977,"internal_node_id":"0.0-18.0-1.0","experiment":"calibration","task_version":"1.0","jspsych_version":"6.3.1","browser_interactions":0},{"rt":null,"stimulus":"<div style=\"font-size:24px;\">Loading puzzle:<br>13 / 16</div>","response":null,"trial_type":"html-keyboard-response","trial_index":31,"time_elapsed":381179,"internal_node_id":"0.0-19.0-0.0","experiment":"calibration","task_version":"1.0","jspsych_version":"6.3.1"},{"puzzle":"../static/img/is3/tf1/tf1_76_M_ss3.jpeg","item_order":[3,1,0,2],"correct":0,"choice":0,"accuracy":1,"rt":24384.699999999255,"screen_resolution":[900,1600],"minimum_resolution":1,"item_set":3,"item":76,"test_form":1,"distractor":"md","trial_type":"mars","trial_index":32,"time_elapsed":405568,"internal_node_id":"0.0-19.0-1.0","experiment":"calibration","task_version":"1.0","jspsych_version":"6.3.1","browser_interactions":0},{"rt":null,"stimulus":"<div style=\"font-size:24px;\">Loading puzzle:<br>14 / 16</div>","response":null,"trial_type":"html-keyboard-response","trial_index":33,"time_elapsed":406770,"internal_node_id":"0.0-20.0-0.0","experiment":"calibration","task_version":"1.0","jspsych_version":"6.3.1"},{"puzzle":"../static/img/is3/tf2/tf2_75_M_ss1.jpeg","item_order":[2,3,0,1],"correct":0,"choice":0,"accuracy":1,"rt":22803.5,"screen_resolution":[900,1600],"minimum_resolution":1,"item_set":3,"item":75,"test_form":2,"distractor":"md","trial_type":"mars","trial_index":34,"time_elapsed":429578,"internal_node_id":"0.0-20.0-1.0","experiment":"calibration","task_version":"1.0","jspsych_version":"6.3.1","browser_interactions":0},{"rt":null,"stimulus":"<div style=\"font-size:24px;\">Loading puzzle:<br>15 / 16</div>","response":null,"trial_type":"html-keyboard-response","trial_index":35,"time_elapsed":430780,"internal_node_id":"0.0-21.0-0.0","experiment":"calibration","task_version":"1.0","jspsych_version":"6.3.1"},{"puzzle":"../static/img/is3/tf1/tf1_30_M_ss2.jpeg","item_order":[3,1,2,0],"correct":0,"choice":0,"accuracy":1,"rt":18210.699999999255,"screen_resolution":[900,1600],"minimum_resolution":1,"item_set":3,"item":30,"test_form":1,"distractor":"md","trial_type":"mars","trial_index":36,"time_elapsed":448994,"internal_node_id":"0.0-21.0-1.0","experiment":"calibration","task_version":"1.0","jspsych_version":"6.3.1","browser_interactions":0},{"rt":null,"stimulus":"<div style=\"font-size:24px;\">Loading puzzle:<br>16 / 16</div>","response":null,"trial_type":"html-keyboard-response","trial_index":37,"time_elapsed":450196,"internal_node_id":"0.0-22.0-0.0","experiment":"calibration","task_version":"1.0","jspsych_version":"6.3.1"},{"puzzle":"../static/img/is3/tf2/tf2_78_M_ss1.jpeg","item_order":[2,1,0,3],"correct":0,"choice":1,"accuracy":0,"rt":18394.800000000745,"screen_resolution":[900,1600],"minimum_resolution":1,"item_set":3,"item":78,"test_form":2,"distractor":"pd","trial_type":"mars","trial_index":38,"time_elapsed":468594,"internal_node_id":"0.0-22.0-1.0","experiment":"calibration","task_version":"1.0","jspsych_version":"6.3.1","browser_interactions":0},{"value":[0,0,0],"trial_type":"call-function","trial_index":39,"time_elapsed":468595,"internal_node_id":"0.0-23.0","experiment":"calibration","task_version":"1.0","jspsych_version":"6.3.1"},{"view_history":[{"page_index":0,"viewing_time":3116.60000000149}],"rt":3116.800000000745,"trial_type":"instructions","trial_index":40,"time_elapsed":471713,"internal_node_id":"0.0-24.0","experiment":"calibration","task_version":"1.0","jspsych_version":"6.3.1"},{"rt":30239,"responses":{"age":"49","gender-categorical":"Male","gender-free-response":"","ethnicity":"Not Hispanic or Latino","race":["White"],"education":"Bachelor degree","free-response":"That was fun!"},"trial_type":"survey-demo","trial_index":41,"time_elapsed":501956,"internal_node_id":"0.0-25.0","experiment":"calibration","task_version":"1.0","jspsych_version":"6.3.1","interactions":"[{\"event\":\"fullscreenenter\",\"trial\":1,\"time\":6515}]"}]