[{"success":true,"timeout":false,"failed_images":[],"failed_audio":[],"failed_video":[],"trial_type":"preload","trial_index":0,"time_elapsed":2237,"internal_node_id":"0.0-0.0","experiment":"calibration","task_version":"1.0","jspsych_version":"6.3.1"},{"success":true,"trial_type":"fullscreen","trial_index":1,"time_elapsed":5360,"internal_node_id":"0.0-1.0","experiment":"calibration","task_version":"1.0","jspsych_version":"6.3.1"},{"view_history":[{"page_index":0,"viewing_time":7257.200000017881},{"page_index":1,"viewing_time":4866.5999999940395},{"page_index":2,"viewing_time":1520.5}],"rt":13646.300000011921,"trial_type":"instructions","trial_index":2,"time_elapsed":19013,"internal_node_id":"0.0-2.0","experiment":"calibration","task_version":"1.0","jspsych_version":"6.3.1"},{"puzzle":"../static/img/practice/pt1_M1.png","item_order":[3,2,0,1],"correct":0,"choice":0,"accuracy":1,"rt":4474.9000000059605,"screen_resolution":[900,1440],"minimum_resolution":1,"item_set":"practice","trial_type":"mars","trial_index":3,"time_elapsed":25492,"internal_node_id":"0.0-3.0-0.0","experiment":"calibration","task_version":"1.0","jspsych_version":"6.3.1"},{"puzzle":"../static/img/practice/pt2_M1.png","item_order":[0,1,3,2],"correct":0,"choice":0,"accuracy":1,"rt":3573.600000023842,"screen_resolution":[900,1440],"minimum_resolution":1,"item_set":"practice","trial_type":"mars","trial_index":4,"time_elapsed":31075,"internal_node_id":"0.0-4.0-0.0","experiment":"calibration","task_version":"1.0","jspsych_version":"6.3.1"},{"puzzle":"../static/img/practice/pt3_M1.png","item_order":[2,1,3,0],"correct":0,"choice":0,"accuracy":1,"rt":2187.5,"screen_resolution":[900,1440],"minimum_resolution":1,"item_set":"practice","trial_type":"mars","trial_index":5,"time_elapsed":35268,"internal_node_id":"0.0-5.0-0.0","experiment":"calibration","task_version":"1.0","jspsych_version":"6.3.1"},{"view_history":[{"page_index":0,"viewing_time":1830.800000011921},{"page_index":1,"viewing_time":11160.299999982119}],"rt":12991.800000011921,"trial_type":"instructions","trial_index":6,"time_elapsed":48260,"internal_node_id":"0.0-6.0","experiment":"calibration","task_version":"1.0","jspsych_version":"6.3.1"},{"rt":null,"stimulus":"<div style=\"font-size:24px;\">Loading puzzle:<br>1 / 16</div>","response":null,"trial_type":"html-keyboard-response","trial_index":7,"time_elapsed":49471,"internal_node_id":"0.0-7.0-0.0","experiment":"calibration","task_version":"1.0","jspsych_version":"6.3.1"},{"puzzle":"../static/img/is3/tf1/tf1_19_M_ss3.jpeg","item_order":[3,1,2,0],"correct":0,"choice":3,"accuracy":0,"rt":4607.5,"screen_resolution":[900,1440],"minimum_resolution":1,"item_set":3,"item":19,"test_form":1,"distractor":"pd","trial_type":"mars","trial_index":8,"time_elapsed":54082,"internal_node_id":"0.0-7.0-1.0","experiment":"calibration","task_version":"1.0","jspsych_version":"6.3.1","browser_interactions":0},{"rt":null,"stimulus":"<div style=\"font-size:24px;\">Loading puzzle:<br>2 / 16</div>","response":null,"trial_type":"html-keyboard-response","trial_index":9,"time_elapsed":55290,"internal_node_id":"0.0-8.0-0.0","experiment":"calibration","task_version":"1.0","jspsych_version":"6.3.1"},{"puzzle":"../static/img/is3/tf2/tf2_39_M_ss1.jpeg","item_order":[1,2,0,3],"correct":0,"choice":0,"accuracy":1,"rt":10607.699999988079,"screen_resolution":[900,1440],"minimum_resolution":1,"item_set":3,"item":39,"test_form":2,"distractor":"pd","trial_type":"mars","trial_index":10,"time_elapsed":65901,"internal_node_id":"0.0-8.0-1.0","experiment":"calibration","task_version":"1.0","jspsych_version":"6.3.1","browser_interactions":0},{"rt":null,"stimulus":"<div style=\"font-size:24px;\">Loading puzzle:<br>3 / 16</div>","response":null,"trial_type":"html-keyboard-response","trial_index":11,"time_elapsed":67106,"internal_node_id":"0.0-9.0-0.0","experiment":"calibration","task_version":"1.0","jspsych_version":"6.3.1"},{"puzzle":"../static/img/is3/tf2/tf2_70_M_ss2.jpeg","item_order":[3,0,2,1],"correct":0,"choice":0,"accuracy":1,"rt":5903.5,"screen_resolution":[900,1440],"minimum_resolution":1,"item_set":3,"item":70,"test_form":2,"distractor":"md","trial_type":"mars","trial_index":12,"time_elapsed":73013,"internal_node_id":"0.0-9.0-1.0","experiment":"calibration","task_version":"1.0","jspsych_version":"6.3.1","browser_interactions":0},{"rt":null,"stimulus":"<div style=\"font-size:24px;\">Loading puzzle:<br>4 / 16</div>","response":null,"trial_type":"html-keyboard-response","trial_index":13,"time_elapsed":74217,"internal_node_id":"0.0-10.0-0.0","experiment":"calibration","task_version":"1.0","jspsych_version":"6.3.1"},{"puzzle":"../static/img/is3/tf1/tf1_51_M_ss2.jpeg","item_order":[1,3,0,2],"correct":0,"choice":0,"accuracy":1,"rt":6700.299999982119,"screen_resolution":[900,1440],"minimum_resolution":1,"item_set":3,"item":51,"test_form":1,"distractor":"pd","trial_type":"mars","trial_index":14,"time_elapsed":80921,"internal_node_id":"0.0-10.0-1.0","experiment":"calibration","task_version":"1.0","jspsych_version":"6.3.1","browser_interactions":0},{"rt":null,"stimulus":"<div style=\"font-size:24px;\">Loading puzzle:<br>5 / 16</div>","response":null,"trial_type":"html-keyboard-response","trial_index":15,"time_elapsed":82124,"internal_node_id":"0.0-11.0-0.0","experiment":"calibration","task_version":"1.0","jspsych_version":"6.3.1"},{"puzzle":"../static/img/is3/tf1/tf1_11_M_ss1.jpeg","item_order":[3,2,0,1],"correct":0,"choice":3,"accuracy":0,"rt":6985.5999999940395,"screen_resolution":[900,1440],"minimum_resolution":1,"item_set":3,"item":11,"test_form":1,"distractor":"md","trial_type":"mars","trial_index":16,"time_elapsed":89113,"internal_node_id":"0.0-11.0-1.0","experiment":"calibration","task_version":"1.0","jspsych_version":"6.3.1","browser_interactions":0},{"rt":null,"stimulus":"<div style=\"font-size:24px;\">Loading puzzle:<br>6 / 16</div>","response":null,"trial_type":"html-keyboard-response","trial_index":17,"time_elapsed":90320,"internal_node_id":"0.0-12.0-0.0","experiment":"calibration","task_version":"1.0","jspsych_version":"6.3.1"},{"puzzle":"../static/img/is3/tf2/tf2_31_M_ss2.jpeg","item_order":[0,1,3,2],"correct":0,"choice":3,"accuracy":0,"rt":9924.300000011921,"screen_resolution":[900,1440],"minimum_resolution":1,"item_set":3,"item":31,"test_form":2,"distractor":"pd","trial_type":"mars","trial_index":18,"time_elapsed":100248,"internal_node_id":"0.0-12.0-1.0","experiment":"calibration","task_version":"1.0","jspsych_version":"6.3.1","browser_interactions":0},{"rt":null,"stimulus":"<div style=\"font-size:24px;\">Loading puzzle:<br>7 / 16</div>","response":null,"trial_type":"html-keyboard-response","trial_index":19,"time_elapsed":101453,"internal_node_id":"0.0-13.0-0.0","experiment":"calibration","task_version":"1.0","jspsych_version":"6.3.1"},{"puzzle":"../static/img/is3/tf2/tf2_17_M_ss3.jpeg","item_order":[2,1,0,3],"correct":0,"choice":3,"accuracy":0,"rt":14908.699999988079,"screen_resolution":[900,1440],"minimum_resolution":1,"item_set":3,"item":17,"test_form":2,"distractor":"md","trial_type":"mars","trial_index":20,"time_elapsed":116365,"internal_node_id":"0.0-13.0-1.0","experiment":"calibration","task_version":"1.0","jspsych_version":"6.3.1","browser_interactions":0},{"rt":null,"stimulus":"<div style=\"font-size:24px;\">Loading puzzle:<br>8 / 16</div>","response":null,"trial_type":"html-keyboard-response","trial_index":21,"time_elapsed":117576,"internal_node_id":"0.0-14.0-0.0","experiment":"calibration","task_version":"1.0","jspsych_version":"6.3.1"},{"puzzle":"../static/img/is3/tf1/tf1_56_M_ss1.jpeg","item_order":[0,3,2,1],"correct":0,"choice":0,"accuracy":1,"rt":7866.299999982119,"screen_resolution":[900,1440],"minimum_resolution":1,"item_set":3,"item":56,"test_form":1,"distractor":"pd","trial_type":"mars","trial_index":22,"time_elapsed":125446,"internal_node_id":"0.0-14.0-1.0","experiment":"calibration","task_version":"1.0","jspsych_version":"6.3.1","browser_interactions":0},{"rt":null,"stimulus":"<div style=\"font-size:24px;\">Loading puzzle:<br>9 / 16</div>","response":null,"trial_type":"html-keyboard-response","trial_index":23,"time_elapsed":126651,"internal_node_id":"0.0-15.0-0.0","experiment":"calibration","task_version":"1.0","jspsych_version":"6.3.1"},{"puzzle":"../static/img/is3/tf1/tf1_53_M_ss1.jpeg","item_order":[3,0,2,1],"correct":0,"choice":1,"accuracy":0,"rt":11795,"screen_resolution":[900,1440],"minimum_resolution":1,"item_set":3,"item":53,"test_form":1,"distractor":"md","trial_type":"mars","trial_index":24,"time_elapsed":138449,"internal_node_id":"0.0-15.0-1.0","experiment":"calibration","task_version":"1.0","jspsych_version":"6.3.1","browser_interactions":0},{"rt":null,"stimulus":"<div style=\"font-size:24px;\">Loading puzzle:<br>10 / 16</div>","response":null,"trial_type":"html-keyboard-response","trial_index":25,"time_elapsed":139653,"internal_node_id":"0.0-16.0-0.0","experiment":"calibration","task_version":"1.0","jspsych_version":"6.3.1"},{"puzzle":"../static/img/is3/tf2/tf2_60_M_ss1.jpeg","item_order":[2,0,1,3],"correct":0,"choice":1,"accuracy":0,"rt":20480,"screen_resolution":[900,1440],"minimum_resolution":1,"item_set":3,"item":60,"test_form":2,"distractor":"md","trial_type":"mars","trial_index":26,"time_elapsed":160136,"internal_node_id":"0.0-16.0-1.0","experiment":"calibration","task_version":"1.0","jspsych_version":"6.3.1","browser_interactions":0},{"rt":null,"stimulus":"<div style=\"font-size:24px;\">Loading puzzle:<br>11 / 16</div>","response":null,"trial_type":"html-keyboard-response","trial_index":27,"time_elapsed":161342,"internal_node_id":"0.0-17.0-0.0","experiment":"calibration","task_version":"1.0","jspsych_version":"6.3.1"},{"puzzle":"../static/img/is3/tf1/tf1_26_M_ss1.jpeg","item_order":[1,0,2,3],"correct":0,"choice":0,"accuracy":1,"rt":23970.69999998808,"screen_resolution":[900,1440],"minimum_resolution":1,"item_set":3,"item":26,"test_form":1,"distractor":"md","trial_type":"mars","trial_index":28,"time_elapsed":185315,"internal_node_id":"0.0-17.0-1.0","experiment":"calibration","task_version":"1.0","jspsych_version":"6.3.1","browser_interactions":0},{"rt":null,"stimulus":"<div style=\"font-size:24px;\">Loading puzzle:<br>12 / 16</div>","response":null,"trial_type":"html-keyboard-response","trial_index":29,"time_elapsed":186521,"internal_node_id":"0.0-18.0-0.0","experiment":"calibration","task_version":"1.0","jspsych_version":"6.3.1"},{"puzzle":"../static/img/is3/tf2/tf2_67_M_ss2.jpeg","item_order":[1,3,0,2],"correct":0,"choice":0,"accuracy":1,"rt":20711.5,"screen_resolution":[900,1440],"minimum_resolution":1,"item_set":3,"item":67,"test_form":2,"distractor":"pd","trial_type":"mars","trial_index":30,"time_elapsed":207236,"internal_node_id":"0.0-18.0-1.0","experiment":"calibration","task_version":"1.0","jspsych_version":"6.3.1","browser_interactions":0},{"rt":null,"stimulus":"<div style=\"font-size:24px;\">Loading puzzle:<br>13 / 16</div>","response":null,"trial_type":"html-keyboard-response","trial_index":31,"time_elapsed":208439,"internal_node_id":"0.0-19.0-0.0","experiment":"calibration","task_version":"1.0","jspsych_version":"6.3.1"},{"puzzle":"../static/img/is3/tf2/tf2_75_M_ss1.jpeg","item_order":[3,0,2,1],"correct":0,"choice":1,"accuracy":0,"rt":15925.40000000596,"screen_resolution":[900,1440],"minimum_resolution":1,"item_set":3,"item":75,"test_form":2,"distractor":"pd","trial_type":"mars","trial_index":32,"time_elapsed":224368,"internal_node_id":"0.0-19.0-1.0","experiment":"calibration","task_version":"1.0","jspsych_version":"6.3.1","browser_interactions":0},{"rt":null,"stimulus":"<div style=\"font-size:24px;\">Loading puzzle:<br>14 / 16</div>","response":null,"trial_type":"html-keyboard-response","trial_index":33,"time_elapsed":225570,"internal_node_id":"0.0-20.0-0.0","experiment":"calibration","task_version":"1.0","jspsych_version":"6.3.1"},{"puzzle":"../static/img/is3/tf1/tf1_46_M_ss3.jpeg","item_order":[3,1,2,0],"correct":0,"choice":2,"accuracy":0,"rt":15062,"screen_resolution":[900,1440],"minimum_resolution":1,"item_set":3,"item":46,"test_form":1,"distractor":"pd","trial_type":"mars","trial_index":34,"time_elapsed":240635,"internal_node_id":"0.0-20.0-1.0","experiment":"calibration","task_version":"1.0","jspsych_version":"6.3.1","browser_interactions":0},{"rt":null,"stimulus":"<div style=\"font-size:24px;\">Loading puzzle:<br>15 / 16</div>","response":null,"trial_type":"html-keyboard-response","trial_index":35,"time_elapsed":241841,"internal_node_id":"0.0-21.0-0.0","experiment":"calibration","task_version":"1.0","jspsych_version":"6.3.1"},{"puzzle":"../static/img/is3/tf2/tf2_45_M_ss1.jpeg","item_order":[3,1,0,2],"correct":0,"choice":0,"accuracy":1,"rt":11098.40000000596,"screen_resolution":[900,1440],"minimum_resolution":1,"item_set":3,"item":45,"test_form":2,"distractor":"md","trial_type":"mars","trial_index":36,"time_elapsed":252944,"internal_node_id":"0.0-21.0-1.0","experiment":"calibration","task_version":"1.0","jspsych_version":"6.3.1","browser_interactions":0},{"rt":null,"stimulus":"<div style=\"font-size:24px;\">Loading puzzle:<br>16 / 16</div>","response":null,"trial_type":"html-keyboard-response","trial_index":37,"time_elapsed":254146,"internal_node_id":"0.0-22.0-0.0","experiment":"calibration","task_version":"1.0","jspsych_version":"6.3.1"},{"puzzle":"../static/img/is3/tf1/tf1_24_M_ss2.jpeg","item_order":[3,0,2,1],"correct":0,"choice":3,"accuracy":0,"rt":9532.399999976158,"screen_resolution":[900,1440],"minimum_resolution":1,"item_set":3,"item":24,"test_form":1,"distractor":"pd","trial_type":"mars","trial_index":38,"time_elapsed":263681,"internal_node_id":"0.0-22.0-1.0","experiment":"calibration","task_version":"1.0","jspsych_version":"6.3.1","browser_interactions":0},{"value":[0,0,0],"trial_type":"call-function","trial_index":39,"time_elapsed":263684,"internal_node_id":"0.0-23.0","experiment":"calibration","task_version":"1.0","jspsych_version":"6.3.1"},{"view_history":[{"page_index":0,"viewing_time":2162.2000000178814}],"rt":2162.7000000178814,"trial_type":"instructions","trial_index":40,"time_elapsed":265849,"internal_node_id":"0.0-24.0","experiment":"calibration","task_version":"1.0","jspsych_version":"6.3.1"},{"rt":13509.799999982119,"responses":{"age":"19","gender-categorical":"Female","gender-free-response":"","ethnicity":"Not Hispanic or Latino","race":["White"],"education":"Some college","free-response":""},"trial_type":"survey-demo","trial_index":41,"time_elapsed":279366,"internal_node_id":"0.0-25.0","experiment":"calibration","task_version":"1.0","jspsych_version":"6.3.1","interactions":"[{\"event\":\"fullscreenenter\",\"trial\":1,\"time\":4366}]"}]