[{"success":true,"timeout":false,"failed_images":[],"failed_audio":[],"failed_video":[],"trial_type":"preload","trial_index":0,"time_elapsed":1869,"internal_node_id":"0.0-0.0","experiment":"calibration","task_version":"1.0","jspsych_version":"6.3.1"},{"success":true,"trial_type":"fullscreen","trial_index":1,"time_elapsed":5076,"internal_node_id":"0.0-1.0","experiment":"calibration","task_version":"1.0","jspsych_version":"6.3.1"},{"view_history":[{"page_index":0,"viewing_time":9909},{"page_index":1,"viewing_time":5457},{"page_index":2,"viewing_time":1719.9000000059605}],"rt":17088.40000000596,"trial_type":"instructions","trial_index":2,"time_elapsed":22181,"internal_node_id":"0.0-3.0","experiment":"calibration","task_version":"1.0","jspsych_version":"6.3.1"},{"puzzle":"../static/img/practice/pt1_M1.png","item_order":[1,0,3,2],"correct":0,"choice":0,"accuracy":1,"rt":8400.40000000596,"screen_resolution":[1080,1920],"minimum_resolution":1,"item_set":"practice","trial_type":"mars","trial_index":3,"time_elapsed":32587,"internal_node_id":"0.0-4.0-0.0","experiment":"calibration","task_version":"1.0","jspsych_version":"6.3.1"},{"puzzle":"../static/img/practice/pt2_M1.png","item_order":[0,2,1,3],"correct":0,"choice":0,"accuracy":1,"rt":2729.5,"screen_resolution":[1080,1920],"minimum_resolution":1,"item_set":"practice","trial_type":"mars","trial_index":4,"time_elapsed":37323,"internal_node_id":"0.0-5.0-0.0","experiment":"calibration","task_version":"1.0","jspsych_version":"6.3.1"},{"puzzle":"../static/img/practice/pt3_M1.png","item_order":[0,3,1,2],"correct":0,"choice":0,"accuracy":1,"rt":1968.800000011921,"screen_resolution":[1080,1920],"minimum_resolution":1,"item_set":"practice","trial_type":"mars","trial_index":5,"time_elapsed":41296,"internal_node_id":"0.0-6.0-0.0","experiment":"calibration","task_version":"1.0","jspsych_version":"6.3.1"},{"view_history":[{"page_index":0,"viewing_time":1909.5},{"page_index":1,"viewing_time":8199.300000011921}],"rt":10109,"trial_type":"instructions","trial_index":6,"time_elapsed":51411,"internal_node_id":"0.0-7.0","experiment":"calibration","task_version":"1.0","jspsych_version":"6.3.1"},{"rt":null,"stimulus":"<div style=\"font-size:24px;\">Loading puzzle:<br>1 / 16</div>","response":null,"trial_type":"html-keyboard-response","trial_index":7,"time_elapsed":52616,"internal_node_id":"0.0-8.0-1.0","experiment":"calibration","task_version":"1.0","jspsych_version":"6.3.1"},{"puzzle":"../static/img/is3/tf2/tf2_25_M_ss2.jpeg","item_order":[0,2,1,3],"correct":0,"choice":0,"accuracy":1,"rt":7905,"screen_resolution":[1080,1920],"minimum_resolution":1,"item_set":3,"item":25,"test_form":2,"distractor":"pd","trial_type":"mars","trial_index":8,"time_elapsed":60526,"internal_node_id":"0.0-8.0-2.0","experiment":"calibration","task_version":"1.0","jspsych_version":"6.3.1","browser_interactions":0},{"rt":null,"stimulus":"<div style=\"font-size:24px;\">Loading puzzle:<br>2 / 16</div>","response":null,"trial_type":"html-keyboard-response","trial_index":9,"time_elapsed":61731,"internal_node_id":"0.0-9.0-1.0","experiment":"calibration","task_version":"1.0","jspsych_version":"6.3.1"},{"puzzle":"../static/img/is3/tf2/tf2_22_M_ss2.jpeg","item_order":[3,0,1,2],"correct":0,"choice":0,"accuracy":1,"rt":10805.600000023842,"screen_resolution":[1080,1920],"minimum_resolution":1,"item_set":3,"item":22,"test_form":2,"distractor":"md","trial_type":"mars","trial_index":10,"time_elapsed":72541,"internal_node_id":"0.0-9.0-2.0","experiment":"calibration","task_version":"1.0","jspsych_version":"6.3.1","browser_interactions":0},{"rt":null,"stimulus":"<div style=\"font-size:24px;\">Loading puzzle:<br>3 / 16</div>","response":null,"trial_type":"html-keyboard-response","trial_index":11,"time_elapsed":73745,"internal_node_id":"0.0-10.0-1.0","experiment":"calibration","task_version":"1.0","jspsych_version":"6.3.1"},{"puzzle":"../static/img/is3/tf3/tf3_65_M_ss2.jpeg","item_order":[1,2,3,0],"correct":0,"choice":0,"accuracy":1,"rt":12725.100000023842,"screen_resolution":[1080,1920],"minimum_resolution":1,"item_set":3,"item":65,"test_form":3,"distractor":"md","trial_type":"mars","trial_index":12,"time_elapsed":86475,"internal_node_id":"0.0-10.0-2.0","experiment":"calibration","task_version":"1.0","jspsych_version":"6.3.1","browser_interactions":0},{"rt":null,"stimulus":"<div style=\"font-size:24px;\">Loading puzzle:<br>4 / 16</div>","response":null,"trial_type":"html-keyboard-response","trial_index":13,"time_elapsed":87677,"internal_node_id":"0.0-11.0-1.0","experiment":"calibration","task_version":"1.0","jspsych_version":"6.3.1"},{"puzzle":"../static/img/is3/tf1/tf1_61_M_ss3.jpeg","item_order":[2,0,1,3],"correct":0,"choice":0,"accuracy":1,"rt":26520.70000001788,"screen_resolution":[1080,1920],"minimum_resolution":1,"item_set":3,"item":61,"test_form":1,"distractor":"pd","trial_type":"mars","trial_index":14,"time_elapsed":114206,"internal_node_id":"0.0-11.0-2.0","experiment":"calibration","task_version":"1.0","jspsych_version":"6.3.1","browser_interactions":0},{"rt":null,"stimulus":"<div style=\"font-size:24px;\">Loading puzzle:<br>5 / 16</div>","response":null,"trial_type":"html-keyboard-response","trial_index":15,"time_elapsed":115409,"internal_node_id":"0.0-12.0-1.0","experiment":"calibration","task_version":"1.0","jspsych_version":"6.3.1"},{"puzzle":"../static/img/is3/tf1/tf1_37_M_ss3.jpeg","item_order":[2,0,3,1],"correct":0,"choice":1,"accuracy":0,"rt":29557,"screen_resolution":[1080,1920],"minimum_resolution":1,"item_set":3,"item":37,"test_form":1,"distractor":"md","trial_type":"mars","trial_index":16,"time_elapsed":144972,"internal_node_id":"0.0-12.0-2.0","experiment":"calibration","task_version":"1.0","jspsych_version":"6.3.1","browser_interactions":0},{"rt":null,"stimulus":"<div style=\"font-size:24px;\">Loading puzzle:<br>6 / 16</div>","response":null,"trial_type":"html-keyboard-response","trial_index":17,"time_elapsed":146176,"internal_node_id":"0.0-13.0-1.0","experiment":"calibration","task_version":"1.0","jspsych_version":"6.3.1"},{"puzzle":"../static/img/is3/tf1/tf1_18_M_ss2.jpeg","item_order":[2,0,1,3],"correct":0,"choice":2,"accuracy":0,"rt":22821.20000001788,"screen_resolution":[1080,1920],"minimum_resolution":1,"item_set":3,"item":18,"test_form":1,"distractor":"md","trial_type":"mars","trial_index":18,"time_elapsed":169008,"internal_node_id":"0.0-13.0-2.0","experiment":"calibration","task_version":"1.0","jspsych_version":"6.3.1","browser_interactions":0},{"rt":null,"stimulus":"<div style=\"font-size:24px;\">Loading puzzle:<br>7 / 16</div>","response":null,"trial_type":"html-keyboard-response","trial_index":19,"time_elapsed":170210,"internal_node_id":"0.0-14.0-1.0","experiment":"calibration","task_version":"1.0","jspsych_version":"6.3.1"},{"puzzle":"../static/img/is3/tf1/tf1_58_M_ss3.jpeg","item_order":[0,1,3,2],"correct":0,"choice":0,"accuracy":1,"rt":13047.40000000596,"screen_resolution":[1080,1920],"minimum_resolution":1,"item_set":3,"item":58,"test_form":1,"distractor":"pd","trial_type":"mars","trial_index":20,"time_elapsed":183262,"internal_node_id":"0.0-14.0-2.0","experiment":"calibration","task_version":"1.0","jspsych_version":"6.3.1","browser_interactions":0},{"rt":null,"stimulus":"<div style=\"font-size:24px;\">Loading puzzle:<br>8 / 16</div>","response":null,"trial_type":"html-keyboard-response","trial_index":21,"time_elapsed":184465,"internal_node_id":"0.0-15.0-1.0","experiment":"calibration","task_version":"1.0","jspsych_version":"6.3.1"},{"puzzle":"../static/img/is3/tf1/tf1_12_M_ss2.jpeg","item_order":[3,2,1,0],"correct":0,"choice":null,"accuracy":null,"rt":null,"screen_resolution":[1080,1920],"minimum_resolution":1,"item_set":3,"item":12,"test_form":1,"distractor":"md","trial_type":"mars","trial_index":22,"time_elapsed":214468,"internal_node_id":"0.0-15.0-2.0","experiment":"calibration","task_version":"1.0","jspsych_version":"6.3.1","browser_interactions":0},{"rt":null,"stimulus":"<div style=\"font-size:24px;\">Loading puzzle:<br>9 / 16</div>","response":null,"trial_type":"html-keyboard-response","trial_index":23,"time_elapsed":215671,"internal_node_id":"0.0-16.0-1.0","experiment":"calibration","task_version":"1.0","jspsych_version":"6.3.1"},{"puzzle":"../static/img/is3/tf2/tf2_53_M_ss3.jpeg","item_order":[3,2,0,1],"correct":0,"choice":0,"accuracy":1,"rt":15661.300000011921,"screen_resolution":[1080,1920],"minimum_resolution":1,"item_set":3,"item":53,"test_form":2,"distractor":"pd","trial_type":"mars","trial_index":24,"time_elapsed":231342,"internal_node_id":"0.0-16.0-2.0","experiment":"calibration","task_version":"1.0","jspsych_version":"6.3.1","browser_interactions":0},{"rt":null,"stimulus":"<div style=\"font-size:24px;\">Loading puzzle:<br>10 / 16</div>","response":null,"trial_type":"html-keyboard-response","trial_index":25,"time_elapsed":232546,"internal_node_id":"0.0-17.0-1.0","experiment":"calibration","task_version":"1.0","jspsych_version":"6.3.1"},{"puzzle":"../static/img/is3/tf2/tf2_72_M_ss1.jpeg","item_order":[2,3,0,1],"correct":0,"choice":0,"accuracy":1,"rt":26206.40000000596,"screen_resolution":[1080,1920],"minimum_resolution":1,"item_set":3,"item":72,"test_form":2,"distractor":"md","trial_type":"mars","trial_index":26,"time_elapsed":258757,"internal_node_id":"0.0-17.0-2.0","experiment":"calibration","task_version":"1.0","jspsych_version":"6.3.1","browser_interactions":0},{"rt":null,"stimulus":"<div style=\"font-size:24px;\">Loading puzzle:<br>11 / 16</div>","response":null,"trial_type":"html-keyboard-response","trial_index":27,"time_elapsed":259960,"internal_node_id":"0.0-18.0-1.0","experiment":"calibration","task_version":"1.0","jspsych_version":"6.3.1"},{"puzzle":"../static/img/is3/tf3/tf3_63_M_ss3.jpeg","item_order":[0,1,3,2],"correct":0,"choice":0,"accuracy":1,"rt":26419.19999998808,"screen_resolution":[1080,1920],"minimum_resolution":1,"item_set":3,"item":63,"test_form":3,"distractor":"md","trial_type":"mars","trial_index":28,"time_elapsed":286386,"internal_node_id":"0.0-18.0-2.0","experiment":"calibration","task_version":"1.0","jspsych_version":"6.3.1","browser_interactions":0},{"rt":null,"stimulus":"<div style=\"font-size:24px;\">Loading puzzle:<br>12 / 16</div>","response":null,"trial_type":"html-keyboard-response","trial_index":29,"time_elapsed":287589,"internal_node_id":"0.0-19.0-1.0","experiment":"calibration","task_version":"1.0","jspsych_version":"6.3.1"},{"puzzle":"../static/img/is3/tf3/tf3_14_M_ss2.jpeg","item_order":[0,1,3,2],"correct":0,"choice":0,"accuracy":1,"rt":27644.30000001192,"screen_resolution":[1080,1920],"minimum_resolution":1,"item_set":3,"item":14,"test_form":3,"distractor":"md","trial_type":"mars","trial_index":30,"time_elapsed":315242,"internal_node_id":"0.0-19.0-2.0","experiment":"calibration","task_version":"1.0","jspsych_version":"6.3.1","browser_interactions":0},{"rt":null,"stimulus":"<div style=\"font-size:24px;\">Loading puzzle:<br>13 / 16</div>","response":null,"trial_type":"html-keyboard-response","trial_index":31,"time_elapsed":316445,"internal_node_id":"0.0-20.0-1.0","experiment":"calibration","task_version":"1.0","jspsych_version":"6.3.1"},{"puzzle":"../static/img/is3/tf1/tf1_55_M_ss3.jpeg","item_order":[3,2,0,1],"correct":0,"choice":0,"accuracy":1,"rt":21177.30000001192,"screen_resolution":[1080,1920],"minimum_resolution":1,"item_set":3,"item":55,"test_form":1,"distractor":"md","trial_type":"mars","trial_index":32,"time_elapsed":337626,"internal_node_id":"0.0-20.0-2.0","experiment":"calibration","task_version":"1.0","jspsych_version":"6.3.1","browser_interactions":0},{"rt":null,"stimulus":"<div style=\"font-size:24px;\">Loading puzzle:<br>14 / 16</div>","response":null,"trial_type":"html-keyboard-response","trial_index":33,"time_elapsed":338829,"internal_node_id":"0.0-21.0-1.0","experiment":"calibration","task_version":"1.0","jspsych_version":"6.3.1"},{"puzzle":"../static/img/is3/tf2/tf2_46_M_ss2.jpeg","item_order":[1,0,3,2],"correct":0,"choice":0,"accuracy":1,"rt":20646.600000023842,"screen_resolution":[1080,1920],"minimum_resolution":1,"item_set":3,"item":46,"test_form":2,"distractor":"md","trial_type":"mars","trial_index":34,"time_elapsed":359485,"internal_node_id":"0.0-21.0-2.0","experiment":"calibration","task_version":"1.0","jspsych_version":"6.3.1","browser_interactions":0},{"rt":null,"stimulus":"<div style=\"font-size:24px;\">Loading puzzle:<br>15 / 16</div>","response":null,"trial_type":"html-keyboard-response","trial_index":35,"time_elapsed":360688,"internal_node_id":"0.0-22.0-1.0","experiment":"calibration","task_version":"1.0","jspsych_version":"6.3.1"},{"puzzle":"../static/img/is3/tf2/tf2_29_M_ss3.jpeg","item_order":[1,0,3,2],"correct":0,"choice":0,"accuracy":1,"rt":24190.5,"screen_resolution":[1080,1920],"minimum_resolution":1,"item_set":3,"item":29,"test_form":2,"distractor":"md","trial_type":"mars","trial_index":36,"time_elapsed":384883,"internal_node_id":"0.0-22.0-2.0","experiment":"calibration","task_version":"1.0","jspsych_version":"6.3.1","browser_interactions":0},{"rt":null,"stimulus":"<div style=\"font-size:24px;\">Loading puzzle:<br>16 / 16</div>","response":null,"trial_type":"html-keyboard-response","trial_index":37,"time_elapsed":386086,"internal_node_id":"0.0-23.0-1.0","experiment":"calibration","task_version":"1.0","jspsych_version":"6.3.1"},{"puzzle":"../static/img/is3/tf2/tf2_45_M_ss1.jpeg","item_order":[3,1,2,0],"correct":0,"choice":0,"accuracy":1,"rt":8360.100000023842,"screen_resolution":[1080,1920],"minimum_resolution":1,"item_set":3,"item":45,"test_form":2,"distractor":"pd","trial_type":"mars","trial_index":38,"time_elapsed":394450,"internal_node_id":"0.0-23.0-2.0","experiment":"calibration","task_version":"1.0","jspsych_version":"6.3.1","browser_interactions":0},{"value":[0,1,0],"trial_type":"call-function","trial_index":39,"time_elapsed":394452,"internal_node_id":"0.0-24.0","experiment":"calibration","task_version":"1.0","jspsych_version":"6.3.1"},{"view_history":[{"page_index":0,"viewing_time":2354.2000000178814}],"rt":2354.9000000059605,"trial_type":"instructions","trial_index":40,"time_elapsed":396810,"internal_node_id":"0.0-25.0","experiment":"calibration","task_version":"1.0","jspsych_version":"6.3.1"},{"rt":19298.40000000596,"responses":{"age":"37","gender-categorical":"Male","gender-free-response":"","ethnicity":"Not Hispanic or Latino","race":["White"],"education":"Master degree or higher","free-response":"N/A"},"trial_type":"survey-demo","trial_index":41,"time_elapsed":416122,"internal_node_id":"0.0-26.0","experiment":"calibration","task_version":"1.0","jspsych_version":"6.3.1","interactions":"[{\"event\":\"fullscreenenter\",\"trial\":1,\"time\":4127}]"}]