[{"success":true,"timeout":false,"failed_images":[],"failed_audio":[],"failed_video":[],"trial_type":"preload","trial_index":0,"time_elapsed":2274,"internal_node_id":"0.0-0.0","experiment":"calibration","task_version":"1.0","jspsych_version":"6.3.1"},{"success":true,"trial_type":"fullscreen","trial_index":1,"time_elapsed":7185,"internal_node_id":"0.0-1.0","experiment":"calibration","task_version":"1.0","jspsych_version":"6.3.1"},{"view_history":[{"page_index":0,"viewing_time":4706.299999999814},{"page_index":1,"viewing_time":7952.700000000186},{"page_index":2,"viewing_time":1174.7999999998137}],"rt":13834.5,"trial_type":"instructions","trial_index":2,"time_elapsed":21026,"internal_node_id":"0.0-2.0","experiment":"calibration","task_version":"1.0","jspsych_version":"6.3.1"},{"puzzle":"../static/img/practice/pt1_M1.png","item_order":[1,2,0,3],"correct":0,"choice":0,"accuracy":1,"rt":5629.9000000003725,"screen_resolution":[864,1536],"minimum_resolution":1,"item_set":"practice","trial_type":"mars","trial_index":3,"time_elapsed":28678,"internal_node_id":"0.0-3.0-0.0","experiment":"calibration","task_version":"1.0","jspsych_version":"6.3.1"},{"puzzle":"../static/img/practice/pt2_M1.png","item_order":[3,1,0,2],"correct":0,"choice":0,"accuracy":1,"rt":2668.2999999998137,"screen_resolution":[864,1536],"minimum_resolution":1,"item_set":"practice","trial_type":"mars","trial_index":4,"time_elapsed":33357,"internal_node_id":"0.0-4.0-0.0","experiment":"calibration","task_version":"1.0","jspsych_version":"6.3.1"},{"puzzle":"../static/img/practice/pt3_M1.png","item_order":[1,0,2,3],"correct":0,"choice":0,"accuracy":1,"rt":1661.2999999998137,"screen_resolution":[864,1536],"minimum_resolution":1,"item_set":"practice","trial_type":"mars","trial_index":5,"time_elapsed":37033,"internal_node_id":"0.0-5.0-0.0","experiment":"calibration","task_version":"1.0","jspsych_version":"6.3.1"},{"view_history":[{"page_index":0,"viewing_time":2677.7000000001863},{"page_index":1,"viewing_time":5242.5}],"rt":7920.899999999441,"trial_type":"instructions","trial_index":6,"time_elapsed":44957,"internal_node_id":"0.0-6.0","experiment":"calibration","task_version":"1.0","jspsych_version":"6.3.1"},{"rt":null,"stimulus":"<div style=\"font-size:24px;\">Loading puzzle:<br>1 / 16</div>","response":null,"trial_type":"html-keyboard-response","trial_index":7,"time_elapsed":46173,"internal_node_id":"0.0-7.0-0.0","experiment":"calibration","task_version":"1.0","jspsych_version":"6.3.1"},{"puzzle":"../static/img/is3/tf1/tf1_39_M_ss2.jpeg","item_order":[3,2,1,0],"correct":0,"choice":1,"accuracy":0,"rt":25521.799999999814,"screen_resolution":[864,1536],"minimum_resolution":1,"item_set":3,"item":39,"test_form":1,"distractor":"md","trial_type":"mars","trial_index":8,"time_elapsed":71710,"internal_node_id":"0.0-7.0-1.0","experiment":"calibration","task_version":"1.0","jspsych_version":"6.3.1","browser_interactions":0},{"rt":null,"stimulus":"<div style=\"font-size:24px;\">Loading puzzle:<br>2 / 16</div>","response":null,"trial_type":"html-keyboard-response","trial_index":9,"time_elapsed":72919,"internal_node_id":"0.0-8.0-0.0","experiment":"calibration","task_version":"1.0","jspsych_version":"6.3.1"},{"puzzle":"../static/img/is3/tf2/tf2_22_M_ss2.jpeg","item_order":[3,2,1,0],"correct":0,"choice":0,"accuracy":1,"rt":6406.5,"screen_resolution":[864,1536],"minimum_resolution":1,"item_set":3,"item":22,"test_form":2,"distractor":"pd","trial_type":"mars","trial_index":10,"time_elapsed":79332,"internal_node_id":"0.0-8.0-1.0","experiment":"calibration","task_version":"1.0","jspsych_version":"6.3.1","browser_interactions":0},{"rt":null,"stimulus":"<div style=\"font-size:24px;\">Loading puzzle:<br>3 / 16</div>","response":null,"trial_type":"html-keyboard-response","trial_index":11,"time_elapsed":80536,"internal_node_id":"0.0-9.0-0.0","experiment":"calibration","task_version":"1.0","jspsych_version":"6.3.1"},{"puzzle":"../static/img/is3/tf2/tf2_61_M_ss2.jpeg","item_order":[0,1,3,2],"correct":0,"choice":0,"accuracy":1,"rt":10041,"screen_resolution":[864,1536],"minimum_resolution":1,"item_set":3,"item":61,"test_form":2,"distractor":"pd","trial_type":"mars","trial_index":12,"time_elapsed":90588,"internal_node_id":"0.0-9.0-1.0","experiment":"calibration","task_version":"1.0","jspsych_version":"6.3.1","browser_interactions":0},{"rt":null,"stimulus":"<div style=\"font-size:24px;\">Loading puzzle:<br>4 / 16</div>","response":null,"trial_type":"html-keyboard-response","trial_index":13,"time_elapsed":91792,"internal_node_id":"0.0-10.0-0.0","experiment":"calibration","task_version":"1.0","jspsych_version":"6.3.1"},{"puzzle":"../static/img/is3/tf1/tf1_71_M_ss1.jpeg","item_order":[0,3,1,2],"correct":0,"choice":0,"accuracy":1,"rt":6359.9000000003725,"screen_resolution":[864,1536],"minimum_resolution":1,"item_set":3,"item":71,"test_form":1,"distractor":"md","trial_type":"mars","trial_index":14,"time_elapsed":98165,"internal_node_id":"0.0-10.0-1.0","experiment":"calibration","task_version":"1.0","jspsych_version":"6.3.1","browser_interactions":0},{"rt":null,"stimulus":"<div style=\"font-size:24px;\">Loading puzzle:<br>5 / 16</div>","response":null,"trial_type":"html-keyboard-response","trial_index":15,"time_elapsed":99372,"internal_node_id":"0.0-11.0-0.0","experiment":"calibration","task_version":"1.0","jspsych_version":"6.3.1"},{"puzzle":"../static/img/is3/tf2/tf2_11_M_ss3.jpeg","item_order":[0,2,3,1],"correct":0,"choice":0,"accuracy":1,"rt":11602.5,"screen_resolution":[864,1536],"minimum_resolution":1,"item_set":3,"item":11,"test_form":2,"distractor":"pd","trial_type":"mars","trial_index":16,"time_elapsed":110983,"internal_node_id":"0.0-11.0-1.0","experiment":"calibration","task_version":"1.0","jspsych_version":"6.3.1","browser_interactions":0},{"rt":null,"stimulus":"<div style=\"font-size:24px;\">Loading puzzle:<br>6 / 16</div>","response":null,"trial_type":"html-keyboard-response","trial_index":17,"time_elapsed":112195,"internal_node_id":"0.0-12.0-0.0","experiment":"calibration","task_version":"1.0","jspsych_version":"6.3.1"},{"puzzle":"../static/img/is3/tf1/tf1_31_M_ss3.jpeg","item_order":[1,2,0,3],"correct":0,"choice":0,"accuracy":1,"rt":13336.100000000559,"screen_resolution":[864,1536],"minimum_resolution":1,"item_set":3,"item":31,"test_form":1,"distractor":"md","trial_type":"mars","trial_index":18,"time_elapsed":125544,"internal_node_id":"0.0-12.0-1.0","experiment":"calibration","task_version":"1.0","jspsych_version":"6.3.1","browser_interactions":0},{"rt":null,"stimulus":"<div style=\"font-size:24px;\">Loading puzzle:<br>7 / 16</div>","response":null,"trial_type":"html-keyboard-response","trial_index":19,"time_elapsed":126755,"internal_node_id":"0.0-13.0-0.0","experiment":"calibration","task_version":"1.0","jspsych_version":"6.3.1"},{"puzzle":"../static/img/is3/tf2/tf2_62_M_ss3.jpeg","item_order":[1,2,0,3],"correct":0,"choice":0,"accuracy":1,"rt":8543.599999999627,"screen_resolution":[864,1536],"minimum_resolution":1,"item_set":3,"item":62,"test_form":2,"distractor":"pd","trial_type":"mars","trial_index":20,"time_elapsed":135313,"internal_node_id":"0.0-13.0-1.0","experiment":"calibration","task_version":"1.0","jspsych_version":"6.3.1","browser_interactions":0},{"rt":null,"stimulus":"<div style=\"font-size:24px;\">Loading puzzle:<br>8 / 16</div>","response":null,"trial_type":"html-keyboard-response","trial_index":21,"time_elapsed":136518,"internal_node_id":"0.0-14.0-0.0","experiment":"calibration","task_version":"1.0","jspsych_version":"6.3.1"},{"puzzle":"../static/img/is3/tf1/tf1_12_M_ss2.jpeg","item_order":[1,0,2,3],"correct":0,"choice":2,"accuracy":0,"rt":5038.699999999255,"screen_resolution":[864,1536],"minimum_resolution":1,"item_set":3,"item":12,"test_form":1,"distractor":"md","trial_type":"mars","trial_index":22,"time_elapsed":141571,"internal_node_id":"0.0-14.0-1.0","experiment":"calibration","task_version":"1.0","jspsych_version":"6.3.1","browser_interactions":0},{"rt":null,"stimulus":"<div style=\"font-size:24px;\">Loading puzzle:<br>9 / 16</div>","response":null,"trial_type":"html-keyboard-response","trial_index":23,"time_elapsed":142784,"internal_node_id":"0.0-15.0-0.0","experiment":"calibration","task_version":"1.0","jspsych_version":"6.3.1"},{"puzzle":"../static/img/is3/tf1/tf1_72_M_ss2.jpeg","item_order":[3,0,1,2],"correct":0,"choice":0,"accuracy":1,"rt":8265.600000000559,"screen_resolution":[864,1536],"minimum_resolution":1,"item_set":3,"item":72,"test_form":1,"distractor":"md","trial_type":"mars","trial_index":24,"time_elapsed":151064,"internal_node_id":"0.0-15.0-1.0","experiment":"calibration","task_version":"1.0","jspsych_version":"6.3.1","browser_interactions":0},{"rt":null,"stimulus":"<div style=\"font-size:24px;\">Loading puzzle:<br>10 / 16</div>","response":null,"trial_type":"html-keyboard-response","trial_index":25,"time_elapsed":152276,"internal_node_id":"0.0-16.0-0.0","experiment":"calibration","task_version":"1.0","jspsych_version":"6.3.1"},{"puzzle":"../static/img/is3/tf2/tf2_40_M_ss2.jpeg","item_order":[2,0,3,1],"correct":0,"choice":3,"accuracy":0,"rt":10028.800000000745,"screen_resolution":[864,1536],"minimum_resolution":1,"item_set":3,"item":40,"test_form":2,"distractor":"pd","trial_type":"mars","trial_index":26,"time_elapsed":162313,"internal_node_id":"0.0-16.0-1.0","experiment":"calibration","task_version":"1.0","jspsych_version":"6.3.1","browser_interactions":0},{"rt":null,"stimulus":"<div style=\"font-size:24px;\">Loading puzzle:<br>11 / 16</div>","response":null,"trial_type":"html-keyboard-response","trial_index":27,"time_elapsed":163521,"internal_node_id":"0.0-17.0-0.0","experiment":"calibration","task_version":"1.0","jspsych_version":"6.3.1"},{"puzzle":"../static/img/is3/tf2/tf2_80_M_ss3.jpeg","item_order":[3,2,1,0],"correct":0,"choice":3,"accuracy":0,"rt":14226.700000000186,"screen_resolution":[864,1536],"minimum_resolution":1,"item_set":3,"item":80,"test_form":2,"distractor":"pd","trial_type":"mars","trial_index":28,"time_elapsed":177751,"internal_node_id":"0.0-17.0-1.0","experiment":"calibration","task_version":"1.0","jspsych_version":"6.3.1","browser_interactions":0},{"rt":null,"stimulus":"<div style=\"font-size:24px;\">Loading puzzle:<br>12 / 16</div>","response":null,"trial_type":"html-keyboard-response","trial_index":29,"time_elapsed":178962,"internal_node_id":"0.0-18.0-0.0","experiment":"calibration","task_version":"1.0","jspsych_version":"6.3.1"},{"puzzle":"../static/img/is3/tf1/tf1_74_M_ss1.jpeg","item_order":[0,2,1,3],"correct":0,"choice":1,"accuracy":0,"rt":16338.099999999627,"screen_resolution":[864,1536],"minimum_resolution":1,"item_set":3,"item":74,"test_form":1,"distractor":"md","trial_type":"mars","trial_index":30,"time_elapsed":195315,"internal_node_id":"0.0-18.0-1.0","experiment":"calibration","task_version":"1.0","jspsych_version":"6.3.1","browser_interactions":0},{"rt":null,"stimulus":"<div style=\"font-size:24px;\">Loading puzzle:<br>13 / 16</div>","response":null,"trial_type":"html-keyboard-response","trial_index":31,"time_elapsed":196520,"internal_node_id":"0.0-19.0-0.0","experiment":"calibration","task_version":"1.0","jspsych_version":"6.3.1"},{"puzzle":"../static/img/is3/tf2/tf2_76_M_ss2.jpeg","item_order":[0,3,2,1],"correct":0,"choice":0,"accuracy":1,"rt":7969.799999999814,"screen_resolution":[864,1536],"minimum_resolution":1,"item_set":3,"item":76,"test_form":2,"distractor":"pd","trial_type":"mars","trial_index":32,"time_elapsed":204493,"internal_node_id":"0.0-19.0-1.0","experiment":"calibration","task_version":"1.0","jspsych_version":"6.3.1","browser_interactions":0},{"rt":null,"stimulus":"<div style=\"font-size:24px;\">Loading puzzle:<br>14 / 16</div>","response":null,"trial_type":"html-keyboard-response","trial_index":33,"time_elapsed":205704,"internal_node_id":"0.0-20.0-0.0","experiment":"calibration","task_version":"1.0","jspsych_version":"6.3.1"},{"puzzle":"../static/img/is3/tf1/tf1_64_M_ss3.jpeg","item_order":[0,2,1,3],"correct":0,"choice":0,"accuracy":1,"rt":7472,"screen_resolution":[864,1536],"minimum_resolution":1,"item_set":3,"item":64,"test_form":1,"distractor":"md","trial_type":"mars","trial_index":34,"time_elapsed":213180,"internal_node_id":"0.0-20.0-1.0","experiment":"calibration","task_version":"1.0","jspsych_version":"6.3.1","browser_interactions":0},{"rt":null,"stimulus":"<div style=\"font-size:24px;\">Loading puzzle:<br>15 / 16</div>","response":null,"trial_type":"html-keyboard-response","trial_index":35,"time_elapsed":214382,"internal_node_id":"0.0-21.0-0.0","experiment":"calibration","task_version":"1.0","jspsych_version":"6.3.1"},{"puzzle":"../static/img/is3/tf2/tf2_24_M_ss1.jpeg","item_order":[0,2,1,3],"correct":0,"choice":0,"accuracy":1,"rt":12110.599999999627,"screen_resolution":[864,1536],"minimum_resolution":1,"item_set":3,"item":24,"test_form":2,"distractor":"pd","trial_type":"mars","trial_index":36,"time_elapsed":226510,"internal_node_id":"0.0-21.0-1.0","experiment":"calibration","task_version":"1.0","jspsych_version":"6.3.1","browser_interactions":0},{"rt":null,"stimulus":"<div style=\"font-size:24px;\">Loading puzzle:<br>16 / 16</div>","response":null,"trial_type":"html-keyboard-response","trial_index":37,"time_elapsed":227716,"internal_node_id":"0.0-22.0-0.0","experiment":"calibration","task_version":"1.0","jspsych_version":"6.3.1"},{"puzzle":"../static/img/is3/tf1/tf1_66_M_ss2.jpeg","item_order":[1,2,0,3],"correct":0,"choice":2,"accuracy":0,"rt":15219.100000000559,"screen_resolution":[864,1536],"minimum_resolution":1,"item_set":3,"item":66,"test_form":1,"distractor":"md","trial_type":"mars","trial_index":38,"time_elapsed":242939,"internal_node_id":"0.0-22.0-1.0","experiment":"calibration","task_version":"1.0","jspsych_version":"6.3.1","browser_interactions":0},{"view_history":[{"page_index":0,"viewing_time":17254.200000000186}],"rt":17254.799999999814,"trial_type":"instructions","trial_index":39,"time_elapsed":260196,"internal_node_id":"0.0-23.0","experiment":"calibration","task_version":"1.0","jspsych_version":"6.3.1"},{"rt":25411.799999999814,"responses":{"age":"19","gender-categorical":"Female","gender-free-response":"","ethnicity":"Not Hispanic or Latino","race":["White"],"education":"Some college","free-response":":)"},"trial_type":"survey-demo","trial_index":40,"time_elapsed":285615,"internal_node_id":"0.0-24.0","experiment":"calibration","task_version":"1.0","jspsych_version":"6.3.1","interactions":"[{\"event\":\"fullscreenenter\",\"trial\":1,\"time\":6204}]"}]