[{"success":true,"timeout":false,"failed_images":[],"failed_audio":[],"failed_video":[],"trial_type":"preload","trial_index":0,"time_elapsed":2566,"internal_node_id":"0.0-0.0","experiment":"calibration","task_version":"1.0","jspsych_version":"6.3.1"},{"success":true,"trial_type":"fullscreen","trial_index":1,"time_elapsed":5873,"internal_node_id":"0.0-1.0","experiment":"calibration","task_version":"1.0","jspsych_version":"6.3.1"},{"view_history":[{"page_index":0,"viewing_time":7221.699999988079},{"page_index":1,"viewing_time":2565.9000000059605},{"page_index":2,"viewing_time":1185.9000000059605}],"rt":10974.09999999404,"trial_type":"instructions","trial_index":2,"time_elapsed":16850,"internal_node_id":"0.0-2.0","experiment":"calibration","task_version":"1.0","jspsych_version":"6.3.1"},{"puzzle":"../static/img/practice/pt1_M1.png","item_order":[3,2,0,1],"correct":0,"choice":0,"accuracy":1,"rt":6707,"screen_resolution":[1080,1920],"minimum_resolution":1,"item_set":"practice","trial_type":"mars","trial_index":3,"time_elapsed":25574,"internal_node_id":"0.0-3.0-0.0","experiment":"calibration","task_version":"1.0","jspsych_version":"6.3.1"},{"puzzle":"../static/img/practice/pt2_M1.png","item_order":[1,0,3,2],"correct":0,"choice":0,"accuracy":1,"rt":2841.399999976158,"screen_resolution":[1080,1920],"minimum_resolution":1,"item_set":"practice","trial_type":"mars","trial_index":4,"time_elapsed":30420,"internal_node_id":"0.0-4.0-0.0","experiment":"calibration","task_version":"1.0","jspsych_version":"6.3.1"},{"puzzle":"../static/img/practice/pt3_M1.png","item_order":[3,0,2,1],"correct":0,"choice":0,"accuracy":1,"rt":2139.800000011921,"screen_resolution":[1080,1920],"minimum_resolution":1,"item_set":"practice","trial_type":"mars","trial_index":5,"time_elapsed":34564,"internal_node_id":"0.0-5.0-0.0","experiment":"calibration","task_version":"1.0","jspsych_version":"6.3.1"},{"view_history":[{"page_index":0,"viewing_time":1285.4000000059605},{"page_index":1,"viewing_time":5331.800000011921}],"rt":6617.300000011921,"trial_type":"instructions","trial_index":6,"time_elapsed":41184,"internal_node_id":"0.0-6.0","experiment":"calibration","task_version":"1.0","jspsych_version":"6.3.1"},{"rt":null,"stimulus":"<div style=\"font-size:24px;\">Loading puzzle:<br>1 / 16</div>","response":null,"trial_type":"html-keyboard-response","trial_index":7,"time_elapsed":42387,"internal_node_id":"0.0-7.0-0.0","experiment":"calibration","task_version":"1.0","jspsych_version":"6.3.1"},{"puzzle":"../static/img/is3/tf1/tf1_20_M_ss1.jpeg","item_order":[2,1,3,0],"correct":0,"choice":0,"accuracy":1,"rt":13272,"screen_resolution":[1080,1920],"minimum_resolution":1,"item_set":3,"item":20,"test_form":1,"distractor":"md","trial_type":"mars","trial_index":8,"time_elapsed":55662,"internal_node_id":"0.0-7.0-1.0","experiment":"calibration","task_version":"1.0","jspsych_version":"6.3.1","browser_interactions":0},{"rt":null,"stimulus":"<div style=\"font-size:24px;\">Loading puzzle:<br>2 / 16</div>","response":null,"trial_type":"html-keyboard-response","trial_index":9,"time_elapsed":56866,"internal_node_id":"0.0-8.0-0.0","experiment":"calibration","task_version":"1.0","jspsych_version":"6.3.1"},{"puzzle":"../static/img/is3/tf2/tf2_39_M_ss1.jpeg","item_order":[0,2,3,1],"correct":0,"choice":0,"accuracy":1,"rt":16234.700000017881,"screen_resolution":[1080,1920],"minimum_resolution":1,"item_set":3,"item":39,"test_form":2,"distractor":"pd","trial_type":"mars","trial_index":10,"time_elapsed":73102,"internal_node_id":"0.0-8.0-1.0","experiment":"calibration","task_version":"1.0","jspsych_version":"6.3.1","browser_interactions":0},{"rt":null,"stimulus":"<div style=\"font-size:24px;\">Loading puzzle:<br>3 / 16</div>","response":null,"trial_type":"html-keyboard-response","trial_index":11,"time_elapsed":74304,"internal_node_id":"0.0-9.0-0.0","experiment":"calibration","task_version":"1.0","jspsych_version":"6.3.1"},{"puzzle":"../static/img/is3/tf2/tf2_10_M_ss2.jpeg","item_order":[1,3,0,2],"correct":0,"choice":3,"accuracy":0,"rt":25373,"screen_resolution":[1080,1920],"minimum_resolution":1,"item_set":3,"item":10,"test_form":2,"distractor":"md","trial_type":"mars","trial_index":12,"time_elapsed":99679,"internal_node_id":"0.0-9.0-1.0","experiment":"calibration","task_version":"1.0","jspsych_version":"6.3.1","browser_interactions":0},{"rt":null,"stimulus":"<div style=\"font-size:24px;\">Loading puzzle:<br>4 / 16</div>","response":null,"trial_type":"html-keyboard-response","trial_index":13,"time_elapsed":100882,"internal_node_id":"0.0-10.0-0.0","experiment":"calibration","task_version":"1.0","jspsych_version":"6.3.1"},{"puzzle":"../static/img/is3/tf1/tf1_49_M_ss3.jpeg","item_order":[3,1,0,2],"correct":0,"choice":0,"accuracy":1,"rt":10607.300000011921,"screen_resolution":[1080,1920],"minimum_resolution":1,"item_set":3,"item":49,"test_form":1,"distractor":"pd","trial_type":"mars","trial_index":14,"time_elapsed":111492,"internal_node_id":"0.0-10.0-1.0","experiment":"calibration","task_version":"1.0","jspsych_version":"6.3.1","browser_interactions":0},{"rt":null,"stimulus":"<div style=\"font-size:24px;\">Loading puzzle:<br>5 / 16</div>","response":null,"trial_type":"html-keyboard-response","trial_index":15,"time_elapsed":112695,"internal_node_id":"0.0-11.0-0.0","experiment":"calibration","task_version":"1.0","jspsych_version":"6.3.1"},{"puzzle":"../static/img/is3/tf1/tf1_15_M_ss2.jpeg","item_order":[1,0,2,3],"correct":0,"choice":0,"accuracy":1,"rt":16117.199999988079,"screen_resolution":[1080,1920],"minimum_resolution":1,"item_set":3,"item":15,"test_form":1,"distractor":"md","trial_type":"mars","trial_index":16,"time_elapsed":128815,"internal_node_id":"0.0-11.0-1.0","experiment":"calibration","task_version":"1.0","jspsych_version":"6.3.1","browser_interactions":0},{"rt":null,"stimulus":"<div style=\"font-size:24px;\">Loading puzzle:<br>6 / 16</div>","response":null,"trial_type":"html-keyboard-response","trial_index":17,"time_elapsed":130017,"internal_node_id":"0.0-12.0-0.0","experiment":"calibration","task_version":"1.0","jspsych_version":"6.3.1"},{"puzzle":"../static/img/is3/tf2/tf2_37_M_ss2.jpeg","item_order":[1,2,3,0],"correct":0,"choice":0,"accuracy":1,"rt":17555.600000023842,"screen_resolution":[1080,1920],"minimum_resolution":1,"item_set":3,"item":37,"test_form":2,"distractor":"pd","trial_type":"mars","trial_index":18,"time_elapsed":147577,"internal_node_id":"0.0-12.0-1.0","experiment":"calibration","task_version":"1.0","jspsych_version":"6.3.1","browser_interactions":0},{"rt":null,"stimulus":"<div style=\"font-size:24px;\">Loading puzzle:<br>7 / 16</div>","response":null,"trial_type":"html-keyboard-response","trial_index":19,"time_elapsed":148780,"internal_node_id":"0.0-13.0-0.0","experiment":"calibration","task_version":"1.0","jspsych_version":"6.3.1"},{"puzzle":"../static/img/is3/tf2/tf2_77_M_ss3.jpeg","item_order":[1,0,2,3],"correct":0,"choice":0,"accuracy":1,"rt":8811.90000000596,"screen_resolution":[1080,1920],"minimum_resolution":1,"item_set":3,"item":77,"test_form":2,"distractor":"md","trial_type":"mars","trial_index":20,"time_elapsed":157594,"internal_node_id":"0.0-13.0-1.0","experiment":"calibration","task_version":"1.0","jspsych_version":"6.3.1","browser_interactions":0},{"rt":null,"stimulus":"<div style=\"font-size:24px;\">Loading puzzle:<br>8 / 16</div>","response":null,"trial_type":"html-keyboard-response","trial_index":21,"time_elapsed":158797,"internal_node_id":"0.0-14.0-0.0","experiment":"calibration","task_version":"1.0","jspsych_version":"6.3.1"},{"puzzle":"../static/img/is3/tf1/tf1_69_M_ss2.jpeg","item_order":[1,0,2,3],"correct":0,"choice":0,"accuracy":1,"rt":11538.40000000596,"screen_resolution":[1080,1920],"minimum_resolution":1,"item_set":3,"item":69,"test_form":1,"distractor":"pd","trial_type":"mars","trial_index":22,"time_elapsed":170339,"internal_node_id":"0.0-14.0-1.0","experiment":"calibration","task_version":"1.0","jspsych_version":"6.3.1","browser_interactions":0},{"rt":null,"stimulus":"<div style=\"font-size:24px;\">Loading puzzle:<br>9 / 16</div>","response":null,"trial_type":"html-keyboard-response","trial_index":23,"time_elapsed":171541,"internal_node_id":"0.0-15.0-0.0","experiment":"calibration","task_version":"1.0","jspsych_version":"6.3.1"},{"puzzle":"../static/img/is3/tf2/tf2_60_M_ss1.jpeg","item_order":[3,2,0,1],"correct":0,"choice":1,"accuracy":0,"rt":25506.40000000596,"screen_resolution":[1080,1920],"minimum_resolution":1,"item_set":3,"item":60,"test_form":2,"distractor":"md","trial_type":"mars","trial_index":24,"time_elapsed":197050,"internal_node_id":"0.0-15.0-1.0","experiment":"calibration","task_version":"1.0","jspsych_version":"6.3.1","browser_interactions":0},{"rt":null,"stimulus":"<div style=\"font-size:24px;\">Loading puzzle:<br>10 / 16</div>","response":null,"trial_type":"html-keyboard-response","trial_index":25,"time_elapsed":198253,"internal_node_id":"0.0-16.0-0.0","experiment":"calibration","task_version":"1.0","jspsych_version":"6.3.1"},{"puzzle":"../static/img/is3/tf1/tf1_40_M_ss3.jpeg","item_order":[1,0,2,3],"correct":0,"choice":0,"accuracy":1,"rt":10789.09999999404,"screen_resolution":[1080,1920],"minimum_resolution":1,"item_set":3,"item":40,"test_form":1,"distractor":"pd","trial_type":"mars","trial_index":26,"time_elapsed":209045,"internal_node_id":"0.0-16.0-1.0","experiment":"calibration","task_version":"1.0","jspsych_version":"6.3.1","browser_interactions":0},{"rt":null,"stimulus":"<div style=\"font-size:24px;\">Loading puzzle:<br>11 / 16</div>","response":null,"trial_type":"html-keyboard-response","trial_index":27,"time_elapsed":210252,"internal_node_id":"0.0-17.0-0.0","experiment":"calibration","task_version":"1.0","jspsych_version":"6.3.1"},{"puzzle":"../static/img/is3/tf2/tf2_67_M_ss2.jpeg","item_order":[2,1,0,3],"correct":0,"choice":0,"accuracy":1,"rt":13892.5,"screen_resolution":[1080,1920],"minimum_resolution":1,"item_set":3,"item":67,"test_form":2,"distractor":"pd","trial_type":"mars","trial_index":28,"time_elapsed":224147,"internal_node_id":"0.0-17.0-1.0","experiment":"calibration","task_version":"1.0","jspsych_version":"6.3.1","browser_interactions":0},{"rt":null,"stimulus":"<div style=\"font-size:24px;\">Loading puzzle:<br>12 / 16</div>","response":null,"trial_type":"html-keyboard-response","trial_index":29,"time_elapsed":225350,"internal_node_id":"0.0-18.0-0.0","experiment":"calibration","task_version":"1.0","jspsych_version":"6.3.1"},{"puzzle":"../static/img/is3/tf1/tf1_52_M_ss3.jpeg","item_order":[2,3,1,0],"correct":0,"choice":3,"accuracy":0,"rt":28594.399999976158,"screen_resolution":[1080,1920],"minimum_resolution":1,"item_set":3,"item":52,"test_form":1,"distractor":"md","trial_type":"mars","trial_index":30,"time_elapsed":253948,"internal_node_id":"0.0-18.0-1.0","experiment":"calibration","task_version":"1.0","jspsych_version":"6.3.1","browser_interactions":0},{"rt":null,"stimulus":"<div style=\"font-size:24px;\">Loading puzzle:<br>13 / 16</div>","response":null,"trial_type":"html-keyboard-response","trial_index":31,"time_elapsed":255150,"internal_node_id":"0.0-19.0-0.0","experiment":"calibration","task_version":"1.0","jspsych_version":"6.3.1"},{"puzzle":"../static/img/is3/tf1/tf1_44_M_ss1.jpeg","item_order":[0,2,1,3],"correct":0,"choice":0,"accuracy":1,"rt":16634.5,"screen_resolution":[1080,1920],"minimum_resolution":1,"item_set":3,"item":44,"test_form":1,"distractor":"pd","trial_type":"mars","trial_index":32,"time_elapsed":271786,"internal_node_id":"0.0-19.0-1.0","experiment":"calibration","task_version":"1.0","jspsych_version":"6.3.1","browser_interactions":0},{"rt":null,"stimulus":"<div style=\"font-size:24px;\">Loading puzzle:<br>14 / 16</div>","response":null,"trial_type":"html-keyboard-response","trial_index":33,"time_elapsed":272989,"internal_node_id":"0.0-20.0-0.0","experiment":"calibration","task_version":"1.0","jspsych_version":"6.3.1"},{"puzzle":"../static/img/is3/tf2/tf2_55_M_ss2.jpeg","item_order":[1,3,0,2],"correct":0,"choice":0,"accuracy":1,"rt":22007.29999998212,"screen_resolution":[1080,1920],"minimum_resolution":1,"item_set":3,"item":55,"test_form":2,"distractor":"md","trial_type":"mars","trial_index":34,"time_elapsed":294999,"internal_node_id":"0.0-20.0-1.0","experiment":"calibration","task_version":"1.0","jspsych_version":"6.3.1","browser_interactions":0},{"rt":null,"stimulus":"<div style=\"font-size:24px;\">Loading puzzle:<br>15 / 16</div>","response":null,"trial_type":"html-keyboard-response","trial_index":35,"time_elapsed":296203,"internal_node_id":"0.0-21.0-0.0","experiment":"calibration","task_version":"1.0","jspsych_version":"6.3.1"},{"puzzle":"../static/img/is3/tf2/tf2_45_M_ss1.jpeg","item_order":[1,3,2,0],"correct":0,"choice":0,"accuracy":1,"rt":17182.09999999404,"screen_resolution":[1080,1920],"minimum_resolution":1,"item_set":3,"item":45,"test_form":2,"distractor":"md","trial_type":"mars","trial_index":36,"time_elapsed":313387,"internal_node_id":"0.0-21.0-1.0","experiment":"calibration","task_version":"1.0","jspsych_version":"6.3.1","browser_interactions":0},{"rt":null,"stimulus":"<div style=\"font-size:24px;\">Loading puzzle:<br>16 / 16</div>","response":null,"trial_type":"html-keyboard-response","trial_index":37,"time_elapsed":314590,"internal_node_id":"0.0-22.0-0.0","experiment":"calibration","task_version":"1.0","jspsych_version":"6.3.1"},{"puzzle":"../static/img/is3/tf1/tf1_30_M_ss2.jpeg","item_order":[1,3,2,0],"correct":0,"choice":0,"accuracy":1,"rt":21841.19999998808,"screen_resolution":[1080,1920],"minimum_resolution":1,"item_set":3,"item":30,"test_form":1,"distractor":"pd","trial_type":"mars","trial_index":38,"time_elapsed":336434,"internal_node_id":"0.0-22.0-1.0","experiment":"calibration","task_version":"1.0","jspsych_version":"6.3.1","browser_interactions":0},{"value":[0,0,0],"trial_type":"call-function","trial_index":39,"time_elapsed":336436,"internal_node_id":"0.0-23.0","experiment":"calibration","task_version":"1.0","jspsych_version":"6.3.1"},{"view_history":[{"page_index":0,"viewing_time":1806.5}],"rt":1806.7000000178814,"trial_type":"instructions","trial_index":40,"time_elapsed":338243,"internal_node_id":"0.0-24.0","experiment":"calibration","task_version":"1.0","jspsych_version":"6.3.1"},{"rt":16685.5,"responses":{"age":"22","gender-categorical":"Male","gender-free-response":"","ethnicity":"Not Hispanic or Latino","race":["White"],"education":"Some college","free-response":""},"trial_type":"survey-demo","trial_index":41,"time_elapsed":354930,"internal_node_id":"0.0-25.0","experiment":"calibration","task_version":"1.0","jspsych_version":"6.3.1","interactions":"[{\"event\":\"fullscreenenter\",\"trial\":1,\"time\":4867}]"}]