[{"success":true,"timeout":false,"failed_images":[],"failed_audio":[],"failed_video":[],"trial_type":"preload","trial_index":0,"time_elapsed":4291,"internal_node_id":"0.0-0.0","experiment":"calibration","task_version":"1.0","jspsych_version":"6.3.1"},{"success":true,"trial_type":"fullscreen","trial_index":1,"time_elapsed":10749,"internal_node_id":"0.0-1.0","experiment":"calibration","task_version":"1.0","jspsych_version":"6.3.1"},{"view_history":[{"page_index":0,"viewing_time":8426.299999952316},{"page_index":1,"viewing_time":4173.800000071526},{"page_index":2,"viewing_time":2969.2999999523163}],"rt":15570.5,"trial_type":"instructions","trial_index":2,"time_elapsed":26324,"internal_node_id":"0.0-2.0","experiment":"calibration","task_version":"1.0","jspsych_version":"6.3.1"},{"puzzle":"../static/img/practice/pt1_M1.png","item_order":[3,2,0,1],"correct":0,"choice":0,"accuracy":1,"rt":8375.699999928474,"screen_resolution":[1080,1920],"minimum_resolution":1,"item_set":"practice","trial_type":"mars","trial_index":3,"time_elapsed":36716,"internal_node_id":"0.0-3.0-0.0","experiment":"calibration","task_version":"1.0","jspsych_version":"6.3.1"},{"puzzle":"../static/img/practice/pt2_M1.png","item_order":[2,0,3,1],"correct":0,"choice":0,"accuracy":1,"rt":6652.899999976158,"screen_resolution":[1080,1920],"minimum_resolution":1,"item_set":"practice","trial_type":"mars","trial_index":4,"time_elapsed":45372,"internal_node_id":"0.0-4.0-0.0","experiment":"calibration","task_version":"1.0","jspsych_version":"6.3.1"},{"puzzle":"../static/img/practice/pt3_M1.png","item_order":[0,1,3,2],"correct":0,"choice":0,"accuracy":1,"rt":2539.2000000476837,"screen_resolution":[1080,1920],"minimum_resolution":1,"item_set":"practice","trial_type":"mars","trial_index":5,"time_elapsed":49914,"internal_node_id":"0.0-5.0-0.0","experiment":"calibration","task_version":"1.0","jspsych_version":"6.3.1"},{"view_history":[{"page_index":0,"viewing_time":1666},{"page_index":1,"viewing_time":8564.600000023842}],"rt":10231.100000023842,"trial_type":"instructions","trial_index":6,"time_elapsed":60147,"internal_node_id":"0.0-6.0","experiment":"calibration","task_version":"1.0","jspsych_version":"6.3.1"},{"rt":null,"stimulus":"<div style=\"font-size:24px;\">Loading puzzle:<br>1 / 16</div>","response":null,"trial_type":"html-keyboard-response","trial_index":7,"time_elapsed":61350,"internal_node_id":"0.0-7.0-0.0","experiment":"calibration","task_version":"1.0","jspsych_version":"6.3.1"},{"puzzle":"../static/img/is3/tf1/tf1_25_M_ss3.jpeg","item_order":[3,1,0,2],"correct":0,"choice":0,"accuracy":1,"rt":10874.299999952316,"screen_resolution":[1080,1920],"minimum_resolution":1,"item_set":3,"item":25,"test_form":1,"distractor":"md","trial_type":"mars","trial_index":8,"time_elapsed":72228,"internal_node_id":"0.0-7.0-1.0","experiment":"calibration","task_version":"1.0","jspsych_version":"6.3.1","browser_interactions":0},{"rt":null,"stimulus":"<div style=\"font-size:24px;\">Loading puzzle:<br>2 / 16</div>","response":null,"trial_type":"html-keyboard-response","trial_index":9,"time_elapsed":73431,"internal_node_id":"0.0-8.0-0.0","experiment":"calibration","task_version":"1.0","jspsych_version":"6.3.1"},{"puzzle":"../static/img/is3/tf2/tf2_6_M_ss1.jpeg","item_order":[3,2,0,1],"correct":0,"choice":0,"accuracy":1,"rt":8300.600000023842,"screen_resolution":[1080,1920],"minimum_resolution":1,"item_set":3,"item":6,"test_form":2,"distractor":"pd","trial_type":"mars","trial_index":10,"time_elapsed":81736,"internal_node_id":"0.0-8.0-1.0","experiment":"calibration","task_version":"1.0","jspsych_version":"6.3.1","browser_interactions":0},{"rt":null,"stimulus":"<div style=\"font-size:24px;\">Loading puzzle:<br>3 / 16</div>","response":null,"trial_type":"html-keyboard-response","trial_index":11,"time_elapsed":82938,"internal_node_id":"0.0-9.0-0.0","experiment":"calibration","task_version":"1.0","jspsych_version":"6.3.1"},{"puzzle":"../static/img/is3/tf2/tf2_50_M_ss3.jpeg","item_order":[3,0,2,1],"correct":0,"choice":2,"accuracy":0,"rt":13277.800000071526,"screen_resolution":[1080,1920],"minimum_resolution":1,"item_set":3,"item":50,"test_form":2,"distractor":"pd","trial_type":"mars","trial_index":12,"time_elapsed":96219,"internal_node_id":"0.0-9.0-1.0","experiment":"calibration","task_version":"1.0","jspsych_version":"6.3.1","browser_interactions":0},{"rt":null,"stimulus":"<div style=\"font-size:24px;\">Loading puzzle:<br>4 / 16</div>","response":null,"trial_type":"html-keyboard-response","trial_index":13,"time_elapsed":97421,"internal_node_id":"0.0-10.0-0.0","experiment":"calibration","task_version":"1.0","jspsych_version":"6.3.1"},{"puzzle":"../static/img/is3/tf1/tf1_65_M_ss1.jpeg","item_order":[1,3,2,0],"correct":0,"choice":0,"accuracy":1,"rt":21734.800000071526,"screen_resolution":[1080,1920],"minimum_resolution":1,"item_set":3,"item":65,"test_form":1,"distractor":"pd","trial_type":"mars","trial_index":14,"time_elapsed":119160,"internal_node_id":"0.0-10.0-1.0","experiment":"calibration","task_version":"1.0","jspsych_version":"6.3.1","browser_interactions":0},{"rt":null,"stimulus":"<div style=\"font-size:24px;\">Loading puzzle:<br>5 / 16</div>","response":null,"trial_type":"html-keyboard-response","trial_index":15,"time_elapsed":120362,"internal_node_id":"0.0-11.0-0.0","experiment":"calibration","task_version":"1.0","jspsych_version":"6.3.1"},{"puzzle":"../static/img/is3/tf2/tf2_15_M_ss1.jpeg","item_order":[1,0,2,3],"correct":0,"choice":2,"accuracy":0,"rt":17962.399999976158,"screen_resolution":[1080,1920],"minimum_resolution":1,"item_set":3,"item":15,"test_form":2,"distractor":"pd","trial_type":"mars","trial_index":16,"time_elapsed":138328,"internal_node_id":"0.0-11.0-1.0","experiment":"calibration","task_version":"1.0","jspsych_version":"6.3.1","browser_interactions":0},{"rt":null,"stimulus":"<div style=\"font-size:24px;\">Loading puzzle:<br>6 / 16</div>","response":null,"trial_type":"html-keyboard-response","trial_index":17,"time_elapsed":139530,"internal_node_id":"0.0-12.0-0.0","experiment":"calibration","task_version":"1.0","jspsych_version":"6.3.1"},{"puzzle":"../static/img/is3/tf1/tf1_37_M_ss3.jpeg","item_order":[0,3,1,2],"correct":0,"choice":3,"accuracy":0,"rt":20496.300000071526,"screen_resolution":[1080,1920],"minimum_resolution":1,"item_set":3,"item":37,"test_form":1,"distractor":"md","trial_type":"mars","trial_index":18,"time_elapsed":160029,"internal_node_id":"0.0-12.0-1.0","experiment":"calibration","task_version":"1.0","jspsych_version":"6.3.1","browser_interactions":0},{"rt":null,"stimulus":"<div style=\"font-size:24px;\">Loading puzzle:<br>7 / 16</div>","response":null,"trial_type":"html-keyboard-response","trial_index":19,"time_elapsed":161231,"internal_node_id":"0.0-13.0-0.0","experiment":"calibration","task_version":"1.0","jspsych_version":"6.3.1"},{"puzzle":"../static/img/is3/tf1/tf1_17_M_ss1.jpeg","item_order":[2,1,3,0],"correct":0,"choice":1,"accuracy":0,"rt":6291.700000047684,"screen_resolution":[1080,1920],"minimum_resolution":1,"item_set":3,"item":17,"test_form":1,"distractor":"md","trial_type":"mars","trial_index":20,"time_elapsed":167526,"internal_node_id":"0.0-13.0-1.0","experiment":"calibration","task_version":"1.0","jspsych_version":"6.3.1","browser_interactions":0},{"rt":null,"stimulus":"<div style=\"font-size:24px;\">Loading puzzle:<br>8 / 16</div>","response":null,"trial_type":"html-keyboard-response","trial_index":21,"time_elapsed":168730,"internal_node_id":"0.0-14.0-0.0","experiment":"calibration","task_version":"1.0","jspsych_version":"6.3.1"},{"puzzle":"../static/img/is3/tf2/tf2_69_M_ss1.jpeg","item_order":[2,1,0,3],"correct":0,"choice":3,"accuracy":0,"rt":8402.199999928474,"screen_resolution":[1080,1920],"minimum_resolution":1,"item_set":3,"item":69,"test_form":2,"distractor":"md","trial_type":"mars","trial_index":22,"time_elapsed":177135,"internal_node_id":"0.0-14.0-1.0","experiment":"calibration","task_version":"1.0","jspsych_version":"6.3.1","browser_interactions":0},{"rt":null,"stimulus":"<div style=\"font-size:24px;\">Loading puzzle:<br>9 / 16</div>","response":null,"trial_type":"html-keyboard-response","trial_index":23,"time_elapsed":178337,"internal_node_id":"0.0-15.0-0.0","experiment":"calibration","task_version":"1.0","jspsych_version":"6.3.1"},{"puzzle":"../static/img/is3/tf2/tf2_40_M_ss2.jpeg","item_order":[3,0,1,2],"correct":0,"choice":0,"accuracy":1,"rt":6518.199999928474,"screen_resolution":[1080,1920],"minimum_resolution":1,"item_set":3,"item":40,"test_form":2,"distractor":"pd","trial_type":"mars","trial_index":24,"time_elapsed":184859,"internal_node_id":"0.0-15.0-1.0","experiment":"calibration","task_version":"1.0","jspsych_version":"6.3.1","browser_interactions":0},{"rt":null,"stimulus":"<div style=\"font-size:24px;\">Loading puzzle:<br>10 / 16</div>","response":null,"trial_type":"html-keyboard-response","trial_index":25,"time_elapsed":186061,"internal_node_id":"0.0-16.0-0.0","experiment":"calibration","task_version":"1.0","jspsych_version":"6.3.1"},{"puzzle":"../static/img/is3/tf1/tf1_73_M_ss3.jpeg","item_order":[0,3,2,1],"correct":0,"choice":1,"accuracy":0,"rt":11441.300000071526,"screen_resolution":[1080,1920],"minimum_resolution":1,"item_set":3,"item":73,"test_form":1,"distractor":"md","trial_type":"mars","trial_index":26,"time_elapsed":197505,"internal_node_id":"0.0-16.0-1.0","experiment":"calibration","task_version":"1.0","jspsych_version":"6.3.1","browser_interactions":0},{"rt":null,"stimulus":"<div style=\"font-size:24px;\">Loading puzzle:<br>11 / 16</div>","response":null,"trial_type":"html-keyboard-response","trial_index":27,"time_elapsed":198707,"internal_node_id":"0.0-17.0-0.0","experiment":"calibration","task_version":"1.0","jspsych_version":"6.3.1"},{"puzzle":"../static/img/is3/tf2/tf2_80_M_ss3.jpeg","item_order":[2,1,0,3],"correct":0,"choice":3,"accuracy":0,"rt":14700.699999928474,"screen_resolution":[1080,1920],"minimum_resolution":1,"item_set":3,"item":80,"test_form":2,"distractor":"md","trial_type":"mars","trial_index":28,"time_elapsed":213411,"internal_node_id":"0.0-17.0-1.0","experiment":"calibration","task_version":"1.0","jspsych_version":"6.3.1","browser_interactions":0},{"rt":null,"stimulus":"<div style=\"font-size:24px;\">Loading puzzle:<br>12 / 16</div>","response":null,"trial_type":"html-keyboard-response","trial_index":29,"time_elapsed":214619,"internal_node_id":"0.0-18.0-0.0","experiment":"calibration","task_version":"1.0","jspsych_version":"6.3.1"},{"puzzle":"../static/img/is3/tf1/tf1_67_M_ss3.jpeg","item_order":[0,3,2,1],"correct":0,"choice":3,"accuracy":0,"rt":8626.899999976158,"screen_resolution":[1080,1920],"minimum_resolution":1,"item_set":3,"item":67,"test_form":1,"distractor":"md","trial_type":"mars","trial_index":30,"time_elapsed":223249,"internal_node_id":"0.0-18.0-1.0","experiment":"calibration","task_version":"1.0","jspsych_version":"6.3.1","browser_interactions":0},{"rt":null,"stimulus":"<div style=\"font-size:24px;\">Loading puzzle:<br>13 / 16</div>","response":null,"trial_type":"html-keyboard-response","trial_index":31,"time_elapsed":224451,"internal_node_id":"0.0-19.0-0.0","experiment":"calibration","task_version":"1.0","jspsych_version":"6.3.1"},{"puzzle":"../static/img/is3/tf1/tf1_54_M_ss2.jpeg","item_order":[1,0,2,3],"correct":0,"choice":2,"accuracy":0,"rt":4790.399999976158,"screen_resolution":[1080,1920],"minimum_resolution":1,"item_set":3,"item":54,"test_form":1,"distractor":"pd","trial_type":"mars","trial_index":32,"time_elapsed":229245,"internal_node_id":"0.0-19.0-1.0","experiment":"calibration","task_version":"1.0","jspsych_version":"6.3.1","browser_interactions":0},{"rt":null,"stimulus":"<div style=\"font-size:24px;\">Loading puzzle:<br>14 / 16</div>","response":null,"trial_type":"html-keyboard-response","trial_index":33,"time_elapsed":230447,"internal_node_id":"0.0-20.0-0.0","experiment":"calibration","task_version":"1.0","jspsych_version":"6.3.1"},{"puzzle":"../static/img/is3/tf2/tf2_76_M_ss2.jpeg","item_order":[0,2,1,3],"correct":0,"choice":2,"accuracy":0,"rt":12376.200000047684,"screen_resolution":[1080,1920],"minimum_resolution":1,"item_set":3,"item":76,"test_form":2,"distractor":"pd","trial_type":"mars","trial_index":34,"time_elapsed":242827,"internal_node_id":"0.0-20.0-1.0","experiment":"calibration","task_version":"1.0","jspsych_version":"6.3.1","browser_interactions":0},{"rt":null,"stimulus":"<div style=\"font-size:24px;\">Loading puzzle:<br>15 / 16</div>","response":null,"trial_type":"html-keyboard-response","trial_index":35,"time_elapsed":244038,"internal_node_id":"0.0-21.0-0.0","experiment":"calibration","task_version":"1.0","jspsych_version":"6.3.1"},{"puzzle":"../static/img/is3/tf2/tf2_29_M_ss3.jpeg","item_order":[2,1,0,3],"correct":0,"choice":0,"accuracy":1,"rt":4877.600000023842,"screen_resolution":[1080,1920],"minimum_resolution":1,"item_set":3,"item":29,"test_form":2,"distractor":"md","trial_type":"mars","trial_index":36,"time_elapsed":248919,"internal_node_id":"0.0-21.0-1.0","experiment":"calibration","task_version":"1.0","jspsych_version":"6.3.1","browser_interactions":0},{"rt":null,"stimulus":"<div style=\"font-size:24px;\">Loading puzzle:<br>16 / 16</div>","response":null,"trial_type":"html-keyboard-response","trial_index":37,"time_elapsed":250121,"internal_node_id":"0.0-22.0-0.0","experiment":"calibration","task_version":"1.0","jspsych_version":"6.3.1"},{"puzzle":"../static/img/is3/tf1/tf1_45_M_ss2.jpeg","item_order":[3,2,0,1],"correct":0,"choice":3,"accuracy":0,"rt":5374.200000047684,"screen_resolution":[1080,1920],"minimum_resolution":1,"item_set":3,"item":45,"test_form":1,"distractor":"md","trial_type":"mars","trial_index":38,"time_elapsed":255499,"internal_node_id":"0.0-22.0-1.0","experiment":"calibration","task_version":"1.0","jspsych_version":"6.3.1","browser_interactions":0},{"value":[0,0,0],"trial_type":"call-function","trial_index":39,"time_elapsed":255501,"internal_node_id":"0.0-23.0","experiment":"calibration","task_version":"1.0","jspsych_version":"6.3.1"},{"view_history":[{"page_index":0,"viewing_time":3482.7999999523163}],"rt":3483.0999999046326,"trial_type":"instructions","trial_index":40,"time_elapsed":258985,"internal_node_id":"0.0-24.0","experiment":"calibration","task_version":"1.0","jspsych_version":"6.3.1"},{"rt":17060.700000047684,"responses":{"age":"42","gender-categorical":"Male","gender-free-response":"","ethnicity":"Not Hispanic or Latino","race":["White"],"education":"Master degree or higher","free-response":""},"trial_type":"survey-demo","trial_index":41,"time_elapsed":276049,"internal_node_id":"0.0-25.0","experiment":"calibration","task_version":"1.0","jspsych_version":"6.3.1","interactions":"[{\"event\":\"fullscreenenter\",\"trial\":1,\"time\":9752}]"}]