[{"success":true,"timeout":false,"failed_images":[],"failed_audio":[],"failed_video":[],"trial_type":"preload","trial_index":0,"time_elapsed":2988,"internal_node_id":"0.0-0.0","experiment":"calibration","task_version":"1.0","jspsych_version":"6.3.1"},{"success":true,"trial_type":"fullscreen","trial_index":1,"time_elapsed":8434,"internal_node_id":"0.0-1.0","experiment":"calibration","task_version":"1.0","jspsych_version":"6.3.1"},{"view_history":[{"page_index":0,"viewing_time":9942},{"page_index":1,"viewing_time":30192},{"page_index":2,"viewing_time":2653}],"rt":42788,"trial_type":"instructions","trial_index":2,"time_elapsed":51230,"internal_node_id":"0.0-3.0","experiment":"calibration","task_version":"1.0","jspsych_version":"6.3.1"},{"puzzle":"../static/img/practice/pt1_M1.png","item_order":[0,1,2,3],"correct":0,"choice":2,"accuracy":0,"rt":2735.0000000000073,"screen_resolution":[820,1440],"minimum_resolution":1,"item_set":"practice","trial_type":"mars","trial_index":3,"time_elapsed":55969,"internal_node_id":"0.0-4.0-0.0","experiment":"calibration","task_version":"1.0","jspsych_version":"6.3.1"},{"puzzle":"../static/img/practice/pt1_M1.png","item_order":[1,2,3,0],"correct":0,"choice":2,"accuracy":0,"rt":2812.9999999999927,"screen_resolution":[820,1440],"minimum_resolution":1,"item_set":"practice","trial_type":"mars","trial_index":4,"time_elapsed":60787,"internal_node_id":"0.0-4.1-0.1","experiment":"calibration","task_version":"1.0","jspsych_version":"6.3.1"},{"puzzle":"../static/img/practice/pt1_M1.png","item_order":[3,2,0,1],"correct":0,"choice":0,"accuracy":1,"rt":3033.9999999999927,"screen_resolution":[820,1440],"minimum_resolution":1,"item_set":"practice","trial_type":"mars","trial_index":5,"time_elapsed":65827,"internal_node_id":"0.0-4.2-0.2","experiment":"calibration","task_version":"1.0","jspsych_version":"6.3.1"},{"puzzle":"../static/img/practice/pt2_M1.png","item_order":[2,0,1,3],"correct":0,"choice":0,"accuracy":1,"rt":3197,"screen_resolution":[820,1440],"minimum_resolution":1,"item_set":"practice","trial_type":"mars","trial_index":6,"time_elapsed":71030,"internal_node_id":"0.0-5.0-0.0","experiment":"calibration","task_version":"1.0","jspsych_version":"6.3.1"},{"puzzle":"../static/img/practice/pt3_M1.png","item_order":[1,3,0,2],"correct":0,"choice":0,"accuracy":1,"rt":1911,"screen_resolution":[820,1440],"minimum_resolution":1,"item_set":"practice","trial_type":"mars","trial_index":7,"time_elapsed":74947,"internal_node_id":"0.0-6.0-0.0","experiment":"calibration","task_version":"1.0","jspsych_version":"6.3.1"},{"view_history":[{"page_index":0,"viewing_time":4206.999999999985},{"page_index":1,"viewing_time":8719}],"rt":12925.999999999985,"trial_type":"instructions","trial_index":8,"time_elapsed":87876,"internal_node_id":"0.0-7.0","experiment":"calibration","task_version":"1.0","jspsych_version":"6.3.1"},{"rt":null,"stimulus":"<div style=\"font-size:24px;\">Loading puzzle:<br>1 / 16</div>","response":null,"trial_type":"html-keyboard-response","trial_index":9,"time_elapsed":89082,"internal_node_id":"0.0-8.0-1.0","experiment":"calibration","task_version":"1.0","jspsych_version":"6.3.1"},{"puzzle":"../static/img/is3/tf1/tf1_20_M_ss1.jpeg","item_order":[3,1,2,0],"correct":0,"choice":2,"accuracy":0,"rt":7805.999999999985,"screen_resolution":[820,1440],"minimum_resolution":1,"item_set":3,"item":20,"test_form":1,"distractor":"pd","trial_type":"mars","trial_index":10,"time_elapsed":96891,"internal_node_id":"0.0-8.0-2.0","experiment":"calibration","task_version":"1.0","jspsych_version":"6.3.1","browser_interactions":0},{"rt":null,"stimulus":"<div style=\"font-size:24px;\">Loading puzzle:<br>2 / 16</div>","response":null,"trial_type":"html-keyboard-response","trial_index":11,"time_elapsed":98096,"internal_node_id":"0.0-9.0-1.0","experiment":"calibration","task_version":"1.0","jspsych_version":"6.3.1"},{"puzzle":"../static/img/is3/tf3/tf3_47_M_ss2.jpeg","item_order":[3,0,2,1],"correct":0,"choice":1,"accuracy":0,"rt":11484,"screen_resolution":[820,1440],"minimum_resolution":1,"item_set":3,"item":47,"test_form":3,"distractor":"pd","trial_type":"mars","trial_index":12,"time_elapsed":109584,"internal_node_id":"0.0-9.0-2.0","experiment":"calibration","task_version":"1.0","jspsych_version":"6.3.1","browser_interactions":0},{"rt":null,"stimulus":"<div style=\"font-size:24px;\">Loading puzzle:<br>3 / 16</div>","response":null,"trial_type":"html-keyboard-response","trial_index":13,"time_elapsed":110788,"internal_node_id":"0.0-10.0-1.0","experiment":"calibration","task_version":"1.0","jspsych_version":"6.3.1"},{"puzzle":"../static/img/is3/tf3/tf3_50_M_ss2.jpeg","item_order":[1,0,2,3],"correct":0,"choice":0,"accuracy":1,"rt":5675,"screen_resolution":[820,1440],"minimum_resolution":1,"item_set":3,"item":50,"test_form":3,"distractor":"md","trial_type":"mars","trial_index":14,"time_elapsed":116467,"internal_node_id":"0.0-10.0-2.0","experiment":"calibration","task_version":"1.0","jspsych_version":"6.3.1","browser_interactions":0},{"rt":null,"stimulus":"<div style=\"font-size:24px;\">Loading puzzle:<br>4 / 16</div>","response":null,"trial_type":"html-keyboard-response","trial_index":15,"time_elapsed":117672,"internal_node_id":"0.0-11.0-1.0","experiment":"calibration","task_version":"1.0","jspsych_version":"6.3.1"},{"puzzle":"../static/img/is3/tf1/tf1_65_M_ss1.jpeg","item_order":[0,1,3,2],"correct":0,"choice":1,"accuracy":0,"rt":19194,"screen_resolution":[820,1440],"minimum_resolution":1,"item_set":3,"item":65,"test_form":1,"distractor":"md","trial_type":"mars","trial_index":16,"time_elapsed":136870,"internal_node_id":"0.0-11.0-2.0","experiment":"calibration","task_version":"1.0","jspsych_version":"6.3.1","browser_interactions":0},{"rt":null,"stimulus":"<div style=\"font-size:24px;\">Loading puzzle:<br>5 / 16</div>","response":null,"trial_type":"html-keyboard-response","trial_index":17,"time_elapsed":138074,"internal_node_id":"0.0-12.0-1.0","experiment":"calibration","task_version":"1.0","jspsych_version":"6.3.1"},{"puzzle":"../static/img/is3/tf1/tf1_34_M_ss3.jpeg","item_order":[2,3,1,0],"correct":0,"choice":3,"accuracy":0,"rt":23680.00000000003,"screen_resolution":[820,1440],"minimum_resolution":1,"item_set":3,"item":34,"test_form":1,"distractor":"md","trial_type":"mars","trial_index":18,"time_elapsed":161758,"internal_node_id":"0.0-12.0-2.0","experiment":"calibration","task_version":"1.0","jspsych_version":"6.3.1","browser_interactions":0},{"rt":null,"stimulus":"<div style=\"font-size:24px;\">Loading puzzle:<br>6 / 16</div>","response":null,"trial_type":"html-keyboard-response","trial_index":19,"time_elapsed":162962,"internal_node_id":"0.0-13.0-1.0","experiment":"calibration","task_version":"1.0","jspsych_version":"6.3.1"},{"puzzle":"../static/img/is3/tf2/tf2_18_M_ss1.jpeg","item_order":[3,0,1,2],"correct":0,"choice":0,"accuracy":1,"rt":20641,"screen_resolution":[820,1440],"minimum_resolution":1,"item_set":3,"item":18,"test_form":2,"distractor":"md","trial_type":"mars","trial_index":20,"time_elapsed":183606,"internal_node_id":"0.0-13.0-2.0","experiment":"calibration","task_version":"1.0","jspsych_version":"6.3.1","browser_interactions":0},{"rt":null,"stimulus":"<div style=\"font-size:24px;\">Loading puzzle:<br>7 / 16</div>","response":null,"trial_type":"html-keyboard-response","trial_index":21,"time_elapsed":184812,"internal_node_id":"0.0-14.0-1.0","experiment":"calibration","task_version":"1.0","jspsych_version":"6.3.1"},{"puzzle":"../static/img/is3/tf2/tf2_69_M_ss1.jpeg","item_order":[1,2,0,3],"correct":0,"choice":0,"accuracy":1,"rt":12104.00000000003,"screen_resolution":[820,1440],"minimum_resolution":1,"item_set":3,"item":69,"test_form":2,"distractor":"md","trial_type":"mars","trial_index":22,"time_elapsed":196920,"internal_node_id":"0.0-14.0-2.0","experiment":"calibration","task_version":"1.0","jspsych_version":"6.3.1","browser_interactions":0},{"rt":null,"stimulus":"<div style=\"font-size:24px;\">Loading puzzle:<br>8 / 16</div>","response":null,"trial_type":"html-keyboard-response","trial_index":23,"time_elapsed":198124,"internal_node_id":"0.0-15.0-1.0","experiment":"calibration","task_version":"1.0","jspsych_version":"6.3.1"},{"puzzle":"../static/img/is3/tf3/tf3_16_M_ss1.jpeg","item_order":[3,0,2,1],"correct":0,"choice":3,"accuracy":0,"rt":14271,"screen_resolution":[820,1440],"minimum_resolution":1,"item_set":3,"item":16,"test_form":3,"distractor":"md","trial_type":"mars","trial_index":24,"time_elapsed":212399,"internal_node_id":"0.0-15.0-2.0","experiment":"calibration","task_version":"1.0","jspsych_version":"6.3.1","browser_interactions":0},{"rt":null,"stimulus":"<div style=\"font-size:24px;\">Loading puzzle:<br>9 / 16</div>","response":null,"trial_type":"html-keyboard-response","trial_index":25,"time_elapsed":213605,"internal_node_id":"0.0-16.0-1.0","experiment":"calibration","task_version":"1.0","jspsych_version":"6.3.1"},{"puzzle":"../static/img/is3/tf3/tf3_79_M_ss1.jpeg","item_order":[1,2,3,0],"correct":0,"choice":2,"accuracy":0,"rt":11143.00000000003,"screen_resolution":[820,1440],"minimum_resolution":1,"item_set":3,"item":79,"test_form":3,"distractor":"pd","trial_type":"mars","trial_index":26,"time_elapsed":224751,"internal_node_id":"0.0-16.0-2.0","experiment":"calibration","task_version":"1.0","jspsych_version":"6.3.1","browser_interactions":0},{"rt":null,"stimulus":"<div style=\"font-size:24px;\">Loading puzzle:<br>10 / 16</div>","response":null,"trial_type":"html-keyboard-response","trial_index":27,"time_elapsed":225956,"internal_node_id":"0.0-17.0-1.0","experiment":"calibration","task_version":"1.0","jspsych_version":"6.3.1"},{"puzzle":"../static/img/is3/tf2/tf2_23_M_ss3.jpeg","item_order":[3,0,1,2],"correct":0,"choice":0,"accuracy":1,"rt":21923.00000000003,"screen_resolution":[820,1440],"minimum_resolution":1,"item_set":3,"item":23,"test_form":2,"distractor":"md","trial_type":"mars","trial_index":28,"time_elapsed":247883,"internal_node_id":"0.0-17.0-2.0","experiment":"calibration","task_version":"1.0","jspsych_version":"6.3.1","browser_interactions":0},{"rt":null,"stimulus":"<div style=\"font-size:24px;\">Loading puzzle:<br>11 / 16</div>","response":null,"trial_type":"html-keyboard-response","trial_index":29,"time_elapsed":249087,"internal_node_id":"0.0-18.0-1.0","experiment":"calibration","task_version":"1.0","jspsych_version":"6.3.1"},{"puzzle":"../static/img/is3/tf3/tf3_80_M_ss2.jpeg","item_order":[2,0,1,3],"correct":0,"choice":0,"accuracy":1,"rt":13468,"screen_resolution":[820,1440],"minimum_resolution":1,"item_set":3,"item":80,"test_form":3,"distractor":"pd","trial_type":"mars","trial_index":30,"time_elapsed":262559,"internal_node_id":"0.0-18.0-2.0","experiment":"calibration","task_version":"1.0","jspsych_version":"6.3.1","browser_interactions":0},{"rt":null,"stimulus":"<div style=\"font-size:24px;\">Loading puzzle:<br>12 / 16</div>","response":null,"trial_type":"html-keyboard-response","trial_index":31,"time_elapsed":263763,"internal_node_id":"0.0-19.0-1.0","experiment":"calibration","task_version":"1.0","jspsych_version":"6.3.1"},{"puzzle":"../static/img/is3/tf3/tf3_59_M_ss2.jpeg","item_order":[1,2,3,0],"correct":0,"choice":2,"accuracy":0,"rt":22109,"screen_resolution":[820,1440],"minimum_resolution":1,"item_set":3,"item":59,"test_form":3,"distractor":"pd","trial_type":"mars","trial_index":32,"time_elapsed":285876,"internal_node_id":"0.0-19.0-2.0","experiment":"calibration","task_version":"1.0","jspsych_version":"6.3.1","browser_interactions":0},{"rt":null,"stimulus":"<div style=\"font-size:24px;\">Loading puzzle:<br>13 / 16</div>","response":null,"trial_type":"html-keyboard-response","trial_index":33,"time_elapsed":287080,"internal_node_id":"0.0-20.0-1.0","experiment":"calibration","task_version":"1.0","jspsych_version":"6.3.1"},{"puzzle":"../static/img/is3/tf3/tf3_46_M_ss1.jpeg","item_order":[2,0,3,1],"correct":0,"choice":0,"accuracy":1,"rt":28173,"screen_resolution":[820,1440],"minimum_resolution":1,"item_set":3,"item":46,"test_form":3,"distractor":"pd","trial_type":"mars","trial_index":34,"time_elapsed":315256,"internal_node_id":"0.0-20.0-2.0","experiment":"calibration","task_version":"1.0","jspsych_version":"6.3.1","browser_interactions":2},{"rt":null,"stimulus":"<div style=\"font-size:24px;\">Loading puzzle:<br>14 / 16</div>","response":null,"trial_type":"html-keyboard-response","trial_index":35,"time_elapsed":316461,"internal_node_id":"0.0-21.0-1.0","experiment":"calibration","task_version":"1.0","jspsych_version":"6.3.1"},{"puzzle":"../static/img/is3/tf2/tf2_54_M_ss1.jpeg","item_order":[0,1,3,2],"correct":0,"choice":0,"accuracy":1,"rt":17304.99999999994,"screen_resolution":[820,1440],"minimum_resolution":1,"item_set":3,"item":54,"test_form":2,"distractor":"pd","trial_type":"mars","trial_index":36,"time_elapsed":333768,"internal_node_id":"0.0-21.0-2.0","experiment":"calibration","task_version":"1.0","jspsych_version":"6.3.1","browser_interactions":0},{"rt":null,"stimulus":"<div style=\"font-size:24px;\">Loading puzzle:<br>15 / 16</div>","response":null,"trial_type":"html-keyboard-response","trial_index":37,"time_elapsed":334972,"internal_node_id":"0.0-22.0-1.0","experiment":"calibration","task_version":"1.0","jspsych_version":"6.3.1"},{"puzzle":"../static/img/is3/tf1/tf1_21_M_ss2.jpeg","item_order":[3,0,2,1],"correct":0,"choice":0,"accuracy":1,"rt":16713.00000000006,"screen_resolution":[820,1440],"minimum_resolution":1,"item_set":3,"item":21,"test_form":1,"distractor":"md","trial_type":"mars","trial_index":38,"time_elapsed":351689,"internal_node_id":"0.0-22.0-2.0","experiment":"calibration","task_version":"1.0","jspsych_version":"6.3.1","browser_interactions":0},{"rt":null,"stimulus":"<div style=\"font-size:24px;\">Loading puzzle:<br>16 / 16</div>","response":null,"trial_type":"html-keyboard-response","trial_index":39,"time_elapsed":352893,"internal_node_id":"0.0-23.0-1.0","experiment":"calibration","task_version":"1.0","jspsych_version":"6.3.1"},{"puzzle":"../static/img/is3/tf3/tf3_45_M_ss3.jpeg","item_order":[1,3,0,2],"correct":0,"choice":0,"accuracy":1,"rt":14689,"screen_resolution":[820,1440],"minimum_resolution":1,"item_set":3,"item":45,"test_form":3,"distractor":"md","trial_type":"mars","trial_index":40,"time_elapsed":367585,"internal_node_id":"0.0-23.0-2.0","experiment":"calibration","task_version":"1.0","jspsych_version":"6.3.1","browser_interactions":0},{"value":[0,0,0],"trial_type":"call-function","trial_index":41,"time_elapsed":367587,"internal_node_id":"0.0-24.0","experiment":"calibration","task_version":"1.0","jspsych_version":"6.3.1"},{"view_history":[{"page_index":0,"viewing_time":2544}],"rt":2544,"trial_type":"instructions","trial_index":42,"time_elapsed":370132,"internal_node_id":"0.0-25.0","experiment":"calibration","task_version":"1.0","jspsych_version":"6.3.1"},{"rt":38832,"responses":{"age":"32","gender-categorical":"Female","gender-free-response":"","ethnicity":"Not Hispanic or Latino","race":["Black or African American","White"],"education":"Bachelor degree","free-response":""},"trial_type":"survey-demo","trial_index":43,"time_elapsed":408967,"internal_node_id":"0.0-26.0","experiment":"calibration","task_version":"1.0","jspsych_version":"6.3.1","interactions":"[{\"event\":\"fullscreenenter\",\"trial\":1,\"time\":7463},{\"event\":\"fullscreenexit\",\"trial\":2,\"time\":26105},{\"event\":\"blur\",\"trial\":2,\"time\":28683},{\"event\":\"focus\",\"trial\":2,\"time\":41847},{\"event\":\"blur\",\"trial\":34,\"time\":296382},{\"event\":\"focus\",\"trial\":34,\"time\":311425},{\"event\":\"blur\",\"trial\":43,\"time\":373566},{\"event\":\"focus\",\"trial\":43,\"time\":393783}]"}]