[{"success":true,"timeout":false,"failed_images":[],"failed_audio":[],"failed_video":[],"trial_type":"preload","trial_index":0,"time_elapsed":3356,"internal_node_id":"0.0-0.0","experiment":"calibration","task_version":"1.0","jspsych_version":"6.3.1"},{"success":true,"trial_type":"fullscreen","trial_index":1,"time_elapsed":8863,"internal_node_id":"0.0-1.0","experiment":"calibration","task_version":"1.0","jspsych_version":"6.3.1"},{"view_history":[{"page_index":0,"viewing_time":11257.09999999404},{"page_index":1,"viewing_time":10965},{"page_index":2,"viewing_time":4361.9000000059605}],"rt":26585.09999999404,"trial_type":"instructions","trial_index":2,"time_elapsed":35453,"internal_node_id":"0.0-3.0","experiment":"calibration","task_version":"1.0","jspsych_version":"6.3.1"},{"puzzle":"../static/img/practice/pt1_M1.png","item_order":[1,0,3,2],"correct":0,"choice":0,"accuracy":1,"rt":11172.5,"screen_resolution":[800,1280],"minimum_resolution":1,"item_set":"practice","trial_type":"mars","trial_index":3,"time_elapsed":48652,"internal_node_id":"0.0-4.0-0.0","experiment":"calibration","task_version":"1.0","jspsych_version":"6.3.1"},{"puzzle":"../static/img/practice/pt2_M1.png","item_order":[3,2,1,0],"correct":0,"choice":0,"accuracy":1,"rt":3155.899999976158,"screen_resolution":[800,1280],"minimum_resolution":1,"item_set":"practice","trial_type":"mars","trial_index":4,"time_elapsed":53812,"internal_node_id":"0.0-5.0-0.0","experiment":"calibration","task_version":"1.0","jspsych_version":"6.3.1"},{"puzzle":"../static/img/practice/pt3_M1.png","item_order":[2,3,0,1],"correct":0,"choice":0,"accuracy":1,"rt":3084.100000023842,"screen_resolution":[800,1280],"minimum_resolution":1,"item_set":"practice","trial_type":"mars","trial_index":5,"time_elapsed":58902,"internal_node_id":"0.0-6.0-0.0","experiment":"calibration","task_version":"1.0","jspsych_version":"6.3.1"},{"view_history":[{"page_index":0,"viewing_time":2437.7999999821186},{"page_index":1,"viewing_time":6399.100000023842}],"rt":8837.199999988079,"trial_type":"instructions","trial_index":6,"time_elapsed":67741,"internal_node_id":"0.0-7.0","experiment":"calibration","task_version":"1.0","jspsych_version":"6.3.1"},{"rt":null,"stimulus":"<div style=\"font-size:24px;\">Loading puzzle:<br>1 / 16</div>","response":null,"trial_type":"html-keyboard-response","trial_index":7,"time_elapsed":68945,"internal_node_id":"0.0-8.0-1.0","experiment":"calibration","task_version":"1.0","jspsych_version":"6.3.1"},{"puzzle":"../static/img/is3/tf3/tf3_19_M_ss1.jpeg","item_order":[2,3,1,0],"correct":0,"choice":0,"accuracy":1,"rt":9361.09999999404,"screen_resolution":[800,1280],"minimum_resolution":1,"item_set":3,"item":19,"test_form":3,"distractor":"pd","trial_type":"mars","trial_index":8,"time_elapsed":78309,"internal_node_id":"0.0-8.0-2.0","experiment":"calibration","task_version":"1.0","jspsych_version":"6.3.1","browser_interactions":0},{"rt":null,"stimulus":"<div style=\"font-size:24px;\">Loading puzzle:<br>2 / 16</div>","response":null,"trial_type":"html-keyboard-response","trial_index":9,"time_elapsed":79515,"internal_node_id":"0.0-9.0-1.0","experiment":"calibration","task_version":"1.0","jspsych_version":"6.3.1"},{"puzzle":"../static/img/is3/tf3/tf3_28_M_ss1.jpeg","item_order":[2,0,1,3],"correct":0,"choice":0,"accuracy":1,"rt":16148.299999982119,"screen_resolution":[800,1280],"minimum_resolution":1,"item_set":3,"item":28,"test_form":3,"distractor":"md","trial_type":"mars","trial_index":10,"time_elapsed":95666,"internal_node_id":"0.0-9.0-2.0","experiment":"calibration","task_version":"1.0","jspsych_version":"6.3.1","browser_interactions":0},{"rt":null,"stimulus":"<div style=\"font-size:24px;\">Loading puzzle:<br>3 / 16</div>","response":null,"trial_type":"html-keyboard-response","trial_index":11,"time_elapsed":96871,"internal_node_id":"0.0-10.0-1.0","experiment":"calibration","task_version":"1.0","jspsych_version":"6.3.1"},{"puzzle":"../static/img/is3/tf3/tf3_49_M_ss1.jpeg","item_order":[0,1,2,3],"correct":0,"choice":0,"accuracy":1,"rt":11095.59999999404,"screen_resolution":[800,1280],"minimum_resolution":1,"item_set":3,"item":49,"test_form":3,"distractor":"md","trial_type":"mars","trial_index":12,"time_elapsed":107970,"internal_node_id":"0.0-10.0-2.0","experiment":"calibration","task_version":"1.0","jspsych_version":"6.3.1","browser_interactions":0},{"rt":null,"stimulus":"<div style=\"font-size:24px;\">Loading puzzle:<br>4 / 16</div>","response":null,"trial_type":"html-keyboard-response","trial_index":13,"time_elapsed":109173,"internal_node_id":"0.0-11.0-1.0","experiment":"calibration","task_version":"1.0","jspsych_version":"6.3.1"},{"puzzle":"../static/img/is3/tf3/tf3_71_M_ss2.jpeg","item_order":[0,2,1,3],"correct":0,"choice":0,"accuracy":1,"rt":19007.40000000596,"screen_resolution":[800,1280],"minimum_resolution":1,"item_set":3,"item":71,"test_form":3,"distractor":"md","trial_type":"mars","trial_index":14,"time_elapsed":128183,"internal_node_id":"0.0-11.0-2.0","experiment":"calibration","task_version":"1.0","jspsych_version":"6.3.1","browser_interactions":0},{"rt":null,"stimulus":"<div style=\"font-size:24px;\">Loading puzzle:<br>5 / 16</div>","response":null,"trial_type":"html-keyboard-response","trial_index":15,"time_elapsed":129385,"internal_node_id":"0.0-12.0-1.0","experiment":"calibration","task_version":"1.0","jspsych_version":"6.3.1"},{"puzzle":"../static/img/is3/tf3/tf3_13_M_ss1.jpeg","item_order":[0,3,1,2],"correct":0,"choice":2,"accuracy":0,"rt":20269.80000001192,"screen_resolution":[800,1280],"minimum_resolution":1,"item_set":3,"item":13,"test_form":3,"distractor":"md","trial_type":"mars","trial_index":16,"time_elapsed":149657,"internal_node_id":"0.0-12.0-2.0","experiment":"calibration","task_version":"1.0","jspsych_version":"6.3.1","browser_interactions":0},{"rt":null,"stimulus":"<div style=\"font-size:24px;\">Loading puzzle:<br>6 / 16</div>","response":null,"trial_type":"html-keyboard-response","trial_index":17,"time_elapsed":150862,"internal_node_id":"0.0-13.0-1.0","experiment":"calibration","task_version":"1.0","jspsych_version":"6.3.1"},{"puzzle":"../static/img/is3/tf3/tf3_27_M_ss3.jpeg","item_order":[3,0,1,2],"correct":0,"choice":1,"accuracy":0,"rt":16077.90000000596,"screen_resolution":[800,1280],"minimum_resolution":1,"item_set":3,"item":27,"test_form":3,"distractor":"pd","trial_type":"mars","trial_index":18,"time_elapsed":166942,"internal_node_id":"0.0-13.0-2.0","experiment":"calibration","task_version":"1.0","jspsych_version":"6.3.1","browser_interactions":0},{"rt":null,"stimulus":"<div style=\"font-size:24px;\">Loading puzzle:<br>7 / 16</div>","response":null,"trial_type":"html-keyboard-response","trial_index":19,"time_elapsed":168149,"internal_node_id":"0.0-14.0-1.0","experiment":"calibration","task_version":"1.0","jspsych_version":"6.3.1"},{"puzzle":"../static/img/is3/tf3/tf3_58_M_ss1.jpeg","item_order":[1,0,3,2],"correct":0,"choice":2,"accuracy":0,"rt":17595.5,"screen_resolution":[800,1280],"minimum_resolution":1,"item_set":3,"item":58,"test_form":3,"distractor":"md","trial_type":"mars","trial_index":20,"time_elapsed":185746,"internal_node_id":"0.0-14.0-2.0","experiment":"calibration","task_version":"1.0","jspsych_version":"6.3.1","browser_interactions":0},{"rt":null,"stimulus":"<div style=\"font-size:24px;\">Loading puzzle:<br>8 / 16</div>","response":null,"trial_type":"html-keyboard-response","trial_index":21,"time_elapsed":186952,"internal_node_id":"0.0-15.0-1.0","experiment":"calibration","task_version":"1.0","jspsych_version":"6.3.1"},{"puzzle":"../static/img/is3/tf3/tf3_12_M_ss3.jpeg","item_order":[2,1,3,0],"correct":0,"choice":3,"accuracy":0,"rt":18745.30000001192,"screen_resolution":[800,1280],"minimum_resolution":1,"item_set":3,"item":12,"test_form":3,"distractor":"pd","trial_type":"mars","trial_index":22,"time_elapsed":205699,"internal_node_id":"0.0-15.0-2.0","experiment":"calibration","task_version":"1.0","jspsych_version":"6.3.1","browser_interactions":0},{"rt":null,"stimulus":"<div style=\"font-size:24px;\">Loading puzzle:<br>9 / 16</div>","response":null,"trial_type":"html-keyboard-response","trial_index":23,"time_elapsed":206901,"internal_node_id":"0.0-16.0-1.0","experiment":"calibration","task_version":"1.0","jspsych_version":"6.3.1"},{"puzzle":"../static/img/is3/tf3/tf3_40_M_ss1.jpeg","item_order":[2,0,3,1],"correct":0,"choice":2,"accuracy":0,"rt":28174,"screen_resolution":[800,1280],"minimum_resolution":1,"item_set":3,"item":40,"test_form":3,"distractor":"md","trial_type":"mars","trial_index":24,"time_elapsed":235077,"internal_node_id":"0.0-16.0-2.0","experiment":"calibration","task_version":"1.0","jspsych_version":"6.3.1","browser_interactions":0},{"rt":null,"stimulus":"<div style=\"font-size:24px;\">Loading puzzle:<br>10 / 16</div>","response":null,"trial_type":"html-keyboard-response","trial_index":25,"time_elapsed":236280,"internal_node_id":"0.0-17.0-1.0","experiment":"calibration","task_version":"1.0","jspsych_version":"6.3.1"},{"puzzle":"../static/img/is3/tf3/tf3_73_M_ss1.jpeg","item_order":[2,3,0,1],"correct":0,"choice":0,"accuracy":1,"rt":12344.800000011921,"screen_resolution":[800,1280],"minimum_resolution":1,"item_set":3,"item":73,"test_form":3,"distractor":"md","trial_type":"mars","trial_index":26,"time_elapsed":249287,"internal_node_id":"0.0-17.0-2.0","experiment":"calibration","task_version":"1.0","jspsych_version":"6.3.1","browser_interactions":0},{"rt":null,"stimulus":"<div style=\"font-size:24px;\">Loading puzzle:<br>11 / 16</div>","response":null,"trial_type":"html-keyboard-response","trial_index":27,"time_elapsed":250494,"internal_node_id":"0.0-18.0-1.0","experiment":"calibration","task_version":"1.0","jspsych_version":"6.3.1"},{"puzzle":"../static/img/is3/tf3/tf3_63_M_ss3.jpeg","item_order":[0,1,3,2],"correct":0,"choice":1,"accuracy":0,"rt":18505,"screen_resolution":[800,1280],"minimum_resolution":1,"item_set":3,"item":63,"test_form":3,"distractor":"pd","trial_type":"mars","trial_index":28,"time_elapsed":269002,"internal_node_id":"0.0-18.0-2.0","experiment":"calibration","task_version":"1.0","jspsych_version":"6.3.1","browser_interactions":0},{"rt":null,"stimulus":"<div style=\"font-size:24px;\">Loading puzzle:<br>12 / 16</div>","response":null,"trial_type":"html-keyboard-response","trial_index":29,"time_elapsed":270207,"internal_node_id":"0.0-19.0-1.0","experiment":"calibration","task_version":"1.0","jspsych_version":"6.3.1"},{"puzzle":"../static/img/is3/tf3/tf3_80_M_ss2.jpeg","item_order":[0,1,3,2],"correct":0,"choice":1,"accuracy":0,"rt":15938.800000011921,"screen_resolution":[800,1280],"minimum_resolution":1,"item_set":3,"item":80,"test_form":3,"distractor":"md","trial_type":"mars","trial_index":30,"time_elapsed":286148,"internal_node_id":"0.0-19.0-2.0","experiment":"calibration","task_version":"1.0","jspsych_version":"6.3.1","browser_interactions":0},{"rt":null,"stimulus":"<div style=\"font-size:24px;\">Loading puzzle:<br>13 / 16</div>","response":null,"trial_type":"html-keyboard-response","trial_index":31,"time_elapsed":287354,"internal_node_id":"0.0-20.0-1.0","experiment":"calibration","task_version":"1.0","jspsych_version":"6.3.1"},{"puzzle":"../static/img/is3/tf3/tf3_75_M_ss3.jpeg","item_order":[3,1,0,2],"correct":0,"choice":1,"accuracy":0,"rt":3045,"screen_resolution":[800,1280],"minimum_resolution":1,"item_set":3,"item":75,"test_form":3,"distractor":"pd","trial_type":"mars","trial_index":32,"time_elapsed":290402,"internal_node_id":"0.0-20.0-2.0","experiment":"calibration","task_version":"1.0","jspsych_version":"6.3.1","browser_interactions":0},{"rt":null,"stimulus":"<div style=\"font-size:24px;\">Loading puzzle:<br>14 / 16</div>","response":null,"trial_type":"html-keyboard-response","trial_index":33,"time_elapsed":291606,"internal_node_id":"0.0-21.0-1.0","experiment":"calibration","task_version":"1.0","jspsych_version":"6.3.1"},{"puzzle":"../static/img/is3/tf3/tf3_46_M_ss1.jpeg","item_order":[2,3,1,0],"correct":0,"choice":0,"accuracy":1,"rt":15104.90000000596,"screen_resolution":[800,1280],"minimum_resolution":1,"item_set":3,"item":46,"test_form":3,"distractor":"pd","trial_type":"mars","trial_index":34,"time_elapsed":306713,"internal_node_id":"0.0-21.0-2.0","experiment":"calibration","task_version":"1.0","jspsych_version":"6.3.1","browser_interactions":0},{"rt":null,"stimulus":"<div style=\"font-size:24px;\">Loading puzzle:<br>15 / 16</div>","response":null,"trial_type":"html-keyboard-response","trial_index":35,"time_elapsed":307917,"internal_node_id":"0.0-22.0-1.0","experiment":"calibration","task_version":"1.0","jspsych_version":"6.3.1"},{"puzzle":"../static/img/is3/tf3/tf3_21_M_ss3.jpeg","item_order":[3,2,1,0],"correct":0,"choice":2,"accuracy":0,"rt":4740.899999976158,"screen_resolution":[800,1280],"minimum_resolution":1,"item_set":3,"item":21,"test_form":3,"distractor":"md","trial_type":"mars","trial_index":36,"time_elapsed":312660,"internal_node_id":"0.0-22.0-2.0","experiment":"calibration","task_version":"1.0","jspsych_version":"6.3.1","browser_interactions":0},{"rt":null,"stimulus":"<div style=\"font-size:24px;\">Loading puzzle:<br>16 / 16</div>","response":null,"trial_type":"html-keyboard-response","trial_index":37,"time_elapsed":313865,"internal_node_id":"0.0-23.0-1.0","experiment":"calibration","task_version":"1.0","jspsych_version":"6.3.1"},{"puzzle":"../static/img/is3/tf3/tf3_45_M_ss3.jpeg","item_order":[3,0,2,1],"correct":0,"choice":1,"accuracy":0,"rt":1817.9000000059605,"screen_resolution":[800,1280],"minimum_resolution":1,"item_set":3,"item":45,"test_form":3,"distractor":"md","trial_type":"mars","trial_index":38,"time_elapsed":315686,"internal_node_id":"0.0-23.0-2.0","experiment":"calibration","task_version":"1.0","jspsych_version":"6.3.1","browser_interactions":0},{"value":[1,0,0],"trial_type":"call-function","trial_index":39,"time_elapsed":315688,"internal_node_id":"0.0-24.0","experiment":"calibration","task_version":"1.0","jspsych_version":"6.3.1"},{"view_history":[{"page_index":0,"viewing_time":4517}],"rt":4517.299999982119,"trial_type":"instructions","trial_index":40,"time_elapsed":320206,"internal_node_id":"0.0-25.0","experiment":"calibration","task_version":"1.0","jspsych_version":"6.3.1"},{"rt":18381.29999998212,"responses":{"age":"28","gender-categorical":"Male","gender-free-response":"","ethnicity":"Not Hispanic or Latino","race":["Black or African American"],"education":"Bachelor degree","free-response":""},"trial_type":"survey-demo","trial_index":41,"time_elapsed":338657,"internal_node_id":"0.0-26.0","experiment":"calibration","task_version":"1.0","jspsych_version":"6.3.1","interactions":"[{\"event\":\"fullscreenenter\",\"trial\":1,\"time\":8117}]"}]