[{"success":true,"timeout":false,"failed_images":[],"failed_audio":[],"failed_video":[],"trial_type":"preload","trial_index":0,"time_elapsed":3031,"internal_node_id":"0.0-0.0","experiment":"calibration","task_version":"1.0","jspsych_version":"6.3.1"},{"success":true,"trial_type":"fullscreen","trial_index":1,"time_elapsed":32506,"internal_node_id":"0.0-1.0","experiment":"calibration","task_version":"1.0","jspsych_version":"6.3.1"},{"view_history":[{"page_index":0,"viewing_time":12872.399999999441},{"page_index":1,"viewing_time":7931.100000000559},{"page_index":2,"viewing_time":997.5999999996275}],"rt":21802.099999999627,"trial_type":"instructions","trial_index":2,"time_elapsed":54313,"internal_node_id":"0.0-3.0","experiment":"calibration","task_version":"1.0","jspsych_version":"6.3.1"},{"puzzle":"../static/img/practice/pt1_M1.png","item_order":[0,3,2,1],"correct":0,"choice":0,"accuracy":1,"rt":5126.0999999996275,"screen_resolution":[1050,1680],"minimum_resolution":1,"item_set":"practice","trial_type":"mars","trial_index":3,"time_elapsed":61444,"internal_node_id":"0.0-4.0-0.0","experiment":"calibration","task_version":"1.0","jspsych_version":"6.3.1"},{"puzzle":"../static/img/practice/pt2_M1.png","item_order":[2,3,1,0],"correct":0,"choice":0,"accuracy":1,"rt":3039,"screen_resolution":[1050,1680],"minimum_resolution":1,"item_set":"practice","trial_type":"mars","trial_index":4,"time_elapsed":66492,"internal_node_id":"0.0-5.0-0.0","experiment":"calibration","task_version":"1.0","jspsych_version":"6.3.1"},{"puzzle":"../static/img/practice/pt3_M1.png","item_order":[0,2,3,1],"correct":0,"choice":0,"accuracy":1,"rt":1703.7999999998137,"screen_resolution":[1050,1680],"minimum_resolution":1,"item_set":"practice","trial_type":"mars","trial_index":5,"time_elapsed":70202,"internal_node_id":"0.0-6.0-0.0","experiment":"calibration","task_version":"1.0","jspsych_version":"6.3.1"},{"view_history":[{"page_index":0,"viewing_time":1251.199999999255},{"page_index":1,"viewing_time":4231.100000000559}],"rt":5482.5999999996275,"trial_type":"instructions","trial_index":6,"time_elapsed":75689,"internal_node_id":"0.0-7.0","experiment":"calibration","task_version":"1.0","jspsych_version":"6.3.1"},{"rt":null,"stimulus":"<div style=\"font-size:24px;\">Loading puzzle:<br>1 / 16</div>","response":null,"trial_type":"html-keyboard-response","trial_index":7,"time_elapsed":76896,"internal_node_id":"0.0-8.0-1.0","experiment":"calibration","task_version":"1.0","jspsych_version":"6.3.1"},{"puzzle":"../static/img/is3/tf3/tf3_39_M_ss3.jpeg","item_order":[1,3,2,0],"correct":0,"choice":0,"accuracy":1,"rt":18138,"screen_resolution":[1050,1680],"minimum_resolution":1,"item_set":3,"item":39,"test_form":3,"distractor":"pd","trial_type":"mars","trial_index":8,"time_elapsed":95037,"internal_node_id":"0.0-8.0-2.0","experiment":"calibration","task_version":"1.0","jspsych_version":"6.3.1","browser_interactions":0},{"rt":null,"stimulus":"<div style=\"font-size:24px;\">Loading puzzle:<br>2 / 16</div>","response":null,"trial_type":"html-keyboard-response","trial_index":9,"time_elapsed":96245,"internal_node_id":"0.0-9.0-1.0","experiment":"calibration","task_version":"1.0","jspsych_version":"6.3.1"},{"puzzle":"../static/img/is3/tf3/tf3_6_M_ss3.jpeg","item_order":[0,2,1,3],"correct":0,"choice":3,"accuracy":0,"rt":9890.599999999627,"screen_resolution":[1050,1680],"minimum_resolution":1,"item_set":3,"item":6,"test_form":3,"distractor":"pd","trial_type":"mars","trial_index":10,"time_elapsed":106139,"internal_node_id":"0.0-9.0-2.0","experiment":"calibration","task_version":"1.0","jspsych_version":"6.3.1","browser_interactions":0},{"rt":null,"stimulus":"<div style=\"font-size:24px;\">Loading puzzle:<br>3 / 16</div>","response":null,"trial_type":"html-keyboard-response","trial_index":11,"time_elapsed":107345,"internal_node_id":"0.0-10.0-1.0","experiment":"calibration","task_version":"1.0","jspsych_version":"6.3.1"},{"puzzle":"../static/img/is3/tf3/tf3_51_M_ss3.jpeg","item_order":[1,0,3,2],"correct":0,"choice":0,"accuracy":1,"rt":9681.599999999627,"screen_resolution":[1050,1680],"minimum_resolution":1,"item_set":3,"item":51,"test_form":3,"distractor":"md","trial_type":"mars","trial_index":12,"time_elapsed":117030,"internal_node_id":"0.0-10.0-2.0","experiment":"calibration","task_version":"1.0","jspsych_version":"6.3.1","browser_interactions":0},{"rt":null,"stimulus":"<div style=\"font-size:24px;\">Loading puzzle:<br>4 / 16</div>","response":null,"trial_type":"html-keyboard-response","trial_index":13,"time_elapsed":118237,"internal_node_id":"0.0-11.0-1.0","experiment":"calibration","task_version":"1.0","jspsych_version":"6.3.1"},{"puzzle":"../static/img/is3/tf3/tf3_70_M_ss1.jpeg","item_order":[3,1,0,2],"correct":0,"choice":0,"accuracy":1,"rt":6584.5,"screen_resolution":[1050,1680],"minimum_resolution":1,"item_set":3,"item":70,"test_form":3,"distractor":"md","trial_type":"mars","trial_index":14,"time_elapsed":124825,"internal_node_id":"0.0-11.0-2.0","experiment":"calibration","task_version":"1.0","jspsych_version":"6.3.1","browser_interactions":0},{"rt":null,"stimulus":"<div style=\"font-size:24px;\">Loading puzzle:<br>5 / 16</div>","response":null,"trial_type":"html-keyboard-response","trial_index":15,"time_elapsed":126031,"internal_node_id":"0.0-12.0-1.0","experiment":"calibration","task_version":"1.0","jspsych_version":"6.3.1"},{"puzzle":"../static/img/is3/tf3/tf3_18_M_ss3.jpeg","item_order":[2,1,0,3],"correct":0,"choice":0,"accuracy":1,"rt":15695.099999999627,"screen_resolution":[1050,1680],"minimum_resolution":1,"item_set":3,"item":18,"test_form":3,"distractor":"pd","trial_type":"mars","trial_index":16,"time_elapsed":141729,"internal_node_id":"0.0-12.0-2.0","experiment":"calibration","task_version":"1.0","jspsych_version":"6.3.1","browser_interactions":0},{"rt":null,"stimulus":"<div style=\"font-size:24px;\">Loading puzzle:<br>6 / 16</div>","response":null,"trial_type":"html-keyboard-response","trial_index":17,"time_elapsed":142938,"internal_node_id":"0.0-13.0-1.0","experiment":"calibration","task_version":"1.0","jspsych_version":"6.3.1"},{"puzzle":"../static/img/is3/tf3/tf3_31_M_ss1.jpeg","item_order":[3,0,2,1],"correct":0,"choice":0,"accuracy":1,"rt":12614.100000000559,"screen_resolution":[1050,1680],"minimum_resolution":1,"item_set":3,"item":31,"test_form":3,"distractor":"md","trial_type":"mars","trial_index":18,"time_elapsed":155555,"internal_node_id":"0.0-13.0-2.0","experiment":"calibration","task_version":"1.0","jspsych_version":"6.3.1","browser_interactions":0},{"rt":null,"stimulus":"<div style=\"font-size:24px;\">Loading puzzle:<br>7 / 16</div>","response":null,"trial_type":"html-keyboard-response","trial_index":19,"time_elapsed":156761,"internal_node_id":"0.0-14.0-1.0","experiment":"calibration","task_version":"1.0","jspsych_version":"6.3.1"},{"puzzle":"../static/img/is3/tf3/tf3_16_M_ss1.jpeg","item_order":[3,0,1,2],"correct":0,"choice":0,"accuracy":1,"rt":6462.0999999996275,"screen_resolution":[1050,1680],"minimum_resolution":1,"item_set":3,"item":16,"test_form":3,"distractor":"pd","trial_type":"mars","trial_index":20,"time_elapsed":163226,"internal_node_id":"0.0-14.0-2.0","experiment":"calibration","task_version":"1.0","jspsych_version":"6.3.1","browser_interactions":0},{"rt":null,"stimulus":"<div style=\"font-size:24px;\">Loading puzzle:<br>8 / 16</div>","response":null,"trial_type":"html-keyboard-response","trial_index":21,"time_elapsed":164432,"internal_node_id":"0.0-15.0-1.0","experiment":"calibration","task_version":"1.0","jspsych_version":"6.3.1"},{"puzzle":"../static/img/is3/tf3/tf3_58_M_ss1.jpeg","item_order":[0,1,3,2],"correct":0,"choice":0,"accuracy":1,"rt":6118.4000000003725,"screen_resolution":[1050,1680],"minimum_resolution":1,"item_set":3,"item":58,"test_form":3,"distractor":"md","trial_type":"mars","trial_index":22,"time_elapsed":170553,"internal_node_id":"0.0-15.0-2.0","experiment":"calibration","task_version":"1.0","jspsych_version":"6.3.1","browser_interactions":0},{"rt":null,"stimulus":"<div style=\"font-size:24px;\">Loading puzzle:<br>9 / 16</div>","response":null,"trial_type":"html-keyboard-response","trial_index":23,"time_elapsed":171759,"internal_node_id":"0.0-16.0-1.0","experiment":"calibration","task_version":"1.0","jspsych_version":"6.3.1"},{"puzzle":"../static/img/is3/tf3/tf3_53_M_ss2.jpeg","item_order":[3,2,1,0],"correct":0,"choice":0,"accuracy":1,"rt":10589.5,"screen_resolution":[1050,1680],"minimum_resolution":1,"item_set":3,"item":53,"test_form":3,"distractor":"md","trial_type":"mars","trial_index":24,"time_elapsed":182351,"internal_node_id":"0.0-16.0-2.0","experiment":"calibration","task_version":"1.0","jspsych_version":"6.3.1","browser_interactions":0},{"rt":null,"stimulus":"<div style=\"font-size:24px;\">Loading puzzle:<br>10 / 16</div>","response":null,"trial_type":"html-keyboard-response","trial_index":25,"time_elapsed":183561,"internal_node_id":"0.0-17.0-1.0","experiment":"calibration","task_version":"1.0","jspsych_version":"6.3.1"},{"puzzle":"../static/img/is3/tf3/tf3_73_M_ss1.jpeg","item_order":[2,3,0,1],"correct":0,"choice":0,"accuracy":1,"rt":18467,"screen_resolution":[1050,1680],"minimum_resolution":1,"item_set":3,"item":73,"test_form":3,"distractor":"md","trial_type":"mars","trial_index":26,"time_elapsed":202031,"internal_node_id":"0.0-17.0-2.0","experiment":"calibration","task_version":"1.0","jspsych_version":"6.3.1","browser_interactions":0},{"rt":null,"stimulus":"<div style=\"font-size:24px;\">Loading puzzle:<br>11 / 16</div>","response":null,"trial_type":"html-keyboard-response","trial_index":27,"time_elapsed":203237,"internal_node_id":"0.0-18.0-1.0","experiment":"calibration","task_version":"1.0","jspsych_version":"6.3.1"},{"puzzle":"../static/img/is3/tf3/tf3_59_M_ss2.jpeg","item_order":[0,2,1,3],"correct":0,"choice":0,"accuracy":1,"rt":17319.5,"screen_resolution":[1050,1680],"minimum_resolution":1,"item_set":3,"item":59,"test_form":3,"distractor":"md","trial_type":"mars","trial_index":28,"time_elapsed":220559,"internal_node_id":"0.0-18.0-2.0","experiment":"calibration","task_version":"1.0","jspsych_version":"6.3.1","browser_interactions":0},{"rt":null,"stimulus":"<div style=\"font-size:24px;\">Loading puzzle:<br>12 / 16</div>","response":null,"trial_type":"html-keyboard-response","trial_index":29,"time_elapsed":221765,"internal_node_id":"0.0-19.0-1.0","experiment":"calibration","task_version":"1.0","jspsych_version":"6.3.1"},{"puzzle":"../static/img/is3/tf3/tf3_26_M_ss2.jpeg","item_order":[2,3,0,1],"correct":0,"choice":0,"accuracy":1,"rt":14709.5,"screen_resolution":[1050,1680],"minimum_resolution":1,"item_set":3,"item":26,"test_form":3,"distractor":"pd","trial_type":"mars","trial_index":30,"time_elapsed":236477,"internal_node_id":"0.0-19.0-2.0","experiment":"calibration","task_version":"1.0","jspsych_version":"6.3.1","browser_interactions":0},{"rt":null,"stimulus":"<div style=\"font-size:24px;\">Loading puzzle:<br>13 / 16</div>","response":null,"trial_type":"html-keyboard-response","trial_index":31,"time_elapsed":237685,"internal_node_id":"0.0-20.0-1.0","experiment":"calibration","task_version":"1.0","jspsych_version":"6.3.1"},{"puzzle":"../static/img/is3/tf3/tf3_64_M_ss1.jpeg","item_order":[3,1,0,2],"correct":0,"choice":0,"accuracy":1,"rt":23870.5,"screen_resolution":[1050,1680],"minimum_resolution":1,"item_set":3,"item":64,"test_form":3,"distractor":"md","trial_type":"mars","trial_index":32,"time_elapsed":261558,"internal_node_id":"0.0-20.0-2.0","experiment":"calibration","task_version":"1.0","jspsych_version":"6.3.1","browser_interactions":0},{"rt":null,"stimulus":"<div style=\"font-size:24px;\">Loading puzzle:<br>14 / 16</div>","response":null,"trial_type":"html-keyboard-response","trial_index":33,"time_elapsed":262765,"internal_node_id":"0.0-21.0-1.0","experiment":"calibration","task_version":"1.0","jspsych_version":"6.3.1"},{"puzzle":"../static/img/is3/tf3/tf3_44_M_ss2.jpeg","item_order":[3,1,2,0],"correct":0,"choice":0,"accuracy":1,"rt":16136.100000000559,"screen_resolution":[1050,1680],"minimum_resolution":1,"item_set":3,"item":44,"test_form":3,"distractor":"pd","trial_type":"mars","trial_index":34,"time_elapsed":278904,"internal_node_id":"0.0-21.0-2.0","experiment":"calibration","task_version":"1.0","jspsych_version":"6.3.1","browser_interactions":0},{"rt":null,"stimulus":"<div style=\"font-size:24px;\">Loading puzzle:<br>15 / 16</div>","response":null,"trial_type":"html-keyboard-response","trial_index":35,"time_elapsed":280111,"internal_node_id":"0.0-22.0-1.0","experiment":"calibration","task_version":"1.0","jspsych_version":"6.3.1"},{"puzzle":"../static/img/is3/tf3/tf3_66_M_ss3.jpeg","item_order":[2,1,3,0],"correct":0,"choice":0,"accuracy":1,"rt":23445.200000000186,"screen_resolution":[1050,1680],"minimum_resolution":1,"item_set":3,"item":66,"test_form":3,"distractor":"md","trial_type":"mars","trial_index":36,"time_elapsed":303559,"internal_node_id":"0.0-22.0-2.0","experiment":"calibration","task_version":"1.0","jspsych_version":"6.3.1","browser_interactions":0},{"rt":null,"stimulus":"<div style=\"font-size:24px;\">Loading puzzle:<br>16 / 16</div>","response":null,"trial_type":"html-keyboard-response","trial_index":37,"time_elapsed":304767,"internal_node_id":"0.0-23.0-1.0","experiment":"calibration","task_version":"1.0","jspsych_version":"6.3.1"},{"puzzle":"../static/img/is3/tf3/tf3_21_M_ss3.jpeg","item_order":[2,0,3,1],"correct":0,"choice":0,"accuracy":1,"rt":21535.299999999814,"screen_resolution":[1050,1680],"minimum_resolution":1,"item_set":3,"item":21,"test_form":3,"distractor":"md","trial_type":"mars","trial_index":38,"time_elapsed":326305,"internal_node_id":"0.0-23.0-2.0","experiment":"calibration","task_version":"1.0","jspsych_version":"6.3.1","browser_interactions":0},{"value":[0,0,0],"trial_type":"call-function","trial_index":39,"time_elapsed":326312,"internal_node_id":"0.0-24.0","experiment":"calibration","task_version":"1.0","jspsych_version":"6.3.1"},{"view_history":[{"page_index":0,"viewing_time":2106.4000000003725}],"rt":2106.7000000001863,"trial_type":"instructions","trial_index":40,"time_elapsed":328420,"internal_node_id":"0.0-25.0","experiment":"calibration","task_version":"1.0","jspsych_version":"6.3.1"},{"rt":10063.200000000186,"responses":{"age":"22","gender-categorical":"Male","gender-free-response":"","ethnicity":"Not Hispanic or Latino","race":["White"],"education":"Some college","free-response":""},"trial_type":"survey-demo","trial_index":41,"time_elapsed":338486,"internal_node_id":"0.0-26.0","experiment":"calibration","task_version":"1.0","jspsych_version":"6.3.1","interactions":"[{\"event\":\"blur\",\"trial\":0,\"time\":2097},{\"event\":\"focus\",\"trial\":1,\"time\":27477},{\"event\":\"fullscreenenter\",\"trial\":1,\"time\":31540}]"}]