[{"success":true,"timeout":false,"failed_images":[],"failed_audio":[],"failed_video":[],"trial_type":"preload","trial_index":0,"time_elapsed":3345,"internal_node_id":"0.0-0.0","experiment":"calibration","task_version":"1.0","jspsych_version":"6.3.1"},{"success":true,"trial_type":"fullscreen","trial_index":1,"time_elapsed":6258,"internal_node_id":"0.0-1.0","experiment":"calibration","task_version":"1.0","jspsych_version":"6.3.1"},{"view_history":[{"page_index":0,"viewing_time":9995},{"page_index":1,"viewing_time":5872},{"page_index":2,"viewing_time":2509}],"rt":18376,"trial_type":"instructions","trial_index":2,"time_elapsed":24642,"internal_node_id":"0.0-3.0","experiment":"calibration","task_version":"1.0","jspsych_version":"6.3.1"},{"puzzle":"../static/img/practice/pt1_M1.png","item_order":[3,0,2,1],"correct":0,"choice":2,"accuracy":0,"rt":7492,"screen_resolution":[900,1440],"minimum_resolution":1,"item_set":"practice","trial_type":"mars","trial_index":3,"time_elapsed":34138,"internal_node_id":"0.0-4.0-0.0","experiment":"calibration","task_version":"1.0","jspsych_version":"6.3.1"},{"puzzle":"../static/img/practice/pt1_M1.png","item_order":[0,2,1,3],"correct":0,"choice":0,"accuracy":1,"rt":4725,"screen_resolution":[900,1440],"minimum_resolution":1,"item_set":"practice","trial_type":"mars","trial_index":4,"time_elapsed":40869,"internal_node_id":"0.0-4.1-0.1","experiment":"calibration","task_version":"1.0","jspsych_version":"6.3.1"},{"puzzle":"../static/img/practice/pt2_M1.png","item_order":[1,2,0,3],"correct":0,"choice":0,"accuracy":1,"rt":3459,"screen_resolution":[900,1440],"minimum_resolution":1,"item_set":"practice","trial_type":"mars","trial_index":5,"time_elapsed":46336,"internal_node_id":"0.0-5.0-0.0","experiment":"calibration","task_version":"1.0","jspsych_version":"6.3.1"},{"puzzle":"../static/img/practice/pt3_M1.png","item_order":[0,2,1,3],"correct":0,"choice":0,"accuracy":1,"rt":2473,"screen_resolution":[900,1440],"minimum_resolution":1,"item_set":"practice","trial_type":"mars","trial_index":6,"time_elapsed":50815,"internal_node_id":"0.0-6.0-0.0","experiment":"calibration","task_version":"1.0","jspsych_version":"6.3.1"},{"view_history":[{"page_index":0,"viewing_time":2291.0000000000073},{"page_index":1,"viewing_time":4742.999999999993}],"rt":7035.000000000007,"trial_type":"instructions","trial_index":7,"time_elapsed":57853,"internal_node_id":"0.0-7.0","experiment":"calibration","task_version":"1.0","jspsych_version":"6.3.1"},{"rt":null,"stimulus":"<div style=\"font-size:24px;\">Loading puzzle:<br>1 / 16</div>","response":null,"trial_type":"html-keyboard-response","trial_index":8,"time_elapsed":59058,"internal_node_id":"0.0-8.0-1.0","experiment":"calibration","task_version":"1.0","jspsych_version":"6.3.1"},{"puzzle":"../static/img/is3/tf2/tf2_22_M_ss2.jpeg","item_order":[3,1,0,2],"correct":0,"choice":0,"accuracy":1,"rt":12050,"screen_resolution":[900,1440],"minimum_resolution":1,"item_set":3,"item":22,"test_form":2,"distractor":"pd","trial_type":"mars","trial_index":9,"time_elapsed":71112,"internal_node_id":"0.0-8.0-2.0","experiment":"calibration","task_version":"1.0","jspsych_version":"6.3.1","browser_interactions":0},{"rt":null,"stimulus":"<div style=\"font-size:24px;\">Loading puzzle:<br>2 / 16</div>","response":null,"trial_type":"html-keyboard-response","trial_index":10,"time_elapsed":72317,"internal_node_id":"0.0-9.0-1.0","experiment":"calibration","task_version":"1.0","jspsych_version":"6.3.1"},{"puzzle":"../static/img/is3/tf2/tf2_25_M_ss2.jpeg","item_order":[3,0,1,2],"correct":0,"choice":2,"accuracy":0,"rt":22773,"screen_resolution":[900,1440],"minimum_resolution":1,"item_set":3,"item":25,"test_form":2,"distractor":"pd","trial_type":"mars","trial_index":11,"time_elapsed":95095,"internal_node_id":"0.0-9.0-2.0","experiment":"calibration","task_version":"1.0","jspsych_version":"6.3.1","browser_interactions":0},{"rt":null,"stimulus":"<div style=\"font-size:24px;\">Loading puzzle:<br>3 / 16</div>","response":null,"trial_type":"html-keyboard-response","trial_index":12,"time_elapsed":96297,"internal_node_id":"0.0-10.0-1.0","experiment":"calibration","task_version":"1.0","jspsych_version":"6.3.1"},{"puzzle":"../static/img/is3/tf2/tf2_10_M_ss2.jpeg","item_order":[3,2,1,0],"correct":0,"choice":0,"accuracy":1,"rt":27845,"screen_resolution":[900,1440],"minimum_resolution":1,"item_set":3,"item":10,"test_form":2,"distractor":"pd","trial_type":"mars","trial_index":13,"time_elapsed":124146,"internal_node_id":"0.0-10.0-2.0","experiment":"calibration","task_version":"1.0","jspsych_version":"6.3.1","browser_interactions":0},{"rt":null,"stimulus":"<div style=\"font-size:24px;\">Loading puzzle:<br>4 / 16</div>","response":null,"trial_type":"html-keyboard-response","trial_index":14,"time_elapsed":125349,"internal_node_id":"0.0-11.0-1.0","experiment":"calibration","task_version":"1.0","jspsych_version":"6.3.1"},{"puzzle":"../static/img/is3/tf3/tf3_61_M_ss1.jpeg","item_order":[2,1,3,0],"correct":0,"choice":1,"accuracy":0,"rt":28866.00000000003,"screen_resolution":[900,1440],"minimum_resolution":1,"item_set":3,"item":61,"test_form":3,"distractor":"pd","trial_type":"mars","trial_index":15,"time_elapsed":154218,"internal_node_id":"0.0-11.0-2.0","experiment":"calibration","task_version":"1.0","jspsych_version":"6.3.1","browser_interactions":0},{"rt":null,"stimulus":"<div style=\"font-size:24px;\">Loading puzzle:<br>5 / 16</div>","response":null,"trial_type":"html-keyboard-response","trial_index":16,"time_elapsed":155420,"internal_node_id":"0.0-12.0-1.0","experiment":"calibration","task_version":"1.0","jspsych_version":"6.3.1"},{"puzzle":"../static/img/is3/tf3/tf3_18_M_ss3.jpeg","item_order":[3,0,2,1],"correct":0,"choice":0,"accuracy":1,"rt":29922,"screen_resolution":[900,1440],"minimum_resolution":1,"item_set":3,"item":18,"test_form":3,"distractor":"md","trial_type":"mars","trial_index":17,"time_elapsed":185345,"internal_node_id":"0.0-12.0-2.0","experiment":"calibration","task_version":"1.0","jspsych_version":"6.3.1","browser_interactions":0},{"rt":null,"stimulus":"<div style=\"font-size:24px;\">Loading puzzle:<br>6 / 16</div>","response":null,"trial_type":"html-keyboard-response","trial_index":18,"time_elapsed":186548,"internal_node_id":"0.0-13.0-1.0","experiment":"calibration","task_version":"1.0","jspsych_version":"6.3.1"},{"puzzle":"../static/img/is3/tf3/tf3_27_M_ss3.jpeg","item_order":[2,3,0,1],"correct":0,"choice":null,"accuracy":null,"rt":null,"screen_resolution":[900,1440],"minimum_resolution":1,"item_set":3,"item":27,"test_form":3,"distractor":"md","trial_type":"mars","trial_index":19,"time_elapsed":216553,"internal_node_id":"0.0-13.0-2.0","experiment":"calibration","task_version":"1.0","jspsych_version":"6.3.1","browser_interactions":0},{"rt":null,"stimulus":"<div style=\"font-size:24px;\">Loading puzzle:<br>7 / 16</div>","response":null,"trial_type":"html-keyboard-response","trial_index":20,"time_elapsed":217758,"internal_node_id":"0.0-14.0-1.0","experiment":"calibration","task_version":"1.0","jspsych_version":"6.3.1"},{"puzzle":"../static/img/is3/tf2/tf2_17_M_ss3.jpeg","item_order":[2,1,3,0],"correct":0,"choice":0,"accuracy":1,"rt":12204,"screen_resolution":[900,1440],"minimum_resolution":1,"item_set":3,"item":17,"test_form":2,"distractor":"pd","trial_type":"mars","trial_index":21,"time_elapsed":229966,"internal_node_id":"0.0-14.0-2.0","experiment":"calibration","task_version":"1.0","jspsych_version":"6.3.1","browser_interactions":0},{"rt":null,"stimulus":"<div style=\"font-size:24px;\">Loading puzzle:<br>8 / 16</div>","response":null,"trial_type":"html-keyboard-response","trial_index":22,"time_elapsed":231169,"internal_node_id":"0.0-15.0-1.0","experiment":"calibration","task_version":"1.0","jspsych_version":"6.3.1"},{"puzzle":"../static/img/is3/tf2/tf2_62_M_ss3.jpeg","item_order":[0,2,3,1],"correct":0,"choice":0,"accuracy":1,"rt":22818,"screen_resolution":[900,1440],"minimum_resolution":1,"item_set":3,"item":62,"test_form":2,"distractor":"md","trial_type":"mars","trial_index":23,"time_elapsed":253990,"internal_node_id":"0.0-15.0-2.0","experiment":"calibration","task_version":"1.0","jspsych_version":"6.3.1","browser_interactions":0},{"rt":null,"stimulus":"<div style=\"font-size:24px;\">Loading puzzle:<br>9 / 16</div>","response":null,"trial_type":"html-keyboard-response","trial_index":24,"time_elapsed":255194,"internal_node_id":"0.0-16.0-1.0","experiment":"calibration","task_version":"1.0","jspsych_version":"6.3.1"},{"puzzle":"../static/img/is3/tf2/tf2_53_M_ss3.jpeg","item_order":[0,1,2,3],"correct":0,"choice":0,"accuracy":1,"rt":21814,"screen_resolution":[900,1440],"minimum_resolution":1,"item_set":3,"item":53,"test_form":2,"distractor":"pd","trial_type":"mars","trial_index":25,"time_elapsed":277012,"internal_node_id":"0.0-16.0-2.0","experiment":"calibration","task_version":"1.0","jspsych_version":"6.3.1","browser_interactions":0},{"rt":null,"stimulus":"<div style=\"font-size:24px;\">Loading puzzle:<br>10 / 16</div>","response":null,"trial_type":"html-keyboard-response","trial_index":26,"time_elapsed":278214,"internal_node_id":"0.0-17.0-1.0","experiment":"calibration","task_version":"1.0","jspsych_version":"6.3.1"},{"puzzle":"../static/img/is3/tf1/tf1_72_M_ss2.jpeg","item_order":[3,1,0,2],"correct":0,"choice":2,"accuracy":0,"rt":28623,"screen_resolution":[900,1440],"minimum_resolution":1,"item_set":3,"item":72,"test_form":1,"distractor":"md","trial_type":"mars","trial_index":27,"time_elapsed":306841,"internal_node_id":"0.0-17.0-2.0","experiment":"calibration","task_version":"1.0","jspsych_version":"6.3.1","browser_interactions":0},{"rt":null,"stimulus":"<div style=\"font-size:24px;\">Loading puzzle:<br>11 / 16</div>","response":null,"trial_type":"html-keyboard-response","trial_index":28,"time_elapsed":308044,"internal_node_id":"0.0-18.0-1.0","experiment":"calibration","task_version":"1.0","jspsych_version":"6.3.1"},{"puzzle":"../static/img/is3/tf2/tf2_52_M_ss2.jpeg","item_order":[1,3,0,2],"correct":0,"choice":0,"accuracy":1,"rt":20129,"screen_resolution":[900,1440],"minimum_resolution":1,"item_set":3,"item":52,"test_form":2,"distractor":"md","trial_type":"mars","trial_index":29,"time_elapsed":328177,"internal_node_id":"0.0-18.0-2.0","experiment":"calibration","task_version":"1.0","jspsych_version":"6.3.1","browser_interactions":0},{"rt":null,"stimulus":"<div style=\"font-size:24px;\">Loading puzzle:<br>12 / 16</div>","response":null,"trial_type":"html-keyboard-response","trial_index":30,"time_elapsed":329380,"internal_node_id":"0.0-19.0-1.0","experiment":"calibration","task_version":"1.0","jspsych_version":"6.3.1"},{"puzzle":"../static/img/is3/tf3/tf3_67_M_ss1.jpeg","item_order":[2,1,3,0],"correct":0,"choice":0,"accuracy":1,"rt":25720,"screen_resolution":[900,1440],"minimum_resolution":1,"item_set":3,"item":67,"test_form":3,"distractor":"pd","trial_type":"mars","trial_index":31,"time_elapsed":355104,"internal_node_id":"0.0-19.0-2.0","experiment":"calibration","task_version":"1.0","jspsych_version":"6.3.1","browser_interactions":0},{"rt":null,"stimulus":"<div style=\"font-size:24px;\">Loading puzzle:<br>13 / 16</div>","response":null,"trial_type":"html-keyboard-response","trial_index":32,"time_elapsed":356307,"internal_node_id":"0.0-20.0-1.0","experiment":"calibration","task_version":"1.0","jspsych_version":"6.3.1"},{"puzzle":"../static/img/is3/tf3/tf3_75_M_ss3.jpeg","item_order":[1,2,3,0],"correct":0,"choice":3,"accuracy":0,"rt":13601,"screen_resolution":[900,1440],"minimum_resolution":1,"item_set":3,"item":75,"test_form":3,"distractor":"md","trial_type":"mars","trial_index":33,"time_elapsed":369911,"internal_node_id":"0.0-20.0-2.0","experiment":"calibration","task_version":"1.0","jspsych_version":"6.3.1","browser_interactions":0},{"rt":null,"stimulus":"<div style=\"font-size:24px;\">Loading puzzle:<br>14 / 16</div>","response":null,"trial_type":"html-keyboard-response","trial_index":34,"time_elapsed":371114,"internal_node_id":"0.0-21.0-1.0","experiment":"calibration","task_version":"1.0","jspsych_version":"6.3.1"},{"puzzle":"../static/img/is3/tf1/tf1_76_M_ss3.jpeg","item_order":[1,2,3,0],"correct":0,"choice":3,"accuracy":0,"rt":12876.000000000058,"screen_resolution":[900,1440],"minimum_resolution":1,"item_set":3,"item":76,"test_form":1,"distractor":"md","trial_type":"mars","trial_index":35,"time_elapsed":383994,"internal_node_id":"0.0-21.0-2.0","experiment":"calibration","task_version":"1.0","jspsych_version":"6.3.1","browser_interactions":0},{"rt":null,"stimulus":"<div style=\"font-size:24px;\">Loading puzzle:<br>15 / 16</div>","response":null,"trial_type":"html-keyboard-response","trial_index":36,"time_elapsed":385197,"internal_node_id":"0.0-22.0-1.0","experiment":"calibration","task_version":"1.0","jspsych_version":"6.3.1"},{"puzzle":"../static/img/is3/tf1/tf1_30_M_ss2.jpeg","item_order":[2,0,1,3],"correct":0,"choice":0,"accuracy":1,"rt":24074,"screen_resolution":[900,1440],"minimum_resolution":1,"item_set":3,"item":30,"test_form":1,"distractor":"pd","trial_type":"mars","trial_index":37,"time_elapsed":409274,"internal_node_id":"0.0-22.0-2.0","experiment":"calibration","task_version":"1.0","jspsych_version":"6.3.1","browser_interactions":0},{"rt":null,"stimulus":"<div style=\"font-size:24px;\">Loading puzzle:<br>16 / 16</div>","response":null,"trial_type":"html-keyboard-response","trial_index":38,"time_elapsed":410477,"internal_node_id":"0.0-23.0-1.0","experiment":"calibration","task_version":"1.0","jspsych_version":"6.3.1"},{"puzzle":"../static/img/is3/tf3/tf3_45_M_ss3.jpeg","item_order":[1,3,0,2],"correct":0,"choice":0,"accuracy":1,"rt":10574,"screen_resolution":[900,1440],"minimum_resolution":1,"item_set":3,"item":45,"test_form":3,"distractor":"pd","trial_type":"mars","trial_index":39,"time_elapsed":421055,"internal_node_id":"0.0-23.0-2.0","experiment":"calibration","task_version":"1.0","jspsych_version":"6.3.1","browser_interactions":0},{"value":[0,1,0],"trial_type":"call-function","trial_index":40,"time_elapsed":421057,"internal_node_id":"0.0-24.0","experiment":"calibration","task_version":"1.0","jspsych_version":"6.3.1"},{"view_history":[{"page_index":0,"viewing_time":3339}],"rt":3339,"trial_type":"instructions","trial_index":41,"time_elapsed":424396,"internal_node_id":"0.0-25.0","experiment":"calibration","task_version":"1.0","jspsych_version":"6.3.1"},{"rt":16368,"responses":{"age":"30","gender-categorical":"Female","gender-free-response":"","ethnicity":"Not Hispanic or Latino","race":["White"],"education":"Master degree or higher","free-response":""},"trial_type":"survey-demo","trial_index":42,"time_elapsed":440768,"internal_node_id":"0.0-26.0","experiment":"calibration","task_version":"1.0","jspsych_version":"6.3.1","interactions":"[{\"event\":\"fullscreenenter\",\"trial\":1,\"time\":5290}]"}]