[{"success":true,"timeout":false,"failed_images":[],"failed_audio":[],"failed_video":[],"trial_type":"preload","trial_index":0,"time_elapsed":18327,"internal_node_id":"0.0-0.0","experiment":"calibration","task_version":"1.0","jspsych_version":"6.3.1"},{"success":true,"trial_type":"fullscreen","trial_index":1,"time_elapsed":388105,"internal_node_id":"0.0-1.0","experiment":"calibration","task_version":"1.0","jspsych_version":"6.3.1"},{"view_history":[{"page_index":0,"viewing_time":44584},{"page_index":1,"viewing_time":1668},{"page_index":2,"viewing_time":12065}],"rt":58318,"trial_type":"instructions","trial_index":2,"time_elapsed":446427,"internal_node_id":"0.0-2.0","experiment":"calibration","task_version":"1.0","jspsych_version":"6.3.1"},{"puzzle":"../static/img/practice/pt1_M1.png","item_order":[1,0,3,2],"correct":0,"choice":0,"accuracy":1,"rt":8572,"screen_resolution":[683,1708],"minimum_resolution":1,"item_set":"practice","trial_type":"mars","trial_index":3,"time_elapsed":457003,"internal_node_id":"0.0-3.0-0.0","experiment":"calibration","task_version":"1.0","jspsych_version":"6.3.1"},{"puzzle":"../static/img/practice/pt2_M1.png","item_order":[0,1,2,3],"correct":0,"choice":0,"accuracy":1,"rt":21799,"screen_resolution":[683,1708],"minimum_resolution":1,"item_set":"practice","trial_type":"mars","trial_index":4,"time_elapsed":480805,"internal_node_id":"0.0-4.0-0.0","experiment":"calibration","task_version":"1.0","jspsych_version":"6.3.1"},{"puzzle":"../static/img/practice/pt3_M1.png","item_order":[3,1,0,2],"correct":0,"choice":0,"accuracy":1,"rt":9827,"screen_resolution":[683,1708],"minimum_resolution":1,"item_set":"practice","trial_type":"mars","trial_index":5,"time_elapsed":492634,"internal_node_id":"0.0-5.0-0.0","experiment":"calibration","task_version":"1.0","jspsych_version":"6.3.1"},{"view_history":[{"page_index":0,"viewing_time":7396},{"page_index":1,"viewing_time":22395}],"rt":29791,"trial_type":"instructions","trial_index":6,"time_elapsed":522426,"internal_node_id":"0.0-6.0","experiment":"calibration","task_version":"1.0","jspsych_version":"6.3.1"},{"rt":null,"stimulus":"<div style=\"font-size:24px;\">Loading puzzle:<br>1 / 16</div>","response":null,"trial_type":"html-keyboard-response","trial_index":7,"time_elapsed":523631,"internal_node_id":"0.0-7.0-0.0","experiment":"calibration","task_version":"1.0","jspsych_version":"6.3.1"},{"puzzle":"../static/img/is3/tf2/tf2_20_M_ss3.jpeg","item_order":[2,3,1,0],"correct":0,"choice":1,"accuracy":0,"rt":14229,"screen_resolution":[683,1708],"minimum_resolution":1,"item_set":3,"item":20,"test_form":2,"distractor":"pd","trial_type":"mars","trial_index":8,"time_elapsed":537862,"internal_node_id":"0.0-7.0-1.0","experiment":"calibration","task_version":"1.0","jspsych_version":"6.3.1","browser_interactions":1},{"rt":null,"stimulus":"<div style=\"font-size:24px;\">Loading puzzle:<br>2 / 16</div>","response":null,"trial_type":"html-keyboard-response","trial_index":9,"time_elapsed":539064,"internal_node_id":"0.0-8.0-0.0","experiment":"calibration","task_version":"1.0","jspsych_version":"6.3.1"},{"puzzle":"../static/img/is3/tf1/tf1_25_M_ss3.jpeg","item_order":[0,2,3,1],"correct":0,"choice":0,"accuracy":1,"rt":27397,"screen_resolution":[683,1708],"minimum_resolution":1,"item_set":3,"item":25,"test_form":1,"distractor":"md","trial_type":"mars","trial_index":10,"time_elapsed":566463,"internal_node_id":"0.0-8.0-1.0","experiment":"calibration","task_version":"1.0","jspsych_version":"6.3.1","browser_interactions":2},{"rt":null,"stimulus":"<div style=\"font-size:24px;\">Loading puzzle:<br>3 / 16</div>","response":null,"trial_type":"html-keyboard-response","trial_index":11,"time_elapsed":567664,"internal_node_id":"0.0-9.0-0.0","experiment":"calibration","task_version":"1.0","jspsych_version":"6.3.1"},{"puzzle":"../static/img/is3/tf1/tf1_70_M_ss3.jpeg","item_order":[2,1,3,0],"correct":0,"choice":0,"accuracy":1,"rt":26784,"screen_resolution":[683,1708],"minimum_resolution":1,"item_set":3,"item":70,"test_form":1,"distractor":"md","trial_type":"mars","trial_index":12,"time_elapsed":594450,"internal_node_id":"0.0-9.0-1.0","experiment":"calibration","task_version":"1.0","jspsych_version":"6.3.1","browser_interactions":2},{"rt":null,"stimulus":"<div style=\"font-size:24px;\">Loading puzzle:<br>4 / 16</div>","response":null,"trial_type":"html-keyboard-response","trial_index":13,"time_elapsed":595651,"internal_node_id":"0.0-10.0-0.0","experiment":"calibration","task_version":"1.0","jspsych_version":"6.3.1"},{"puzzle":"../static/img/is3/tf2/tf2_49_M_ss2.jpeg","item_order":[3,1,2,0],"correct":0,"choice":2,"accuracy":0,"rt":17036,"screen_resolution":[683,1708],"minimum_resolution":1,"item_set":3,"item":49,"test_form":2,"distractor":"md","trial_type":"mars","trial_index":14,"time_elapsed":612691,"internal_node_id":"0.0-10.0-1.0","experiment":"calibration","task_version":"1.0","jspsych_version":"6.3.1","browser_interactions":1},{"rt":null,"stimulus":"<div style=\"font-size:24px;\">Loading puzzle:<br>5 / 16</div>","response":null,"trial_type":"html-keyboard-response","trial_index":15,"time_elapsed":613893,"internal_node_id":"0.0-11.0-0.0","experiment":"calibration","task_version":"1.0","jspsych_version":"6.3.1"},{"puzzle":"../static/img/is3/tf1/tf1_27_M_ss2.jpeg","item_order":[3,1,2,0],"correct":0,"choice":3,"accuracy":0,"rt":19133,"screen_resolution":[683,1708],"minimum_resolution":1,"item_set":3,"item":27,"test_form":1,"distractor":"pd","trial_type":"mars","trial_index":16,"time_elapsed":633028,"internal_node_id":"0.0-11.0-1.0","experiment":"calibration","task_version":"1.0","jspsych_version":"6.3.1","browser_interactions":2},{"rt":null,"stimulus":"<div style=\"font-size:24px;\">Loading puzzle:<br>6 / 16</div>","response":null,"trial_type":"html-keyboard-response","trial_index":17,"time_elapsed":634230,"internal_node_id":"0.0-12.0-0.0","experiment":"calibration","task_version":"1.0","jspsych_version":"6.3.1"},{"puzzle":"../static/img/is3/tf2/tf2_13_M_ss2.jpeg","item_order":[2,1,0,3],"correct":0,"choice":1,"accuracy":0,"rt":20065,"screen_resolution":[683,1708],"minimum_resolution":1,"item_set":3,"item":13,"test_form":2,"distractor":"md","trial_type":"mars","trial_index":18,"time_elapsed":654296,"internal_node_id":"0.0-12.0-1.0","experiment":"calibration","task_version":"1.0","jspsych_version":"6.3.1","browser_interactions":2},{"rt":null,"stimulus":"<div style=\"font-size:24px;\">Loading puzzle:<br>7 / 16</div>","response":null,"trial_type":"html-keyboard-response","trial_index":19,"time_elapsed":655496,"internal_node_id":"0.0-13.0-0.0","experiment":"calibration","task_version":"1.0","jspsych_version":"6.3.1"},{"puzzle":"../static/img/is3/tf2/tf2_62_M_ss3.jpeg","item_order":[0,1,2,3],"correct":0,"choice":0,"accuracy":1,"rt":28329,"screen_resolution":[683,1708],"minimum_resolution":1,"item_set":3,"item":62,"test_form":2,"distractor":"md","trial_type":"mars","trial_index":20,"time_elapsed":683828,"internal_node_id":"0.0-13.0-1.0","experiment":"calibration","task_version":"1.0","jspsych_version":"6.3.1","browser_interactions":2},{"rt":null,"stimulus":"<div style=\"font-size:24px;\">Loading puzzle:<br>8 / 16</div>","response":null,"trial_type":"html-keyboard-response","trial_index":21,"time_elapsed":685029,"internal_node_id":"0.0-14.0-0.0","experiment":"calibration","task_version":"1.0","jspsych_version":"6.3.1"},{"puzzle":"../static/img/is3/tf1/tf1_16_M_ss3.jpeg","item_order":[3,1,0,2],"correct":0,"choice":1,"accuracy":0,"rt":28890,"screen_resolution":[683,1708],"minimum_resolution":1,"item_set":3,"item":16,"test_form":1,"distractor":"pd","trial_type":"mars","trial_index":22,"time_elapsed":713920,"internal_node_id":"0.0-14.0-1.0","experiment":"calibration","task_version":"1.0","jspsych_version":"6.3.1","browser_interactions":2},{"rt":null,"stimulus":"<div style=\"font-size:24px;\">Loading puzzle:<br>9 / 16</div>","response":null,"trial_type":"html-keyboard-response","trial_index":23,"time_elapsed":715121,"internal_node_id":"0.0-15.0-0.0","experiment":"calibration","task_version":"1.0","jspsych_version":"6.3.1"},{"puzzle":"../static/img/is3/tf2/tf2_53_M_ss3.jpeg","item_order":[1,2,0,3],"correct":0,"choice":0,"accuracy":1,"rt":25300,"screen_resolution":[683,1708],"minimum_resolution":1,"item_set":3,"item":53,"test_form":2,"distractor":"pd","trial_type":"mars","trial_index":24,"time_elapsed":740423,"internal_node_id":"0.0-15.0-1.0","experiment":"calibration","task_version":"1.0","jspsych_version":"6.3.1","browser_interactions":2},{"rt":null,"stimulus":"<div style=\"font-size:24px;\">Loading puzzle:<br>10 / 16</div>","response":null,"trial_type":"html-keyboard-response","trial_index":25,"time_elapsed":741625,"internal_node_id":"0.0-16.0-0.0","experiment":"calibration","task_version":"1.0","jspsych_version":"6.3.1"},{"puzzle":"../static/img/is3/tf1/tf1_72_M_ss2.jpeg","item_order":[3,0,1,2],"correct":0,"choice":2,"accuracy":0,"rt":19261,"screen_resolution":[683,1708],"minimum_resolution":1,"item_set":3,"item":72,"test_form":1,"distractor":"pd","trial_type":"mars","trial_index":26,"time_elapsed":760888,"internal_node_id":"0.0-16.0-1.0","experiment":"calibration","task_version":"1.0","jspsych_version":"6.3.1","browser_interactions":1},{"rt":null,"stimulus":"<div style=\"font-size:24px;\">Loading puzzle:<br>11 / 16</div>","response":null,"trial_type":"html-keyboard-response","trial_index":27,"time_elapsed":762088,"internal_node_id":"0.0-17.0-0.0","experiment":"calibration","task_version":"1.0","jspsych_version":"6.3.1"},{"puzzle":"../static/img/is3/tf2/tf2_26_M_ss3.jpeg","item_order":[1,3,0,2],"correct":0,"choice":1,"accuracy":0,"rt":27310,"screen_resolution":[683,1708],"minimum_resolution":1,"item_set":3,"item":26,"test_form":2,"distractor":"md","trial_type":"mars","trial_index":28,"time_elapsed":789399,"internal_node_id":"0.0-17.0-1.0","experiment":"calibration","task_version":"1.0","jspsych_version":"6.3.1","browser_interactions":2},{"rt":null,"stimulus":"<div style=\"font-size:24px;\">Loading puzzle:<br>12 / 16</div>","response":null,"trial_type":"html-keyboard-response","trial_index":29,"time_elapsed":790600,"internal_node_id":"0.0-18.0-0.0","experiment":"calibration","task_version":"1.0","jspsych_version":"6.3.1"},{"puzzle":"../static/img/is3/tf1/tf1_67_M_ss3.jpeg","item_order":[1,2,0,3],"correct":0,"choice":3,"accuracy":0,"rt":9613,"screen_resolution":[683,1708],"minimum_resolution":1,"item_set":3,"item":67,"test_form":1,"distractor":"pd","trial_type":"mars","trial_index":30,"time_elapsed":800214,"internal_node_id":"0.0-18.0-1.0","experiment":"calibration","task_version":"1.0","jspsych_version":"6.3.1","browser_interactions":2},{"rt":null,"stimulus":"<div style=\"font-size:24px;\">Loading puzzle:<br>13 / 16</div>","response":null,"trial_type":"html-keyboard-response","trial_index":31,"time_elapsed":801417,"internal_node_id":"0.0-19.0-0.0","experiment":"calibration","task_version":"1.0","jspsych_version":"6.3.1"},{"puzzle":"../static/img/is3/tf2/tf2_36_M_ss1.jpeg","item_order":[2,0,1,3],"correct":0,"choice":3,"accuracy":0,"rt":18322,"screen_resolution":[683,1708],"minimum_resolution":1,"item_set":3,"item":36,"test_form":2,"distractor":"md","trial_type":"mars","trial_index":32,"time_elapsed":819741,"internal_node_id":"0.0-19.0-1.0","experiment":"calibration","task_version":"1.0","jspsych_version":"6.3.1","browser_interactions":2},{"rt":null,"stimulus":"<div style=\"font-size:24px;\">Loading puzzle:<br>14 / 16</div>","response":null,"trial_type":"html-keyboard-response","trial_index":33,"time_elapsed":820942,"internal_node_id":"0.0-20.0-0.0","experiment":"calibration","task_version":"1.0","jspsych_version":"6.3.1"},{"puzzle":"../static/img/is3/tf1/tf1_54_M_ss2.jpeg","item_order":[1,0,3,2],"correct":0,"choice":2,"accuracy":0,"rt":13514,"screen_resolution":[683,1708],"minimum_resolution":1,"item_set":3,"item":54,"test_form":1,"distractor":"pd","trial_type":"mars","trial_index":34,"time_elapsed":834460,"internal_node_id":"0.0-20.0-1.0","experiment":"calibration","task_version":"1.0","jspsych_version":"6.3.1","browser_interactions":2},{"rt":null,"stimulus":"<div style=\"font-size:24px;\">Loading puzzle:<br>15 / 16</div>","response":null,"trial_type":"html-keyboard-response","trial_index":35,"time_elapsed":835663,"internal_node_id":"0.0-21.0-0.0","experiment":"calibration","task_version":"1.0","jspsych_version":"6.3.1"},{"puzzle":"../static/img/is3/tf2/tf2_24_M_ss1.jpeg","item_order":[3,2,0,1],"correct":0,"choice":1,"accuracy":0,"rt":8172,"screen_resolution":[683,1708],"minimum_resolution":1,"item_set":3,"item":24,"test_form":2,"distractor":"md","trial_type":"mars","trial_index":36,"time_elapsed":843837,"internal_node_id":"0.0-21.0-1.0","experiment":"calibration","task_version":"1.0","jspsych_version":"6.3.1","browser_interactions":2},{"rt":null,"stimulus":"<div style=\"font-size:24px;\">Loading puzzle:<br>16 / 16</div>","response":null,"trial_type":"html-keyboard-response","trial_index":37,"time_elapsed":845039,"internal_node_id":"0.0-22.0-0.0","experiment":"calibration","task_version":"1.0","jspsych_version":"6.3.1"},{"puzzle":"../static/img/is3/tf1/tf1_66_M_ss2.jpeg","item_order":[3,1,2,0],"correct":0,"choice":0,"accuracy":1,"rt":10294,"screen_resolution":[683,1708],"minimum_resolution":1,"item_set":3,"item":66,"test_form":1,"distractor":"md","trial_type":"mars","trial_index":38,"time_elapsed":855333,"internal_node_id":"0.0-22.0-1.0","experiment":"calibration","task_version":"1.0","jspsych_version":"6.3.1","browser_interactions":1},{"value":[0,0,0],"trial_type":"call-function","trial_index":39,"time_elapsed":855334,"internal_node_id":"0.0-23.0","experiment":"calibration","task_version":"1.0","jspsych_version":"6.3.1"},{"view_history":[{"page_index":0,"viewing_time":14457}],"rt":14457,"trial_type":"instructions","trial_index":40,"time_elapsed":869792,"internal_node_id":"0.0-24.0","experiment":"calibration","task_version":"1.0","jspsych_version":"6.3.1"},{"rt":72426,"responses":{"age":"39","gender-categorical":"Male","gender-free-response":"","ethnicity":"Not Hispanic or Latino","race":["White"],"education":"Master degree or higher","free-response":""},"trial_type":"survey-demo","trial_index":41,"time_elapsed":942221,"internal_node_id":"0.0-25.0","experiment":"calibration","task_version":"1.0","jspsych_version":"6.3.1","interactions":"[{\"event\":\"focus\",\"trial\":0,\"time\":0},{\"event\":\"blur\",\"trial\":0,\"time\":2231},{\"event\":\"focus\",\"trial\":1,\"time\":99966},{\"event\":\"blur\",\"trial\":1,\"time\":113803},{\"event\":\"focus\",\"trial\":1,\"time\":385665},{\"event\":\"fullscreenenter\",\"trial\":1,\"time\":387315},{\"event\":\"fullscreenexit\",\"trial\":2,\"time\":391165},{\"event\":\"blur\",\"trial\":2,\"time\":393571},{\"event\":\"focus\",\"trial\":2,\"time\":416542},{\"event\":\"blur\",\"trial\":2,\"time\":435368},{\"event\":\"focus\",\"trial\":2,\"time\":444822},{\"event\":\"blur\",\"trial\":4,\"time\":457254},{\"event\":\"focus\",\"trial\":4,\"time\":472694},{\"event\":\"blur\",\"trial\":4,\"time\":480033},{\"event\":\"focus\",\"trial\":5,\"time\":487998},{\"event\":\"blur\",\"trial\":5,\"time\":491474},{\"event\":\"focus\",\"trial\":6,\"time\":497797},{\"event\":\"blur\",\"trial\":6,\"time\":501517},{\"event\":\"focus\",\"trial\":6,\"time\":518985},{\"event\":\"blur\",\"trial\":7,\"time\":523363},{\"event\":\"focus\",\"trial\":8,\"time\":527729},{\"event\":\"blur\",\"trial\":10,\"time\":539530},{\"event\":\"focus\",\"trial\":10,\"time\":558332},{\"event\":\"blur\",\"trial\":12,\"time\":567994},{\"event\":\"focus\",\"trial\":12,\"time\":592152},{\"event\":\"blur\",\"trial\":13,\"time\":595263},{\"event\":\"focus\",\"trial\":14,\"time\":608914},{\"event\":\"blur\",\"trial\":16,\"time\":614155},{\"event\":\"focus\",\"trial\":16,\"time\":626352},{\"event\":\"blur\",\"trial\":18,\"time\":634277},{\"event\":\"focus\",\"trial\":18,\"time\":644720},{\"event\":\"blur\",\"trial\":20,\"time\":655723},{\"event\":\"focus\",\"trial\":20,\"time\":676024},{\"event\":\"blur\",\"trial\":22,\"time\":685060},{\"event\":\"focus\",\"trial\":22,\"time\":706523},{\"event\":\"blur\",\"trial\":24,\"time\":715192},{\"event\":\"focus\",\"trial\":24,\"time\":730268},{\"event\":\"blur\",\"trial\":25,\"time\":741491},{\"event\":\"focus\",\"trial\":26,\"time\":753327},{\"event\":\"blur\",\"trial\":28,\"time\":762223},{\"event\":\"focus\",\"trial\":28,\"time\":779065},{\"event\":\"blur\",\"trial\":30,\"time\":790934},{\"event\":\"focus\",\"trial\":30,\"time\":798266},{\"event\":\"blur\",\"trial\":32,\"time\":801435},{\"event\":\"focus\",\"trial\":32,\"time\":811921},{\"event\":\"blur\",\"trial\":34,\"time\":822100},{\"event\":\"focus\",\"trial\":34,\"time\":829475},{\"event\":\"blur\",\"trial\":36,\"time\":835839},{\"event\":\"focus\",\"trial\":36,\"time\":841792},{\"event\":\"blur\",\"trial\":37,\"time\":844873},{\"event\":\"focus\",\"trial\":38,\"time\":853937},{\"event\":\"blur\",\"trial\":40,\"time\":857200},{\"event\":\"focus\",\"trial\":40,\"time\":864983},{\"event\":\"blur\",\"trial\":41,\"time\":870689},{\"event\":\"focus\",\"trial\":41,\"time\":875569}]"}]