[{"success":true,"timeout":false,"failed_images":[],"failed_audio":[],"failed_video":[],"trial_type":"preload","trial_index":0,"time_elapsed":6320,"internal_node_id":"0.0-0.0","experiment":"calibration","task_version":"1.0","jspsych_version":"6.3.1"},{"success":true,"trial_type":"fullscreen","trial_index":1,"time_elapsed":13167,"internal_node_id":"0.0-1.0","experiment":"calibration","task_version":"1.0","jspsych_version":"6.3.1"},{"view_history":[{"page_index":0,"viewing_time":7101.899999976158},{"page_index":1,"viewing_time":7688},{"page_index":2,"viewing_time":1876.1000000238419}],"rt":16666.600000023842,"trial_type":"instructions","trial_index":2,"time_elapsed":29836,"internal_node_id":"0.0-2.0","experiment":"calibration","task_version":"1.0","jspsych_version":"6.3.1"},{"puzzle":"../static/img/practice/pt1_M1.png","item_order":[0,1,2,3],"correct":0,"choice":3,"accuracy":0,"rt":11319.299999952316,"screen_resolution":[1440,2560],"minimum_resolution":1,"item_set":"practice","trial_type":"mars","trial_index":3,"time_elapsed":43157,"internal_node_id":"0.0-3.0-0.0","experiment":"calibration","task_version":"1.0","jspsych_version":"6.3.1"},{"puzzle":"../static/img/practice/pt1_M1.png","item_order":[3,1,2,0],"correct":0,"choice":0,"accuracy":1,"rt":8307,"screen_resolution":[1440,2560],"minimum_resolution":1,"item_set":"practice","trial_type":"mars","trial_index":4,"time_elapsed":53466,"internal_node_id":"0.0-3.1-0.1","experiment":"calibration","task_version":"1.0","jspsych_version":"6.3.1"},{"puzzle":"../static/img/practice/pt2_M1.png","item_order":[2,1,3,0],"correct":0,"choice":0,"accuracy":1,"rt":3805.2000000476837,"screen_resolution":[1440,2560],"minimum_resolution":1,"item_set":"practice","trial_type":"mars","trial_index":5,"time_elapsed":59272,"internal_node_id":"0.0-4.0-0.0","experiment":"calibration","task_version":"1.0","jspsych_version":"6.3.1"},{"puzzle":"../static/img/practice/pt3_M1.png","item_order":[2,0,1,3],"correct":0,"choice":0,"accuracy":1,"rt":2830.0999999046326,"screen_resolution":[1440,2560],"minimum_resolution":1,"item_set":"practice","trial_type":"mars","trial_index":6,"time_elapsed":64105,"internal_node_id":"0.0-5.0-0.0","experiment":"calibration","task_version":"1.0","jspsych_version":"6.3.1"},{"view_history":[{"page_index":0,"viewing_time":1678.8999999761581},{"page_index":1,"viewing_time":18111}],"rt":19790.200000047684,"trial_type":"instructions","trial_index":7,"time_elapsed":83895,"internal_node_id":"0.0-6.0","experiment":"calibration","task_version":"1.0","jspsych_version":"6.3.1"},{"rt":null,"stimulus":"<div style=\"font-size:24px;\">Loading puzzle:<br>1 / 16</div>","response":null,"trial_type":"html-keyboard-response","trial_index":8,"time_elapsed":85098,"internal_node_id":"0.0-7.0-0.0","experiment":"calibration","task_version":"1.0","jspsych_version":"6.3.1"},{"puzzle":"../static/img/is3/tf2/tf2_6_M_ss1.jpeg","item_order":[1,0,3,2],"correct":0,"choice":0,"accuracy":1,"rt":28850.199999928474,"screen_resolution":[1440,2560],"minimum_resolution":1,"item_set":3,"item":6,"test_form":2,"distractor":"md","trial_type":"mars","trial_index":9,"time_elapsed":113950,"internal_node_id":"0.0-7.0-1.0","experiment":"calibration","task_version":"1.0","jspsych_version":"6.3.1","browser_interactions":0},{"rt":null,"stimulus":"<div style=\"font-size:24px;\">Loading puzzle:<br>2 / 16</div>","response":null,"trial_type":"html-keyboard-response","trial_index":10,"time_elapsed":115152,"internal_node_id":"0.0-8.0-0.0","experiment":"calibration","task_version":"1.0","jspsych_version":"6.3.1"},{"puzzle":"../static/img/is3/tf1/tf1_25_M_ss3.jpeg","item_order":[0,2,1,3],"correct":0,"choice":0,"accuracy":1,"rt":11994.199999928474,"screen_resolution":[1440,2560],"minimum_resolution":1,"item_set":3,"item":25,"test_form":1,"distractor":"pd","trial_type":"mars","trial_index":11,"time_elapsed":127149,"internal_node_id":"0.0-8.0-1.0","experiment":"calibration","task_version":"1.0","jspsych_version":"6.3.1","browser_interactions":0},{"rt":null,"stimulus":"<div style=\"font-size:24px;\">Loading puzzle:<br>3 / 16</div>","response":null,"trial_type":"html-keyboard-response","trial_index":12,"time_elapsed":128350,"internal_node_id":"0.0-9.0-0.0","experiment":"calibration","task_version":"1.0","jspsych_version":"6.3.1"},{"puzzle":"../static/img/is3/tf1/tf1_71_M_ss1.jpeg","item_order":[3,0,2,1],"correct":0,"choice":0,"accuracy":1,"rt":9247.800000071526,"screen_resolution":[1440,2560],"minimum_resolution":1,"item_set":3,"item":71,"test_form":1,"distractor":"pd","trial_type":"mars","trial_index":13,"time_elapsed":137601,"internal_node_id":"0.0-9.0-1.0","experiment":"calibration","task_version":"1.0","jspsych_version":"6.3.1","browser_interactions":0},{"rt":null,"stimulus":"<div style=\"font-size:24px;\">Loading puzzle:<br>4 / 16</div>","response":null,"trial_type":"html-keyboard-response","trial_index":14,"time_elapsed":138802,"internal_node_id":"0.0-10.0-0.0","experiment":"calibration","task_version":"1.0","jspsych_version":"6.3.1"},{"puzzle":"../static/img/is3/tf2/tf2_61_M_ss2.jpeg","item_order":[2,1,0,3],"correct":0,"choice":0,"accuracy":1,"rt":16092.700000047684,"screen_resolution":[1440,2560],"minimum_resolution":1,"item_set":3,"item":61,"test_form":2,"distractor":"md","trial_type":"mars","trial_index":15,"time_elapsed":154898,"internal_node_id":"0.0-10.0-1.0","experiment":"calibration","task_version":"1.0","jspsych_version":"6.3.1","browser_interactions":0},{"rt":null,"stimulus":"<div style=\"font-size:24px;\">Loading puzzle:<br>5 / 16</div>","response":null,"trial_type":"html-keyboard-response","trial_index":16,"time_elapsed":156099,"internal_node_id":"0.0-11.0-0.0","experiment":"calibration","task_version":"1.0","jspsych_version":"6.3.1"},{"puzzle":"../static/img/is3/tf2/tf2_18_M_ss1.jpeg","item_order":[1,2,3,0],"correct":0,"choice":0,"accuracy":1,"rt":14498.199999928474,"screen_resolution":[1440,2560],"minimum_resolution":1,"item_set":3,"item":18,"test_form":2,"distractor":"md","trial_type":"mars","trial_index":17,"time_elapsed":170600,"internal_node_id":"0.0-11.0-1.0","experiment":"calibration","task_version":"1.0","jspsych_version":"6.3.1","browser_interactions":0},{"rt":null,"stimulus":"<div style=\"font-size:24px;\">Loading puzzle:<br>6 / 16</div>","response":null,"trial_type":"html-keyboard-response","trial_index":18,"time_elapsed":171801,"internal_node_id":"0.0-12.0-0.0","experiment":"calibration","task_version":"1.0","jspsych_version":"6.3.1"},{"puzzle":"../static/img/is3/tf1/tf1_37_M_ss3.jpeg","item_order":[3,0,2,1],"correct":0,"choice":1,"accuracy":0,"rt":25835.100000023842,"screen_resolution":[1440,2560],"minimum_resolution":1,"item_set":3,"item":37,"test_form":1,"distractor":"pd","trial_type":"mars","trial_index":19,"time_elapsed":197639,"internal_node_id":"0.0-12.0-1.0","experiment":"calibration","task_version":"1.0","jspsych_version":"6.3.1","browser_interactions":0},{"rt":null,"stimulus":"<div style=\"font-size:24px;\">Loading puzzle:<br>7 / 16</div>","response":null,"trial_type":"html-keyboard-response","trial_index":20,"time_elapsed":198840,"internal_node_id":"0.0-13.0-0.0","experiment":"calibration","task_version":"1.0","jspsych_version":"6.3.1"},{"puzzle":"../static/img/is3/tf2/tf2_62_M_ss3.jpeg","item_order":[0,3,1,2],"correct":0,"choice":0,"accuracy":1,"rt":14076,"screen_resolution":[1440,2560],"minimum_resolution":1,"item_set":3,"item":62,"test_form":2,"distractor":"md","trial_type":"mars","trial_index":21,"time_elapsed":212918,"internal_node_id":"0.0-13.0-1.0","experiment":"calibration","task_version":"1.0","jspsych_version":"6.3.1","browser_interactions":0},{"rt":null,"stimulus":"<div style=\"font-size:24px;\">Loading puzzle:<br>8 / 16</div>","response":null,"trial_type":"html-keyboard-response","trial_index":22,"time_elapsed":214120,"internal_node_id":"0.0-14.0-0.0","experiment":"calibration","task_version":"1.0","jspsych_version":"6.3.1"},{"puzzle":"../static/img/is3/tf1/tf1_16_M_ss3.jpeg","item_order":[1,0,3,2],"correct":0,"choice":0,"accuracy":1,"rt":17480.600000023842,"screen_resolution":[1440,2560],"minimum_resolution":1,"item_set":3,"item":16,"test_form":1,"distractor":"pd","trial_type":"mars","trial_index":23,"time_elapsed":231603,"internal_node_id":"0.0-14.0-1.0","experiment":"calibration","task_version":"1.0","jspsych_version":"6.3.1","browser_interactions":0},{"rt":null,"stimulus":"<div style=\"font-size:24px;\">Loading puzzle:<br>9 / 16</div>","response":null,"trial_type":"html-keyboard-response","trial_index":24,"time_elapsed":232804,"internal_node_id":"0.0-15.0-0.0","experiment":"calibration","task_version":"1.0","jspsych_version":"6.3.1"},{"puzzle":"../static/img/is3/tf1/tf1_72_M_ss2.jpeg","item_order":[0,2,1,3],"correct":0,"choice":2,"accuracy":0,"rt":15453.299999952316,"screen_resolution":[1440,2560],"minimum_resolution":1,"item_set":3,"item":72,"test_form":1,"distractor":"pd","trial_type":"mars","trial_index":25,"time_elapsed":248260,"internal_node_id":"0.0-15.0-1.0","experiment":"calibration","task_version":"1.0","jspsych_version":"6.3.1","browser_interactions":0},{"rt":null,"stimulus":"<div style=\"font-size:24px;\">Loading puzzle:<br>10 / 16</div>","response":null,"trial_type":"html-keyboard-response","trial_index":26,"time_elapsed":249461,"internal_node_id":"0.0-16.0-0.0","experiment":"calibration","task_version":"1.0","jspsych_version":"6.3.1"},{"puzzle":"../static/img/is3/tf2/tf2_53_M_ss3.jpeg","item_order":[3,0,2,1],"correct":0,"choice":3,"accuracy":0,"rt":18498.899999976158,"screen_resolution":[1440,2560],"minimum_resolution":1,"item_set":3,"item":53,"test_form":2,"distractor":"md","trial_type":"mars","trial_index":27,"time_elapsed":267963,"internal_node_id":"0.0-16.0-1.0","experiment":"calibration","task_version":"1.0","jspsych_version":"6.3.1","browser_interactions":0},{"rt":null,"stimulus":"<div style=\"font-size:24px;\">Loading puzzle:<br>11 / 16</div>","response":null,"trial_type":"html-keyboard-response","trial_index":28,"time_elapsed":269164,"internal_node_id":"0.0-17.0-0.0","experiment":"calibration","task_version":"1.0","jspsych_version":"6.3.1"},{"puzzle":"../static/img/is3/tf2/tf2_80_M_ss3.jpeg","item_order":[2,0,3,1],"correct":0,"choice":2,"accuracy":0,"rt":23942.5,"screen_resolution":[1440,2560],"minimum_resolution":1,"item_set":3,"item":80,"test_form":2,"distractor":"md","trial_type":"mars","trial_index":29,"time_elapsed":293109,"internal_node_id":"0.0-17.0-1.0","experiment":"calibration","task_version":"1.0","jspsych_version":"6.3.1","browser_interactions":0},{"rt":null,"stimulus":"<div style=\"font-size:24px;\">Loading puzzle:<br>12 / 16</div>","response":null,"trial_type":"html-keyboard-response","trial_index":30,"time_elapsed":294310,"internal_node_id":"0.0-18.0-0.0","experiment":"calibration","task_version":"1.0","jspsych_version":"6.3.1"},{"puzzle":"../static/img/is3/tf1/tf1_59_M_ss1.jpeg","item_order":[1,0,2,3],"correct":0,"choice":3,"accuracy":0,"rt":26838.900000095367,"screen_resolution":[1440,2560],"minimum_resolution":1,"item_set":3,"item":59,"test_form":1,"distractor":"pd","trial_type":"mars","trial_index":31,"time_elapsed":321151,"internal_node_id":"0.0-18.0-1.0","experiment":"calibration","task_version":"1.0","jspsych_version":"6.3.1","browser_interactions":0},{"rt":null,"stimulus":"<div style=\"font-size:24px;\">Loading puzzle:<br>13 / 16</div>","response":null,"trial_type":"html-keyboard-response","trial_index":32,"time_elapsed":322353,"internal_node_id":"0.0-19.0-0.0","experiment":"calibration","task_version":"1.0","jspsych_version":"6.3.1"},{"puzzle":"../static/img/is3/tf1/tf1_54_M_ss2.jpeg","item_order":[2,0,3,1],"correct":0,"choice":0,"accuracy":1,"rt":27177.800000071526,"screen_resolution":[1440,2560],"minimum_resolution":1,"item_set":3,"item":54,"test_form":1,"distractor":"pd","trial_type":"mars","trial_index":33,"time_elapsed":349533,"internal_node_id":"0.0-19.0-1.0","experiment":"calibration","task_version":"1.0","jspsych_version":"6.3.1","browser_interactions":0},{"rt":null,"stimulus":"<div style=\"font-size:24px;\">Loading puzzle:<br>14 / 16</div>","response":null,"trial_type":"html-keyboard-response","trial_index":34,"time_elapsed":350734,"internal_node_id":"0.0-20.0-0.0","experiment":"calibration","task_version":"1.0","jspsych_version":"6.3.1"},{"puzzle":"../static/img/is3/tf2/tf2_36_M_ss1.jpeg","item_order":[0,1,2,3],"correct":0,"choice":0,"accuracy":1,"rt":28468.100000023842,"screen_resolution":[1440,2560],"minimum_resolution":1,"item_set":3,"item":36,"test_form":2,"distractor":"md","trial_type":"mars","trial_index":35,"time_elapsed":379205,"internal_node_id":"0.0-20.0-1.0","experiment":"calibration","task_version":"1.0","jspsych_version":"6.3.1","browser_interactions":0},{"rt":null,"stimulus":"<div style=\"font-size:24px;\">Loading puzzle:<br>15 / 16</div>","response":null,"trial_type":"html-keyboard-response","trial_index":36,"time_elapsed":380407,"internal_node_id":"0.0-21.0-0.0","experiment":"calibration","task_version":"1.0","jspsych_version":"6.3.1"},{"puzzle":"../static/img/is3/tf2/tf2_21_M_ss1.jpeg","item_order":[0,1,3,2],"correct":0,"choice":2,"accuracy":0,"rt":28699.899999976158,"screen_resolution":[1440,2560],"minimum_resolution":1,"item_set":3,"item":21,"test_form":2,"distractor":"md","trial_type":"mars","trial_index":37,"time_elapsed":409109,"internal_node_id":"0.0-21.0-1.0","experiment":"calibration","task_version":"1.0","jspsych_version":"6.3.1","browser_interactions":0},{"rt":null,"stimulus":"<div style=\"font-size:24px;\">Loading puzzle:<br>16 / 16</div>","response":null,"trial_type":"html-keyboard-response","trial_index":38,"time_elapsed":410311,"internal_node_id":"0.0-22.0-0.0","experiment":"calibration","task_version":"1.0","jspsych_version":"6.3.1"},{"puzzle":"../static/img/is3/tf1/tf1_78_M_ss2.jpeg","item_order":[2,0,3,1],"correct":0,"choice":2,"accuracy":0,"rt":27098.399999976158,"screen_resolution":[1440,2560],"minimum_resolution":1,"item_set":3,"item":78,"test_form":1,"distractor":"pd","trial_type":"mars","trial_index":39,"time_elapsed":437411,"internal_node_id":"0.0-22.0-1.0","experiment":"calibration","task_version":"1.0","jspsych_version":"6.3.1","browser_interactions":0},{"value":[0,0,0],"trial_type":"call-function","trial_index":40,"time_elapsed":437412,"internal_node_id":"0.0-23.0","experiment":"calibration","task_version":"1.0","jspsych_version":"6.3.1"},{"view_history":[{"page_index":0,"viewing_time":2166.7000000476837}],"rt":2166.899999976158,"trial_type":"instructions","trial_index":41,"time_elapsed":439579,"internal_node_id":"0.0-24.0","experiment":"calibration","task_version":"1.0","jspsych_version":"6.3.1"},{"rt":12574.300000071526,"responses":{"age":"32","gender-categorical":"Female","gender-free-response":"","ethnicity":"Not Hispanic or Latino","race":["White"],"education":"High school","free-response":""},"trial_type":"survey-demo","trial_index":42,"time_elapsed":452155,"internal_node_id":"0.0-25.0","experiment":"calibration","task_version":"1.0","jspsych_version":"6.3.1","interactions":"[{\"event\":\"fullscreenenter\",\"trial\":1,\"time\":12161}]"}]