[{"success":true,"timeout":false,"failed_images":[],"failed_audio":[],"failed_video":[],"trial_type":"preload","trial_index":0,"time_elapsed":1120,"internal_node_id":"0.0-0.0","experiment":"calibration","task_version":"1.0","jspsych_version":"6.3.1"},{"success":true,"trial_type":"fullscreen","trial_index":1,"time_elapsed":10411,"internal_node_id":"0.0-1.0","experiment":"calibration","task_version":"1.0","jspsych_version":"6.3.1"},{"view_history":[{"page_index":0,"viewing_time":8573},{"page_index":1,"viewing_time":8165},{"page_index":2,"viewing_time":1935}],"rt":18674,"trial_type":"instructions","trial_index":2,"time_elapsed":29095,"internal_node_id":"0.0-2.0","experiment":"calibration","task_version":"1.0","jspsych_version":"6.3.1"},{"puzzle":"../static/img/practice/pt1_M1.png","item_order":[0,1,3,2],"correct":0,"choice":0,"accuracy":1,"rt":9541,"screen_resolution":[900,1440],"minimum_resolution":1,"item_set":"practice","trial_type":"mars","trial_index":3,"time_elapsed":40648,"internal_node_id":"0.0-3.0-0.0","experiment":"calibration","task_version":"1.0","jspsych_version":"6.3.1"},{"puzzle":"../static/img/practice/pt2_M1.png","item_order":[0,1,3,2],"correct":0,"choice":0,"accuracy":1,"rt":3552,"screen_resolution":[900,1440],"minimum_resolution":1,"item_set":"practice","trial_type":"mars","trial_index":4,"time_elapsed":46210,"internal_node_id":"0.0-4.0-0.0","experiment":"calibration","task_version":"1.0","jspsych_version":"6.3.1"},{"puzzle":"../static/img/practice/pt3_M1.png","item_order":[1,3,2,0],"correct":0,"choice":0,"accuracy":1,"rt":2128,"screen_resolution":[900,1440],"minimum_resolution":1,"item_set":"practice","trial_type":"mars","trial_index":5,"time_elapsed":50348,"internal_node_id":"0.0-5.0-0.0","experiment":"calibration","task_version":"1.0","jspsych_version":"6.3.1"},{"view_history":[{"page_index":0,"viewing_time":2181},{"page_index":1,"viewing_time":10282}],"rt":12463,"trial_type":"instructions","trial_index":6,"time_elapsed":62815,"internal_node_id":"0.0-6.0","experiment":"calibration","task_version":"1.0","jspsych_version":"6.3.1"},{"rt":null,"stimulus":"<div style=\"font-size:24px;\">Loading puzzle:<br>1 / 16</div>","response":null,"trial_type":"html-keyboard-response","trial_index":7,"time_elapsed":64022,"internal_node_id":"0.0-7.0-0.0","experiment":"calibration","task_version":"1.0","jspsych_version":"6.3.1"},{"puzzle":"../static/img/is3/tf1/tf1_25_M_ss3.jpeg","item_order":[1,2,0,3],"correct":0,"choice":0,"accuracy":1,"rt":9652,"screen_resolution":[900,1440],"minimum_resolution":1,"item_set":3,"item":25,"test_form":1,"distractor":"pd","trial_type":"mars","trial_index":8,"time_elapsed":73679,"internal_node_id":"0.0-7.0-1.0","experiment":"calibration","task_version":"1.0","jspsych_version":"6.3.1","browser_interactions":0},{"rt":null,"stimulus":"<div style=\"font-size:24px;\">Loading puzzle:<br>2 / 16</div>","response":null,"trial_type":"html-keyboard-response","trial_index":9,"time_elapsed":74883,"internal_node_id":"0.0-8.0-0.0","experiment":"calibration","task_version":"1.0","jspsych_version":"6.3.1"},{"puzzle":"../static/img/is3/tf2/tf2_6_M_ss1.jpeg","item_order":[2,3,0,1],"correct":0,"choice":0,"accuracy":1,"rt":11912,"screen_resolution":[900,1440],"minimum_resolution":1,"item_set":3,"item":6,"test_form":2,"distractor":"pd","trial_type":"mars","trial_index":10,"time_elapsed":86800,"internal_node_id":"0.0-8.0-1.0","experiment":"calibration","task_version":"1.0","jspsych_version":"6.3.1","browser_interactions":0},{"rt":null,"stimulus":"<div style=\"font-size:24px;\">Loading puzzle:<br>3 / 16</div>","response":null,"trial_type":"html-keyboard-response","trial_index":11,"time_elapsed":88007,"internal_node_id":"0.0-9.0-0.0","experiment":"calibration","task_version":"1.0","jspsych_version":"6.3.1"},{"puzzle":"../static/img/is3/tf2/tf2_50_M_ss3.jpeg","item_order":[2,1,3,0],"correct":0,"choice":2,"accuracy":0,"rt":14431,"screen_resolution":[900,1440],"minimum_resolution":1,"item_set":3,"item":50,"test_form":2,"distractor":"md","trial_type":"mars","trial_index":12,"time_elapsed":102440,"internal_node_id":"0.0-9.0-1.0","experiment":"calibration","task_version":"1.0","jspsych_version":"6.3.1","browser_interactions":0},{"rt":null,"stimulus":"<div style=\"font-size:24px;\">Loading puzzle:<br>4 / 16</div>","response":null,"trial_type":"html-keyboard-response","trial_index":13,"time_elapsed":103648,"internal_node_id":"0.0-10.0-0.0","experiment":"calibration","task_version":"1.0","jspsych_version":"6.3.1"},{"puzzle":"../static/img/is3/tf1/tf1_65_M_ss1.jpeg","item_order":[0,3,1,2],"correct":0,"choice":0,"accuracy":1,"rt":8145,"screen_resolution":[900,1440],"minimum_resolution":1,"item_set":3,"item":65,"test_form":1,"distractor":"pd","trial_type":"mars","trial_index":14,"time_elapsed":111798,"internal_node_id":"0.0-10.0-1.0","experiment":"calibration","task_version":"1.0","jspsych_version":"6.3.1","browser_interactions":0},{"rt":null,"stimulus":"<div style=\"font-size:24px;\">Loading puzzle:<br>5 / 16</div>","response":null,"trial_type":"html-keyboard-response","trial_index":15,"time_elapsed":113003,"internal_node_id":"0.0-11.0-0.0","experiment":"calibration","task_version":"1.0","jspsych_version":"6.3.1"},{"puzzle":"../static/img/is3/tf2/tf2_15_M_ss1.jpeg","item_order":[3,0,2,1],"correct":0,"choice":0,"accuracy":1,"rt":26140,"screen_resolution":[900,1440],"minimum_resolution":1,"item_set":3,"item":15,"test_form":2,"distractor":"md","trial_type":"mars","trial_index":16,"time_elapsed":139146,"internal_node_id":"0.0-11.0-1.0","experiment":"calibration","task_version":"1.0","jspsych_version":"6.3.1","browser_interactions":0},{"rt":null,"stimulus":"<div style=\"font-size:24px;\">Loading puzzle:<br>6 / 16</div>","response":null,"trial_type":"html-keyboard-response","trial_index":17,"time_elapsed":140352,"internal_node_id":"0.0-12.0-0.0","experiment":"calibration","task_version":"1.0","jspsych_version":"6.3.1"},{"puzzle":"../static/img/is3/tf1/tf1_27_M_ss2.jpeg","item_order":[2,1,0,3],"correct":0,"choice":2,"accuracy":0,"rt":7155,"screen_resolution":[900,1440],"minimum_resolution":1,"item_set":3,"item":27,"test_form":1,"distractor":"pd","trial_type":"mars","trial_index":18,"time_elapsed":147510,"internal_node_id":"0.0-12.0-1.0","experiment":"calibration","task_version":"1.0","jspsych_version":"6.3.1","browser_interactions":0},{"rt":null,"stimulus":"<div style=\"font-size:24px;\">Loading puzzle:<br>7 / 16</div>","response":null,"trial_type":"html-keyboard-response","trial_index":19,"time_elapsed":148715,"internal_node_id":"0.0-13.0-0.0","experiment":"calibration","task_version":"1.0","jspsych_version":"6.3.1"},{"puzzle":"../static/img/is3/tf2/tf2_69_M_ss1.jpeg","item_order":[2,3,1,0],"correct":0,"choice":2,"accuracy":0,"rt":6394,"screen_resolution":[900,1440],"minimum_resolution":1,"item_set":3,"item":69,"test_form":2,"distractor":"md","trial_type":"mars","trial_index":20,"time_elapsed":155113,"internal_node_id":"0.0-13.0-1.0","experiment":"calibration","task_version":"1.0","jspsych_version":"6.3.1","browser_interactions":0},{"rt":null,"stimulus":"<div style=\"font-size:24px;\">Loading puzzle:<br>8 / 16</div>","response":null,"trial_type":"html-keyboard-response","trial_index":21,"time_elapsed":156319,"internal_node_id":"0.0-14.0-0.0","experiment":"calibration","task_version":"1.0","jspsych_version":"6.3.1"},{"puzzle":"../static/img/is3/tf1/tf1_16_M_ss3.jpeg","item_order":[1,0,2,3],"correct":0,"choice":0,"accuracy":1,"rt":7426,"screen_resolution":[900,1440],"minimum_resolution":1,"item_set":3,"item":16,"test_form":1,"distractor":"md","trial_type":"mars","trial_index":22,"time_elapsed":163748,"internal_node_id":"0.0-14.0-1.0","experiment":"calibration","task_version":"1.0","jspsych_version":"6.3.1","browser_interactions":0},{"rt":null,"stimulus":"<div style=\"font-size:24px;\">Loading puzzle:<br>9 / 16</div>","response":null,"trial_type":"html-keyboard-response","trial_index":23,"time_elapsed":164955,"internal_node_id":"0.0-15.0-0.0","experiment":"calibration","task_version":"1.0","jspsych_version":"6.3.1"},{"puzzle":"../static/img/is3/tf2/tf2_53_M_ss3.jpeg","item_order":[1,3,2,0],"correct":0,"choice":0,"accuracy":1,"rt":10833,"screen_resolution":[900,1440],"minimum_resolution":1,"item_set":3,"item":53,"test_form":2,"distractor":"pd","trial_type":"mars","trial_index":24,"time_elapsed":175791,"internal_node_id":"0.0-15.0-1.0","experiment":"calibration","task_version":"1.0","jspsych_version":"6.3.1","browser_interactions":0},{"rt":null,"stimulus":"<div style=\"font-size:24px;\">Loading puzzle:<br>10 / 16</div>","response":null,"trial_type":"html-keyboard-response","trial_index":25,"time_elapsed":176998,"internal_node_id":"0.0-16.0-0.0","experiment":"calibration","task_version":"1.0","jspsych_version":"6.3.1"},{"puzzle":"../static/img/is3/tf1/tf1_73_M_ss3.jpeg","item_order":[3,2,0,1],"correct":0,"choice":1,"accuracy":0,"rt":26720,"screen_resolution":[900,1440],"minimum_resolution":1,"item_set":3,"item":73,"test_form":1,"distractor":"md","trial_type":"mars","trial_index":26,"time_elapsed":203720,"internal_node_id":"0.0-16.0-1.0","experiment":"calibration","task_version":"1.0","jspsych_version":"6.3.1","browser_interactions":0},{"rt":null,"stimulus":"<div style=\"font-size:24px;\">Loading puzzle:<br>11 / 16</div>","response":null,"trial_type":"html-keyboard-response","trial_index":27,"time_elapsed":204927,"internal_node_id":"0.0-17.0-0.0","experiment":"calibration","task_version":"1.0","jspsych_version":"6.3.1"},{"puzzle":"../static/img/is3/tf1/tf1_67_M_ss3.jpeg","item_order":[2,3,0,1],"correct":0,"choice":2,"accuracy":0,"rt":8015,"screen_resolution":[900,1440],"minimum_resolution":1,"item_set":3,"item":67,"test_form":1,"distractor":"pd","trial_type":"mars","trial_index":28,"time_elapsed":212946,"internal_node_id":"0.0-17.0-1.0","experiment":"calibration","task_version":"1.0","jspsych_version":"6.3.1","browser_interactions":0},{"rt":null,"stimulus":"<div style=\"font-size:24px;\">Loading puzzle:<br>12 / 16</div>","response":null,"trial_type":"html-keyboard-response","trial_index":29,"time_elapsed":214153,"internal_node_id":"0.0-18.0-0.0","experiment":"calibration","task_version":"1.0","jspsych_version":"6.3.1"},{"puzzle":"../static/img/is3/tf2/tf2_80_M_ss3.jpeg","item_order":[1,2,0,3],"correct":0,"choice":2,"accuracy":0,"rt":16637,"screen_resolution":[900,1440],"minimum_resolution":1,"item_set":3,"item":80,"test_form":2,"distractor":"pd","trial_type":"mars","trial_index":30,"time_elapsed":230794,"internal_node_id":"0.0-18.0-1.0","experiment":"calibration","task_version":"1.0","jspsych_version":"6.3.1","browser_interactions":0},{"rt":null,"stimulus":"<div style=\"font-size:24px;\">Loading puzzle:<br>13 / 16</div>","response":null,"trial_type":"html-keyboard-response","trial_index":31,"time_elapsed":232001,"internal_node_id":"0.0-19.0-0.0","experiment":"calibration","task_version":"1.0","jspsych_version":"6.3.1"},{"puzzle":"../static/img/is3/tf2/tf2_44_M_ss3.jpeg","item_order":[0,2,1,3],"correct":0,"choice":0,"accuracy":1,"rt":7000,"screen_resolution":[900,1440],"minimum_resolution":1,"item_set":3,"item":44,"test_form":2,"distractor":"md","trial_type":"mars","trial_index":32,"time_elapsed":239004,"internal_node_id":"0.0-19.0-1.0","experiment":"calibration","task_version":"1.0","jspsych_version":"6.3.1","browser_interactions":0},{"rt":null,"stimulus":"<div style=\"font-size:24px;\">Loading puzzle:<br>14 / 16</div>","response":null,"trial_type":"html-keyboard-response","trial_index":33,"time_elapsed":240210,"internal_node_id":"0.0-20.0-0.0","experiment":"calibration","task_version":"1.0","jspsych_version":"6.3.1"},{"puzzle":"../static/img/is3/tf1/tf1_54_M_ss2.jpeg","item_order":[3,2,1,0],"correct":0,"choice":2,"accuracy":0,"rt":8163,"screen_resolution":[900,1440],"minimum_resolution":1,"item_set":3,"item":54,"test_form":1,"distractor":"pd","trial_type":"mars","trial_index":34,"time_elapsed":248377,"internal_node_id":"0.0-20.0-1.0","experiment":"calibration","task_version":"1.0","jspsych_version":"6.3.1","browser_interactions":0},{"rt":null,"stimulus":"<div style=\"font-size:24px;\">Loading puzzle:<br>15 / 16</div>","response":null,"trial_type":"html-keyboard-response","trial_index":35,"time_elapsed":249584,"internal_node_id":"0.0-21.0-0.0","experiment":"calibration","task_version":"1.0","jspsych_version":"6.3.1"},{"puzzle":"../static/img/is3/tf2/tf2_29_M_ss3.jpeg","item_order":[1,2,3,0],"correct":0,"choice":0,"accuracy":1,"rt":7360,"screen_resolution":[900,1440],"minimum_resolution":1,"item_set":3,"item":29,"test_form":2,"distractor":"md","trial_type":"mars","trial_index":36,"time_elapsed":256946,"internal_node_id":"0.0-21.0-1.0","experiment":"calibration","task_version":"1.0","jspsych_version":"6.3.1","browser_interactions":0},{"rt":null,"stimulus":"<div style=\"font-size:24px;\">Loading puzzle:<br>16 / 16</div>","response":null,"trial_type":"html-keyboard-response","trial_index":37,"time_elapsed":258150,"internal_node_id":"0.0-22.0-0.0","experiment":"calibration","task_version":"1.0","jspsych_version":"6.3.1"},{"puzzle":"../static/img/is3/tf1/tf1_45_M_ss2.jpeg","item_order":[3,1,0,2],"correct":0,"choice":2,"accuracy":0,"rt":13007,"screen_resolution":[900,1440],"minimum_resolution":1,"item_set":3,"item":45,"test_form":1,"distractor":"pd","trial_type":"mars","trial_index":38,"time_elapsed":271160,"internal_node_id":"0.0-22.0-1.0","experiment":"calibration","task_version":"1.0","jspsych_version":"6.3.1","browser_interactions":0},{"value":[0,0,0],"trial_type":"call-function","trial_index":39,"time_elapsed":271162,"internal_node_id":"0.0-23.0","experiment":"calibration","task_version":"1.0","jspsych_version":"6.3.1"},{"view_history":[{"page_index":0,"viewing_time":2871}],"rt":2871,"trial_type":"instructions","trial_index":40,"time_elapsed":274035,"internal_node_id":"0.0-24.0","experiment":"calibration","task_version":"1.0","jspsych_version":"6.3.1"},{"rt":18128,"responses":{"age":"28","gender-categorical":"Male","gender-free-response":"","ethnicity":"Not Hispanic or Latino","race":["Asian","White"],"education":"Master degree or higher","free-response":""},"trial_type":"survey-demo","trial_index":41,"time_elapsed":292170,"internal_node_id":"0.0-25.0","experiment":"calibration","task_version":"1.0","jspsych_version":"6.3.1","interactions":"[{\"event\":\"focus\",\"trial\":0,\"time\":2},{\"event\":\"blur\",\"trial\":1,\"time\":6908},{\"event\":\"focus\",\"trial\":1,\"time\":8159},{\"event\":\"blur\",\"trial\":1,\"time\":9617},{\"event\":\"focus\",\"trial\":1,\"time\":9629},{\"event\":\"fullscreenenter\",\"trial\":1,\"time\":9641}]"}]