[{"success":true,"timeout":false,"failed_images":[],"failed_audio":[],"failed_video":[],"trial_type":"preload","trial_index":0,"time_elapsed":54366,"internal_node_id":"0.0-0.0","experiment":"calibration","task_version":"1.0","jspsych_version":"6.3.1"},{"success":true,"trial_type":"fullscreen","trial_index":1,"time_elapsed":305272,"internal_node_id":"0.0-1.0","experiment":"calibration","task_version":"1.0","jspsych_version":"6.3.1"},{"view_history":[{"page_index":0,"viewing_time":3384.3999999910593},{"page_index":1,"viewing_time":3333.4000000059605},{"page_index":2,"viewing_time":3555.7000000029802}],"rt":10274.699999988079,"trial_type":"instructions","trial_index":2,"time_elapsed":315556,"internal_node_id":"0.0-2.0","experiment":"calibration","task_version":"1.0","jspsych_version":"6.3.1"},{"puzzle":"../static/img/practice/pt1_M1.png","item_order":[2,0,3,1],"correct":0,"choice":0,"accuracy":1,"rt":3712.5,"screen_resolution":[768,1366],"minimum_resolution":1,"item_set":"practice","trial_type":"mars","trial_index":3,"time_elapsed":321276,"internal_node_id":"0.0-3.0-0.0","experiment":"calibration","task_version":"1.0","jspsych_version":"6.3.1"},{"puzzle":"../static/img/practice/pt2_M1.png","item_order":[2,3,0,1],"correct":0,"choice":0,"accuracy":1,"rt":2513.3999999910593,"screen_resolution":[768,1366],"minimum_resolution":1,"item_set":"practice","trial_type":"mars","trial_index":4,"time_elapsed":325806,"internal_node_id":"0.0-4.0-0.0","experiment":"calibration","task_version":"1.0","jspsych_version":"6.3.1"},{"puzzle":"../static/img/practice/pt3_M1.png","item_order":[2,0,3,1],"correct":0,"choice":0,"accuracy":1,"rt":2060,"screen_resolution":[768,1366],"minimum_resolution":1,"item_set":"practice","trial_type":"mars","trial_index":5,"time_elapsed":329879,"internal_node_id":"0.0-5.0-0.0","experiment":"calibration","task_version":"1.0","jspsych_version":"6.3.1"},{"view_history":[{"page_index":0,"viewing_time":2300.7000000029802},{"page_index":1,"viewing_time":2173.199999988079}],"rt":4474.5,"trial_type":"instructions","trial_index":6,"time_elapsed":334360,"internal_node_id":"0.0-6.0","experiment":"calibration","task_version":"1.0","jspsych_version":"6.3.1"},{"rt":null,"stimulus":"<div style=\"font-size:24px;\">Loading puzzle:<br>1 / 16</div>","response":null,"trial_type":"html-keyboard-response","trial_index":7,"time_elapsed":335567,"internal_node_id":"0.0-7.0-0.0","experiment":"calibration","task_version":"1.0","jspsych_version":"6.3.1"},{"puzzle":"../static/img/is3/tf2/tf2_20_M_ss3.jpeg","item_order":[1,0,2,3],"correct":0,"choice":1,"accuracy":0,"rt":5563.0999999940395,"screen_resolution":[768,1366],"minimum_resolution":1,"item_set":3,"item":20,"test_form":2,"distractor":"pd","trial_type":"mars","trial_index":8,"time_elapsed":341139,"internal_node_id":"0.0-7.0-1.0","experiment":"calibration","task_version":"1.0","jspsych_version":"6.3.1","browser_interactions":0},{"rt":null,"stimulus":"<div style=\"font-size:24px;\">Loading puzzle:<br>2 / 16</div>","response":null,"trial_type":"html-keyboard-response","trial_index":9,"time_elapsed":342343,"internal_node_id":"0.0-8.0-0.0","experiment":"calibration","task_version":"1.0","jspsych_version":"6.3.1"},{"puzzle":"../static/img/is3/tf1/tf1_28_M_ss3.jpeg","item_order":[1,3,2,0],"correct":0,"choice":3,"accuracy":0,"rt":6990.5999999940395,"screen_resolution":[768,1366],"minimum_resolution":1,"item_set":3,"item":28,"test_form":1,"distractor":"pd","trial_type":"mars","trial_index":10,"time_elapsed":349337,"internal_node_id":"0.0-8.0-1.0","experiment":"calibration","task_version":"1.0","jspsych_version":"6.3.1","browser_interactions":0},{"rt":null,"stimulus":"<div style=\"font-size:24px;\">Loading puzzle:<br>3 / 16</div>","response":null,"trial_type":"html-keyboard-response","trial_index":11,"time_elapsed":350540,"internal_node_id":"0.0-9.0-0.0","experiment":"calibration","task_version":"1.0","jspsych_version":"6.3.1"},{"puzzle":"../static/img/is3/tf2/tf2_49_M_ss2.jpeg","item_order":[3,0,2,1],"correct":0,"choice":0,"accuracy":1,"rt":4708,"screen_resolution":[768,1366],"minimum_resolution":1,"item_set":3,"item":49,"test_form":2,"distractor":"pd","trial_type":"mars","trial_index":12,"time_elapsed":355252,"internal_node_id":"0.0-9.0-1.0","experiment":"calibration","task_version":"1.0","jspsych_version":"6.3.1","browser_interactions":0},{"rt":null,"stimulus":"<div style=\"font-size:24px;\">Loading puzzle:<br>4 / 16</div>","response":null,"trial_type":"html-keyboard-response","trial_index":13,"time_elapsed":356455,"internal_node_id":"0.0-10.0-0.0","experiment":"calibration","task_version":"1.0","jspsych_version":"6.3.1"},{"puzzle":"../static/img/is3/tf1/tf1_71_M_ss1.jpeg","item_order":[0,1,2,3],"correct":0,"choice":1,"accuracy":0,"rt":4682.0999999940395,"screen_resolution":[768,1366],"minimum_resolution":1,"item_set":3,"item":71,"test_form":1,"distractor":"pd","trial_type":"mars","trial_index":14,"time_elapsed":361141,"internal_node_id":"0.0-10.0-1.0","experiment":"calibration","task_version":"1.0","jspsych_version":"6.3.1","browser_interactions":0},{"rt":null,"stimulus":"<div style=\"font-size:24px;\">Loading puzzle:<br>5 / 16</div>","response":null,"trial_type":"html-keyboard-response","trial_index":15,"time_elapsed":362344,"internal_node_id":"0.0-11.0-0.0","experiment":"calibration","task_version":"1.0","jspsych_version":"6.3.1"},{"puzzle":"../static/img/is3/tf1/tf1_31_M_ss3.jpeg","item_order":[0,1,3,2],"correct":0,"choice":0,"accuracy":1,"rt":9598.40000000596,"screen_resolution":[768,1366],"minimum_resolution":1,"item_set":3,"item":31,"test_form":1,"distractor":"md","trial_type":"mars","trial_index":16,"time_elapsed":371946,"internal_node_id":"0.0-11.0-1.0","experiment":"calibration","task_version":"1.0","jspsych_version":"6.3.1","browser_interactions":0},{"rt":null,"stimulus":"<div style=\"font-size:24px;\">Loading puzzle:<br>6 / 16</div>","response":null,"trial_type":"html-keyboard-response","trial_index":17,"time_elapsed":373149,"internal_node_id":"0.0-12.0-0.0","experiment":"calibration","task_version":"1.0","jspsych_version":"6.3.1"},{"puzzle":"../static/img/is3/tf2/tf2_15_M_ss1.jpeg","item_order":[0,3,1,2],"correct":0,"choice":0,"accuracy":1,"rt":5280.5,"screen_resolution":[768,1366],"minimum_resolution":1,"item_set":3,"item":15,"test_form":2,"distractor":"pd","trial_type":"mars","trial_index":18,"time_elapsed":378438,"internal_node_id":"0.0-12.0-1.0","experiment":"calibration","task_version":"1.0","jspsych_version":"6.3.1","browser_interactions":0},{"rt":null,"stimulus":"<div style=\"font-size:24px;\">Loading puzzle:<br>7 / 16</div>","response":null,"trial_type":"html-keyboard-response","trial_index":19,"time_elapsed":379640,"internal_node_id":"0.0-13.0-0.0","experiment":"calibration","task_version":"1.0","jspsych_version":"6.3.1"},{"puzzle":"../static/img/is3/tf1/tf1_17_M_ss1.jpeg","item_order":[3,0,1,2],"correct":0,"choice":0,"accuracy":1,"rt":6177.29999999702,"screen_resolution":[768,1366],"minimum_resolution":1,"item_set":3,"item":17,"test_form":1,"distractor":"pd","trial_type":"mars","trial_index":20,"time_elapsed":385823,"internal_node_id":"0.0-13.0-1.0","experiment":"calibration","task_version":"1.0","jspsych_version":"6.3.1","browser_interactions":0},{"rt":null,"stimulus":"<div style=\"font-size:24px;\">Loading puzzle:<br>8 / 16</div>","response":null,"trial_type":"html-keyboard-response","trial_index":21,"time_elapsed":387026,"internal_node_id":"0.0-14.0-0.0","experiment":"calibration","task_version":"1.0","jspsych_version":"6.3.1"},{"puzzle":"../static/img/is3/tf2/tf2_69_M_ss1.jpeg","item_order":[3,0,1,2],"correct":0,"choice":1,"accuracy":0,"rt":8158.29999999702,"screen_resolution":[768,1366],"minimum_resolution":1,"item_set":3,"item":69,"test_form":2,"distractor":"pd","trial_type":"mars","trial_index":22,"time_elapsed":395193,"internal_node_id":"0.0-14.0-1.0","experiment":"calibration","task_version":"1.0","jspsych_version":"6.3.1","browser_interactions":0},{"rt":null,"stimulus":"<div style=\"font-size:24px;\">Loading puzzle:<br>9 / 16</div>","response":null,"trial_type":"html-keyboard-response","trial_index":23,"time_elapsed":396396,"internal_node_id":"0.0-15.0-0.0","experiment":"calibration","task_version":"1.0","jspsych_version":"6.3.1"},{"puzzle":"../static/img/is3/tf1/tf1_79_M_ss3.jpeg","item_order":[3,2,0,1],"correct":0,"choice":0,"accuracy":1,"rt":2270.2000000029802,"screen_resolution":[768,1366],"minimum_resolution":1,"item_set":3,"item":79,"test_form":1,"distractor":"pd","trial_type":"mars","trial_index":24,"time_elapsed":398675,"internal_node_id":"0.0-15.0-1.0","experiment":"calibration","task_version":"1.0","jspsych_version":"6.3.1","browser_interactions":0},{"rt":null,"stimulus":"<div style=\"font-size:24px;\">Loading puzzle:<br>10 / 16</div>","response":null,"trial_type":"html-keyboard-response","trial_index":25,"time_elapsed":399878,"internal_node_id":"0.0-16.0-0.0","experiment":"calibration","task_version":"1.0","jspsych_version":"6.3.1"},{"puzzle":"../static/img/is3/tf2/tf2_23_M_ss3.jpeg","item_order":[2,3,0,1],"correct":0,"choice":0,"accuracy":1,"rt":6418.399999991059,"screen_resolution":[768,1366],"minimum_resolution":1,"item_set":3,"item":23,"test_form":2,"distractor":"pd","trial_type":"mars","trial_index":26,"time_elapsed":406305,"internal_node_id":"0.0-16.0-1.0","experiment":"calibration","task_version":"1.0","jspsych_version":"6.3.1","browser_interactions":0},{"rt":null,"stimulus":"<div style=\"font-size:24px;\">Loading puzzle:<br>11 / 16</div>","response":null,"trial_type":"html-keyboard-response","trial_index":27,"time_elapsed":407507,"internal_node_id":"0.0-17.0-0.0","experiment":"calibration","task_version":"1.0","jspsych_version":"6.3.1"},{"puzzle":"../static/img/is3/tf2/tf2_26_M_ss3.jpeg","item_order":[3,0,1,2],"correct":0,"choice":0,"accuracy":1,"rt":3497.2000000029802,"screen_resolution":[768,1366],"minimum_resolution":1,"item_set":3,"item":26,"test_form":2,"distractor":"md","trial_type":"mars","trial_index":28,"time_elapsed":411013,"internal_node_id":"0.0-17.0-1.0","experiment":"calibration","task_version":"1.0","jspsych_version":"6.3.1","browser_interactions":0},{"rt":null,"stimulus":"<div style=\"font-size:24px;\">Loading puzzle:<br>12 / 16</div>","response":null,"trial_type":"html-keyboard-response","trial_index":29,"time_elapsed":412216,"internal_node_id":"0.0-18.0-0.0","experiment":"calibration","task_version":"1.0","jspsych_version":"6.3.1"},{"puzzle":"../static/img/is3/tf1/tf1_74_M_ss1.jpeg","item_order":[0,2,3,1],"correct":0,"choice":1,"accuracy":0,"rt":10490.90000000596,"screen_resolution":[768,1366],"minimum_resolution":1,"item_set":3,"item":74,"test_form":1,"distractor":"pd","trial_type":"mars","trial_index":30,"time_elapsed":422715,"internal_node_id":"0.0-18.0-1.0","experiment":"calibration","task_version":"1.0","jspsych_version":"6.3.1","browser_interactions":0},{"rt":null,"stimulus":"<div style=\"font-size:24px;\">Loading puzzle:<br>13 / 16</div>","response":null,"trial_type":"html-keyboard-response","trial_index":31,"time_elapsed":423919,"internal_node_id":"0.0-19.0-0.0","experiment":"calibration","task_version":"1.0","jspsych_version":"6.3.1"},{"puzzle":"../static/img/is3/tf1/tf1_64_M_ss3.jpeg","item_order":[3,2,1,0],"correct":0,"choice":2,"accuracy":0,"rt":7566.79999999702,"screen_resolution":[768,1366],"minimum_resolution":1,"item_set":3,"item":64,"test_form":1,"distractor":"md","trial_type":"mars","trial_index":32,"time_elapsed":431493,"internal_node_id":"0.0-19.0-1.0","experiment":"calibration","task_version":"1.0","jspsych_version":"6.3.1","browser_interactions":0},{"rt":null,"stimulus":"<div style=\"font-size:24px;\">Loading puzzle:<br>14 / 16</div>","response":null,"trial_type":"html-keyboard-response","trial_index":33,"time_elapsed":432696,"internal_node_id":"0.0-20.0-0.0","experiment":"calibration","task_version":"1.0","jspsych_version":"6.3.1"},{"puzzle":"../static/img/is3/tf2/tf2_44_M_ss3.jpeg","item_order":[2,1,0,3],"correct":0,"choice":1,"accuracy":0,"rt":8975.89999999106,"screen_resolution":[768,1366],"minimum_resolution":1,"item_set":3,"item":44,"test_form":2,"distractor":"md","trial_type":"mars","trial_index":34,"time_elapsed":441681,"internal_node_id":"0.0-20.0-1.0","experiment":"calibration","task_version":"1.0","jspsych_version":"6.3.1","browser_interactions":0},{"rt":null,"stimulus":"<div style=\"font-size:24px;\">Loading puzzle:<br>15 / 16</div>","response":null,"trial_type":"html-keyboard-response","trial_index":35,"time_elapsed":442885,"internal_node_id":"0.0-21.0-0.0","experiment":"calibration","task_version":"1.0","jspsych_version":"6.3.1"},{"puzzle":"../static/img/is3/tf2/tf2_24_M_ss1.jpeg","item_order":[3,0,2,1],"correct":0,"choice":2,"accuracy":0,"rt":5453.5999999940395,"screen_resolution":[768,1366],"minimum_resolution":1,"item_set":3,"item":24,"test_form":2,"distractor":"pd","trial_type":"mars","trial_index":36,"time_elapsed":448348,"internal_node_id":"0.0-21.0-1.0","experiment":"calibration","task_version":"1.0","jspsych_version":"6.3.1","browser_interactions":0},{"rt":null,"stimulus":"<div style=\"font-size:24px;\">Loading puzzle:<br>16 / 16</div>","response":null,"trial_type":"html-keyboard-response","trial_index":37,"time_elapsed":449551,"internal_node_id":"0.0-22.0-0.0","experiment":"calibration","task_version":"1.0","jspsych_version":"6.3.1"},{"puzzle":"../static/img/is3/tf1/tf1_35_M_ss1.jpeg","item_order":[3,1,2,0],"correct":0,"choice":2,"accuracy":0,"rt":6677.79999999702,"screen_resolution":[768,1366],"minimum_resolution":1,"item_set":3,"item":35,"test_form":1,"distractor":"pd","trial_type":"mars","trial_index":38,"time_elapsed":456238,"internal_node_id":"0.0-22.0-1.0","experiment":"calibration","task_version":"1.0","jspsych_version":"6.3.1","browser_interactions":0},{"value":[1,0,0],"trial_type":"call-function","trial_index":39,"time_elapsed":456240,"internal_node_id":"0.0-23.0","experiment":"calibration","task_version":"1.0","jspsych_version":"6.3.1"},{"view_history":[{"page_index":0,"viewing_time":3225.3999999910593}],"rt":3225.8999999910593,"trial_type":"instructions","trial_index":40,"time_elapsed":459468,"internal_node_id":"0.0-24.0","experiment":"calibration","task_version":"1.0","jspsych_version":"6.3.1"},{"rt":16591.79999999702,"responses":{"age":"33","gender-categorical":"Male","gender-free-response":"","ethnicity":"Not Hispanic or Latino","race":["White"],"education":"Master degree or higher","free-response":""},"trial_type":"survey-demo","trial_index":41,"time_elapsed":476066,"internal_node_id":"0.0-25.0","experiment":"calibration","task_version":"1.0","jspsych_version":"6.3.1","interactions":"[{\"event\":\"blur\",\"trial\":0,\"time\":31582},{\"event\":\"focus\",\"trial\":1,\"time\":302689},{\"event\":\"fullscreenenter\",\"trial\":1,\"time\":304287}]"}]