[{"success":true,"timeout":false,"failed_images":[],"failed_audio":[],"failed_video":[],"trial_type":"preload","trial_index":0,"time_elapsed":3695,"internal_node_id":"0.0-0.0","experiment":"calibration","task_version":"1.0","jspsych_version":"6.3.1"},{"success":true,"trial_type":"fullscreen","trial_index":1,"time_elapsed":10315,"internal_node_id":"0.0-1.0","experiment":"calibration","task_version":"1.0","jspsych_version":"6.3.1"},{"view_history":[{"page_index":0,"viewing_time":11687},{"page_index":1,"viewing_time":10746.300000011921},{"page_index":2,"viewing_time":2756.5}],"rt":25191.20000001788,"trial_type":"instructions","trial_index":2,"time_elapsed":35513,"internal_node_id":"0.0-2.0","experiment":"calibration","task_version":"1.0","jspsych_version":"6.3.1"},{"puzzle":"../static/img/practice/pt1_M1.png","item_order":[3,0,1,2],"correct":0,"choice":0,"accuracy":1,"rt":3711.7999999821186,"screen_resolution":[900,1440],"minimum_resolution":1,"item_set":"practice","trial_type":"mars","trial_index":3,"time_elapsed":41230,"internal_node_id":"0.0-3.0-0.0","experiment":"calibration","task_version":"1.0","jspsych_version":"6.3.1"},{"puzzle":"../static/img/practice/pt2_M1.png","item_order":[2,0,3,1],"correct":0,"choice":0,"accuracy":1,"rt":3204.399999976158,"screen_resolution":[900,1440],"minimum_resolution":1,"item_set":"practice","trial_type":"mars","trial_index":4,"time_elapsed":46444,"internal_node_id":"0.0-4.0-0.0","experiment":"calibration","task_version":"1.0","jspsych_version":"6.3.1"},{"puzzle":"../static/img/practice/pt3_M1.png","item_order":[0,1,3,2],"correct":0,"choice":0,"accuracy":1,"rt":2018.199999988079,"screen_resolution":[900,1440],"minimum_resolution":1,"item_set":"practice","trial_type":"mars","trial_index":5,"time_elapsed":50467,"internal_node_id":"0.0-5.0-0.0","experiment":"calibration","task_version":"1.0","jspsych_version":"6.3.1"},{"view_history":[{"page_index":0,"viewing_time":1832.3999999761581},{"page_index":1,"viewing_time":9832.600000023842}],"rt":11665.399999976158,"trial_type":"instructions","trial_index":6,"time_elapsed":62134,"internal_node_id":"0.0-6.0","experiment":"calibration","task_version":"1.0","jspsych_version":"6.3.1"},{"rt":null,"stimulus":"<div style=\"font-size:24px;\">Loading puzzle:<br>1 / 16</div>","response":null,"trial_type":"html-keyboard-response","trial_index":7,"time_elapsed":63342,"internal_node_id":"0.0-7.0-0.0","experiment":"calibration","task_version":"1.0","jspsych_version":"6.3.1"},{"puzzle":"../static/img/is3/tf2/tf2_19_M_ss2.jpeg","item_order":[2,3,0,1],"correct":0,"choice":0,"accuracy":1,"rt":5596,"screen_resolution":[900,1440],"minimum_resolution":1,"item_set":3,"item":19,"test_form":2,"distractor":"md","trial_type":"mars","trial_index":8,"time_elapsed":68942,"internal_node_id":"0.0-7.0-1.0","experiment":"calibration","task_version":"1.0","jspsych_version":"6.3.1","browser_interactions":0},{"rt":null,"stimulus":"<div style=\"font-size:24px;\">Loading puzzle:<br>2 / 16</div>","response":null,"trial_type":"html-keyboard-response","trial_index":9,"time_elapsed":70147,"internal_node_id":"0.0-8.0-0.0","experiment":"calibration","task_version":"1.0","jspsych_version":"6.3.1"},{"puzzle":"../static/img/is3/tf1/tf1_39_M_ss2.jpeg","item_order":[1,3,0,2],"correct":0,"choice":0,"accuracy":1,"rt":18407.70000001788,"screen_resolution":[900,1440],"minimum_resolution":1,"item_set":3,"item":39,"test_form":1,"distractor":"md","trial_type":"mars","trial_index":10,"time_elapsed":88559,"internal_node_id":"0.0-8.0-1.0","experiment":"calibration","task_version":"1.0","jspsych_version":"6.3.1","browser_interactions":0},{"rt":null,"stimulus":"<div style=\"font-size:24px;\">Loading puzzle:<br>3 / 16</div>","response":null,"trial_type":"html-keyboard-response","trial_index":11,"time_elapsed":89765,"internal_node_id":"0.0-9.0-0.0","experiment":"calibration","task_version":"1.0","jspsych_version":"6.3.1"},{"puzzle":"../static/img/is3/tf2/tf2_51_M_ss1.jpeg","item_order":[1,2,3,0],"correct":0,"choice":0,"accuracy":1,"rt":11787.90000000596,"screen_resolution":[900,1440],"minimum_resolution":1,"item_set":3,"item":51,"test_form":2,"distractor":"md","trial_type":"mars","trial_index":12,"time_elapsed":101557,"internal_node_id":"0.0-9.0-1.0","experiment":"calibration","task_version":"1.0","jspsych_version":"6.3.1","browser_interactions":0},{"rt":null,"stimulus":"<div style=\"font-size:24px;\">Loading puzzle:<br>4 / 16</div>","response":null,"trial_type":"html-keyboard-response","trial_index":13,"time_elapsed":102759,"internal_node_id":"0.0-10.0-0.0","experiment":"calibration","task_version":"1.0","jspsych_version":"6.3.1"},{"puzzle":"../static/img/is3/tf1/tf1_70_M_ss3.jpeg","item_order":[2,3,1,0],"correct":0,"choice":0,"accuracy":1,"rt":12017.299999982119,"screen_resolution":[900,1440],"minimum_resolution":1,"item_set":3,"item":70,"test_form":1,"distractor":"md","trial_type":"mars","trial_index":14,"time_elapsed":114780,"internal_node_id":"0.0-10.0-1.0","experiment":"calibration","task_version":"1.0","jspsych_version":"6.3.1","browser_interactions":0},{"rt":null,"stimulus":"<div style=\"font-size:24px;\">Loading puzzle:<br>5 / 16</div>","response":null,"trial_type":"html-keyboard-response","trial_index":15,"time_elapsed":115983,"internal_node_id":"0.0-11.0-0.0","experiment":"calibration","task_version":"1.0","jspsych_version":"6.3.1"},{"puzzle":"../static/img/is3/tf1/tf1_27_M_ss2.jpeg","item_order":[2,0,3,1],"correct":0,"choice":0,"accuracy":1,"rt":17905.5,"screen_resolution":[900,1440],"minimum_resolution":1,"item_set":3,"item":27,"test_form":1,"distractor":"pd","trial_type":"mars","trial_index":16,"time_elapsed":133892,"internal_node_id":"0.0-11.0-1.0","experiment":"calibration","task_version":"1.0","jspsych_version":"6.3.1","browser_interactions":0},{"rt":null,"stimulus":"<div style=\"font-size:24px;\">Loading puzzle:<br>6 / 16</div>","response":null,"trial_type":"html-keyboard-response","trial_index":17,"time_elapsed":135099,"internal_node_id":"0.0-12.0-0.0","experiment":"calibration","task_version":"1.0","jspsych_version":"6.3.1"},{"puzzle":"../static/img/is3/tf2/tf2_15_M_ss1.jpeg","item_order":[3,2,1,0],"correct":0,"choice":0,"accuracy":1,"rt":9431.90000000596,"screen_resolution":[900,1440],"minimum_resolution":1,"item_set":3,"item":15,"test_form":2,"distractor":"pd","trial_type":"mars","trial_index":18,"time_elapsed":144534,"internal_node_id":"0.0-12.0-1.0","experiment":"calibration","task_version":"1.0","jspsych_version":"6.3.1","browser_interactions":0},{"rt":null,"stimulus":"<div style=\"font-size:24px;\">Loading puzzle:<br>7 / 16</div>","response":null,"trial_type":"html-keyboard-response","trial_index":19,"time_elapsed":145740,"internal_node_id":"0.0-13.0-0.0","experiment":"calibration","task_version":"1.0","jspsych_version":"6.3.1"},{"puzzle":"../static/img/is3/tf2/tf2_69_M_ss1.jpeg","item_order":[3,1,2,0],"correct":0,"choice":2,"accuracy":0,"rt":8743.200000017881,"screen_resolution":[900,1440],"minimum_resolution":1,"item_set":3,"item":69,"test_form":2,"distractor":"md","trial_type":"mars","trial_index":20,"time_elapsed":154487,"internal_node_id":"0.0-13.0-1.0","experiment":"calibration","task_version":"1.0","jspsych_version":"6.3.1","browser_interactions":0},{"rt":null,"stimulus":"<div style=\"font-size:24px;\">Loading puzzle:<br>8 / 16</div>","response":null,"trial_type":"html-keyboard-response","trial_index":21,"time_elapsed":155695,"internal_node_id":"0.0-14.0-0.0","experiment":"calibration","task_version":"1.0","jspsych_version":"6.3.1"},{"puzzle":"../static/img/is3/tf1/tf1_12_M_ss2.jpeg","item_order":[0,1,2,3],"correct":0,"choice":0,"accuracy":1,"rt":28616.90000000596,"screen_resolution":[900,1440],"minimum_resolution":1,"item_set":3,"item":12,"test_form":1,"distractor":"pd","trial_type":"mars","trial_index":22,"time_elapsed":184316,"internal_node_id":"0.0-14.0-1.0","experiment":"calibration","task_version":"1.0","jspsych_version":"6.3.1","browser_interactions":0},{"rt":null,"stimulus":"<div style=\"font-size:24px;\">Loading puzzle:<br>9 / 16</div>","response":null,"trial_type":"html-keyboard-response","trial_index":23,"time_elapsed":185522,"internal_node_id":"0.0-15.0-0.0","experiment":"calibration","task_version":"1.0","jspsych_version":"6.3.1"},{"puzzle":"../static/img/is3/tf1/tf1_72_M_ss2.jpeg","item_order":[1,0,2,3],"correct":0,"choice":0,"accuracy":1,"rt":11204,"screen_resolution":[900,1440],"minimum_resolution":1,"item_set":3,"item":72,"test_form":1,"distractor":"pd","trial_type":"mars","trial_index":24,"time_elapsed":196730,"internal_node_id":"0.0-15.0-1.0","experiment":"calibration","task_version":"1.0","jspsych_version":"6.3.1","browser_interactions":0},{"rt":null,"stimulus":"<div style=\"font-size:24px;\">Loading puzzle:<br>10 / 16</div>","response":null,"trial_type":"html-keyboard-response","trial_index":25,"time_elapsed":197933,"internal_node_id":"0.0-16.0-0.0","experiment":"calibration","task_version":"1.0","jspsych_version":"6.3.1"},{"puzzle":"../static/img/is3/tf2/tf2_40_M_ss2.jpeg","item_order":[3,2,0,1],"correct":0,"choice":0,"accuracy":1,"rt":19730.70000001788,"screen_resolution":[900,1440],"minimum_resolution":1,"item_set":3,"item":40,"test_form":2,"distractor":"md","trial_type":"mars","trial_index":26,"time_elapsed":217668,"internal_node_id":"0.0-16.0-1.0","experiment":"calibration","task_version":"1.0","jspsych_version":"6.3.1","browser_interactions":0},{"rt":null,"stimulus":"<div style=\"font-size:24px;\">Loading puzzle:<br>11 / 16</div>","response":null,"trial_type":"html-keyboard-response","trial_index":27,"time_elapsed":218872,"internal_node_id":"0.0-17.0-0.0","experiment":"calibration","task_version":"1.0","jspsych_version":"6.3.1"},{"puzzle":"../static/img/is3/tf1/tf1_59_M_ss1.jpeg","item_order":[3,2,1,0],"correct":0,"choice":3,"accuracy":0,"rt":29978.600000023842,"screen_resolution":[900,1440],"minimum_resolution":1,"item_set":3,"item":59,"test_form":1,"distractor":"md","trial_type":"mars","trial_index":28,"time_elapsed":248855,"internal_node_id":"0.0-17.0-1.0","experiment":"calibration","task_version":"1.0","jspsych_version":"6.3.1","browser_interactions":0},{"rt":null,"stimulus":"<div style=\"font-size:24px;\">Loading puzzle:<br>12 / 16</div>","response":null,"trial_type":"html-keyboard-response","trial_index":29,"time_elapsed":250057,"internal_node_id":"0.0-18.0-0.0","experiment":"calibration","task_version":"1.0","jspsych_version":"6.3.1"},{"puzzle":"../static/img/is3/tf2/tf2_52_M_ss2.jpeg","item_order":[3,1,0,2],"correct":0,"choice":0,"accuracy":1,"rt":23691,"screen_resolution":[900,1440],"minimum_resolution":1,"item_set":3,"item":52,"test_form":2,"distractor":"md","trial_type":"mars","trial_index":30,"time_elapsed":273752,"internal_node_id":"0.0-18.0-1.0","experiment":"calibration","task_version":"1.0","jspsych_version":"6.3.1","browser_interactions":0},{"rt":null,"stimulus":"<div style=\"font-size:24px;\">Loading puzzle:<br>13 / 16</div>","response":null,"trial_type":"html-keyboard-response","trial_index":31,"time_elapsed":274955,"internal_node_id":"0.0-19.0-0.0","experiment":"calibration","task_version":"1.0","jspsych_version":"6.3.1"},{"puzzle":"../static/img/is3/tf1/tf1_75_M_ss2.jpeg","item_order":[3,2,1,0],"correct":0,"choice":0,"accuracy":1,"rt":19596.40000000596,"screen_resolution":[900,1440],"minimum_resolution":1,"item_set":3,"item":75,"test_form":1,"distractor":"md","trial_type":"mars","trial_index":32,"time_elapsed":294556,"internal_node_id":"0.0-19.0-1.0","experiment":"calibration","task_version":"1.0","jspsych_version":"6.3.1","browser_interactions":0},{"rt":null,"stimulus":"<div style=\"font-size:24px;\">Loading puzzle:<br>14 / 16</div>","response":null,"trial_type":"html-keyboard-response","trial_index":33,"time_elapsed":295761,"internal_node_id":"0.0-20.0-0.0","experiment":"calibration","task_version":"1.0","jspsych_version":"6.3.1"},{"puzzle":"../static/img/is3/tf2/tf2_76_M_ss2.jpeg","item_order":[2,0,1,3],"correct":0,"choice":0,"accuracy":1,"rt":12881.5,"screen_resolution":[900,1440],"minimum_resolution":1,"item_set":3,"item":76,"test_form":2,"distractor":"pd","trial_type":"mars","trial_index":34,"time_elapsed":308646,"internal_node_id":"0.0-20.0-1.0","experiment":"calibration","task_version":"1.0","jspsych_version":"6.3.1","browser_interactions":0},{"rt":null,"stimulus":"<div style=\"font-size:24px;\">Loading puzzle:<br>15 / 16</div>","response":null,"trial_type":"html-keyboard-response","trial_index":35,"time_elapsed":309849,"internal_node_id":"0.0-21.0-0.0","experiment":"calibration","task_version":"1.0","jspsych_version":"6.3.1"},{"puzzle":"../static/img/is3/tf2/tf2_21_M_ss1.jpeg","item_order":[2,0,1,3],"correct":0,"choice":0,"accuracy":1,"rt":17233.09999999404,"screen_resolution":[900,1440],"minimum_resolution":1,"item_set":3,"item":21,"test_form":2,"distractor":"md","trial_type":"mars","trial_index":36,"time_elapsed":327086,"internal_node_id":"0.0-21.0-1.0","experiment":"calibration","task_version":"1.0","jspsych_version":"6.3.1","browser_interactions":0},{"rt":null,"stimulus":"<div style=\"font-size:24px;\">Loading puzzle:<br>16 / 16</div>","response":null,"trial_type":"html-keyboard-response","trial_index":37,"time_elapsed":328292,"internal_node_id":"0.0-22.0-0.0","experiment":"calibration","task_version":"1.0","jspsych_version":"6.3.1"},{"puzzle":"../static/img/is3/tf1/tf1_45_M_ss2.jpeg","item_order":[1,2,3,0],"correct":0,"choice":0,"accuracy":1,"rt":12074.899999976158,"screen_resolution":[900,1440],"minimum_resolution":1,"item_set":3,"item":45,"test_form":1,"distractor":"md","trial_type":"mars","trial_index":38,"time_elapsed":340371,"internal_node_id":"0.0-22.0-1.0","experiment":"calibration","task_version":"1.0","jspsych_version":"6.3.1","browser_interactions":0},{"value":[0,0,0],"trial_type":"call-function","trial_index":39,"time_elapsed":340372,"internal_node_id":"0.0-23.0","experiment":"calibration","task_version":"1.0","jspsych_version":"6.3.1"},{"view_history":[{"page_index":0,"viewing_time":2311}],"rt":2311.2999999821186,"trial_type":"instructions","trial_index":40,"time_elapsed":342684,"internal_node_id":"0.0-24.0","experiment":"calibration","task_version":"1.0","jspsych_version":"6.3.1"},{"rt":24649.899999976158,"responses":{"age":"20","gender-categorical":"Female","gender-free-response":"","ethnicity":"Not Hispanic or Latino","race":["White"],"education":"Some college","free-response":"no comment"},"trial_type":"survey-demo","trial_index":41,"time_elapsed":367339,"internal_node_id":"0.0-25.0","experiment":"calibration","task_version":"1.0","jspsych_version":"6.3.1","interactions":"[{\"event\":\"fullscreenenter\",\"trial\":1,\"time\":9389}]"}]