[{"success":true,"timeout":false,"failed_images":[],"failed_audio":[],"failed_video":[],"trial_type":"preload","trial_index":0,"time_elapsed":26658,"internal_node_id":"0.0-0.0","experiment":"calibration","task_version":"1.0","jspsych_version":"6.3.1"},{"success":true,"trial_type":"fullscreen","trial_index":1,"time_elapsed":37930,"internal_node_id":"0.0-1.0","experiment":"calibration","task_version":"1.0","jspsych_version":"6.3.1"},{"view_history":[{"page_index":0,"viewing_time":27573.900000000373},{"page_index":1,"viewing_time":19187.099999999627},{"page_index":2,"viewing_time":5300.200000000186}],"rt":52062.40000000037,"trial_type":"instructions","trial_index":2,"time_elapsed":90002,"internal_node_id":"0.0-2.0","experiment":"calibration","task_version":"1.0","jspsych_version":"6.3.1"},{"puzzle":"../static/img/practice/pt1_M1.png","item_order":[0,2,1,3],"correct":0,"choice":0,"accuracy":1,"rt":24987.800000000745,"screen_resolution":[768,1366],"minimum_resolution":1,"item_set":"practice","trial_type":"mars","trial_index":3,"time_elapsed":117002,"internal_node_id":"0.0-3.0-0.0","experiment":"calibration","task_version":"1.0","jspsych_version":"6.3.1"},{"puzzle":"../static/img/practice/pt2_M1.png","item_order":[0,2,1,3],"correct":0,"choice":0,"accuracy":1,"rt":7855.0999999996275,"screen_resolution":[768,1366],"minimum_resolution":1,"item_set":"practice","trial_type":"mars","trial_index":4,"time_elapsed":126866,"internal_node_id":"0.0-4.0-0.0","experiment":"calibration","task_version":"1.0","jspsych_version":"6.3.1"},{"puzzle":"../static/img/practice/pt3_M1.png","item_order":[3,2,1,0],"correct":0,"choice":0,"accuracy":1,"rt":2614.7000000001863,"screen_resolution":[768,1366],"minimum_resolution":1,"item_set":"practice","trial_type":"mars","trial_index":5,"time_elapsed":131489,"internal_node_id":"0.0-5.0-0.0","experiment":"calibration","task_version":"1.0","jspsych_version":"6.3.1"},{"view_history":[{"page_index":0,"viewing_time":4229.4000000003725},{"page_index":1,"viewing_time":18906.599999999627}],"rt":23136.299999999814,"trial_type":"instructions","trial_index":6,"time_elapsed":154626,"internal_node_id":"0.0-6.0","experiment":"calibration","task_version":"1.0","jspsych_version":"6.3.1"},{"rt":null,"stimulus":"<div style=\"font-size:24px;\">Loading puzzle:<br>1 / 16</div>","response":null,"trial_type":"html-keyboard-response","trial_index":7,"time_elapsed":155839,"internal_node_id":"0.0-7.0-0.0","experiment":"calibration","task_version":"1.0","jspsych_version":"6.3.1"},{"puzzle":"../static/img/is3/tf2/tf2_6_M_ss1.jpeg","item_order":[3,0,2,1],"correct":0,"choice":0,"accuracy":1,"rt":16057.900000000373,"screen_resolution":[768,1366],"minimum_resolution":1,"item_set":3,"item":6,"test_form":2,"distractor":"md","trial_type":"mars","trial_index":8,"time_elapsed":171904,"internal_node_id":"0.0-7.0-1.0","experiment":"calibration","task_version":"1.0","jspsych_version":"6.3.1","browser_interactions":0},{"rt":null,"stimulus":"<div style=\"font-size:24px;\">Loading puzzle:<br>2 / 16</div>","response":null,"trial_type":"html-keyboard-response","trial_index":9,"time_elapsed":173112,"internal_node_id":"0.0-8.0-0.0","experiment":"calibration","task_version":"1.0","jspsych_version":"6.3.1"},{"puzzle":"../static/img/is3/tf1/tf1_28_M_ss3.jpeg","item_order":[0,2,1,3],"correct":0,"choice":1,"accuracy":0,"rt":25287.400000000373,"screen_resolution":[768,1366],"minimum_resolution":1,"item_set":3,"item":28,"test_form":1,"distractor":"md","trial_type":"mars","trial_index":10,"time_elapsed":198410,"internal_node_id":"0.0-8.0-1.0","experiment":"calibration","task_version":"1.0","jspsych_version":"6.3.1","browser_interactions":0},{"rt":null,"stimulus":"<div style=\"font-size:24px;\">Loading puzzle:<br>3 / 16</div>","response":null,"trial_type":"html-keyboard-response","trial_index":11,"time_elapsed":199616,"internal_node_id":"0.0-9.0-0.0","experiment":"calibration","task_version":"1.0","jspsych_version":"6.3.1"},{"puzzle":"../static/img/is3/tf1/tf1_71_M_ss1.jpeg","item_order":[3,0,1,2],"correct":0,"choice":0,"accuracy":1,"rt":20487.299999999814,"screen_resolution":[768,1366],"minimum_resolution":1,"item_set":3,"item":71,"test_form":1,"distractor":"md","trial_type":"mars","trial_index":12,"time_elapsed":220114,"internal_node_id":"0.0-9.0-1.0","experiment":"calibration","task_version":"1.0","jspsych_version":"6.3.1","browser_interactions":0},{"rt":null,"stimulus":"<div style=\"font-size:24px;\">Loading puzzle:<br>4 / 16</div>","response":null,"trial_type":"html-keyboard-response","trial_index":13,"time_elapsed":221324,"internal_node_id":"0.0-10.0-0.0","experiment":"calibration","task_version":"1.0","jspsych_version":"6.3.1"},{"puzzle":"../static/img/is3/tf2/tf2_51_M_ss1.jpeg","item_order":[2,1,3,0],"correct":0,"choice":2,"accuracy":0,"rt":29304.200000000186,"screen_resolution":[768,1366],"minimum_resolution":1,"item_set":3,"item":51,"test_form":2,"distractor":"md","trial_type":"mars","trial_index":14,"time_elapsed":250633,"internal_node_id":"0.0-10.0-1.0","experiment":"calibration","task_version":"1.0","jspsych_version":"6.3.1","browser_interactions":0},{"rt":null,"stimulus":"<div style=\"font-size:24px;\">Loading puzzle:<br>5 / 16</div>","response":null,"trial_type":"html-keyboard-response","trial_index":15,"time_elapsed":251842,"internal_node_id":"0.0-11.0-0.0","experiment":"calibration","task_version":"1.0","jspsych_version":"6.3.1"},{"puzzle":"../static/img/is3/tf2/tf2_15_M_ss1.jpeg","item_order":[3,0,2,1],"correct":0,"choice":1,"accuracy":0,"rt":28565.200000000186,"screen_resolution":[768,1366],"minimum_resolution":1,"item_set":3,"item":15,"test_form":2,"distractor":"pd","trial_type":"mars","trial_index":16,"time_elapsed":280418,"internal_node_id":"0.0-11.0-1.0","experiment":"calibration","task_version":"1.0","jspsych_version":"6.3.1","browser_interactions":0},{"rt":null,"stimulus":"<div style=\"font-size:24px;\">Loading puzzle:<br>6 / 16</div>","response":null,"trial_type":"html-keyboard-response","trial_index":17,"time_elapsed":281621,"internal_node_id":"0.0-12.0-0.0","experiment":"calibration","task_version":"1.0","jspsych_version":"6.3.1"},{"puzzle":"../static/img/is3/tf1/tf1_37_M_ss3.jpeg","item_order":[2,0,1,3],"correct":0,"choice":null,"accuracy":null,"rt":null,"screen_resolution":[768,1366],"minimum_resolution":1,"item_set":3,"item":37,"test_form":1,"distractor":"md","trial_type":"mars","trial_index":18,"time_elapsed":311630,"internal_node_id":"0.0-12.0-1.0","experiment":"calibration","task_version":"1.0","jspsych_version":"6.3.1","browser_interactions":0},{"rt":null,"stimulus":"<div style=\"font-size:24px;\">Loading puzzle:<br>7 / 16</div>","response":null,"trial_type":"html-keyboard-response","trial_index":19,"time_elapsed":312840,"internal_node_id":"0.0-13.0-0.0","experiment":"calibration","task_version":"1.0","jspsych_version":"6.3.1"},{"puzzle":"../static/img/is3/tf1/tf1_12_M_ss2.jpeg","item_order":[0,2,1,3],"correct":0,"choice":0,"accuracy":1,"rt":16316.5,"screen_resolution":[768,1366],"minimum_resolution":1,"item_set":3,"item":12,"test_form":1,"distractor":"md","trial_type":"mars","trial_index":20,"time_elapsed":329161,"internal_node_id":"0.0-13.0-1.0","experiment":"calibration","task_version":"1.0","jspsych_version":"6.3.1","browser_interactions":0},{"rt":null,"stimulus":"<div style=\"font-size:24px;\">Loading puzzle:<br>8 / 16</div>","response":null,"trial_type":"html-keyboard-response","trial_index":21,"time_elapsed":330372,"internal_node_id":"0.0-14.0-0.0","experiment":"calibration","task_version":"1.0","jspsych_version":"6.3.1"},{"puzzle":"../static/img/is3/tf2/tf2_58_M_ss2.jpeg","item_order":[0,3,2,1],"correct":0,"choice":0,"accuracy":1,"rt":22694.299999999814,"screen_resolution":[768,1366],"minimum_resolution":1,"item_set":3,"item":58,"test_form":2,"distractor":"pd","trial_type":"mars","trial_index":22,"time_elapsed":353076,"internal_node_id":"0.0-14.0-1.0","experiment":"calibration","task_version":"1.0","jspsych_version":"6.3.1","browser_interactions":0},{"rt":null,"stimulus":"<div style=\"font-size:24px;\">Loading puzzle:<br>9 / 16</div>","response":null,"trial_type":"html-keyboard-response","trial_index":23,"time_elapsed":354282,"internal_node_id":"0.0-15.0-0.0","experiment":"calibration","task_version":"1.0","jspsych_version":"6.3.1"},{"puzzle":"../static/img/is3/tf2/tf2_42_M_ss1.jpeg","item_order":[2,1,3,0],"correct":0,"choice":1,"accuracy":0,"rt":26497.099999999627,"screen_resolution":[768,1366],"minimum_resolution":1,"item_set":3,"item":42,"test_form":2,"distractor":"pd","trial_type":"mars","trial_index":24,"time_elapsed":380786,"internal_node_id":"0.0-15.0-1.0","experiment":"calibration","task_version":"1.0","jspsych_version":"6.3.1","browser_interactions":0},{"rt":null,"stimulus":"<div style=\"font-size:24px;\">Loading puzzle:<br>10 / 16</div>","response":null,"trial_type":"html-keyboard-response","trial_index":25,"time_elapsed":381992,"internal_node_id":"0.0-16.0-0.0","experiment":"calibration","task_version":"1.0","jspsych_version":"6.3.1"},{"puzzle":"../static/img/is3/tf1/tf1_79_M_ss3.jpeg","item_order":[2,3,0,1],"correct":0,"choice":3,"accuracy":0,"rt":27103.599999999627,"screen_resolution":[768,1366],"minimum_resolution":1,"item_set":3,"item":79,"test_form":1,"distractor":"md","trial_type":"mars","trial_index":26,"time_elapsed":409105,"internal_node_id":"0.0-16.0-1.0","experiment":"calibration","task_version":"1.0","jspsych_version":"6.3.1","browser_interactions":0},{"rt":null,"stimulus":"<div style=\"font-size:24px;\">Loading puzzle:<br>11 / 16</div>","response":null,"trial_type":"html-keyboard-response","trial_index":27,"time_elapsed":410310,"internal_node_id":"0.0-17.0-0.0","experiment":"calibration","task_version":"1.0","jspsych_version":"6.3.1"},{"puzzle":"../static/img/is3/tf1/tf1_74_M_ss1.jpeg","item_order":[3,1,0,2],"correct":0,"choice":2,"accuracy":0,"rt":20806.89999999944,"screen_resolution":[768,1366],"minimum_resolution":1,"item_set":3,"item":74,"test_form":1,"distractor":"md","trial_type":"mars","trial_index":28,"time_elapsed":431127,"internal_node_id":"0.0-17.0-1.0","experiment":"calibration","task_version":"1.0","jspsych_version":"6.3.1","browser_interactions":0},{"rt":null,"stimulus":"<div style=\"font-size:24px;\">Loading puzzle:<br>12 / 16</div>","response":null,"trial_type":"html-keyboard-response","trial_index":29,"time_elapsed":432331,"internal_node_id":"0.0-18.0-0.0","experiment":"calibration","task_version":"1.0","jspsych_version":"6.3.1"},{"puzzle":"../static/img/is3/tf2/tf2_80_M_ss3.jpeg","item_order":[2,3,1,0],"correct":0,"choice":3,"accuracy":0,"rt":28914,"screen_resolution":[768,1366],"minimum_resolution":1,"item_set":3,"item":80,"test_form":2,"distractor":"pd","trial_type":"mars","trial_index":30,"time_elapsed":461246,"internal_node_id":"0.0-18.0-1.0","experiment":"calibration","task_version":"1.0","jspsych_version":"6.3.1","browser_interactions":0},{"rt":null,"stimulus":"<div style=\"font-size:24px;\">Loading puzzle:<br>13 / 16</div>","response":null,"trial_type":"html-keyboard-response","trial_index":31,"time_elapsed":462451,"internal_node_id":"0.0-19.0-0.0","experiment":"calibration","task_version":"1.0","jspsych_version":"6.3.1"},{"puzzle":"../static/img/is3/tf2/tf2_46_M_ss2.jpeg","item_order":[1,2,3,0],"correct":0,"choice":null,"accuracy":null,"rt":null,"screen_resolution":[768,1366],"minimum_resolution":1,"item_set":3,"item":46,"test_form":2,"distractor":"md","trial_type":"mars","trial_index":32,"time_elapsed":492458,"internal_node_id":"0.0-19.0-1.0","experiment":"calibration","task_version":"1.0","jspsych_version":"6.3.1","browser_interactions":0},{"rt":null,"stimulus":"<div style=\"font-size:24px;\">Loading puzzle:<br>14 / 16</div>","response":null,"trial_type":"html-keyboard-response","trial_index":33,"time_elapsed":493662,"internal_node_id":"0.0-20.0-0.0","experiment":"calibration","task_version":"1.0","jspsych_version":"6.3.1"},{"puzzle":"../static/img/is3/tf1/tf1_75_M_ss2.jpeg","item_order":[2,1,0,3],"correct":0,"choice":0,"accuracy":1,"rt":29669.700000000186,"screen_resolution":[768,1366],"minimum_resolution":1,"item_set":3,"item":75,"test_form":1,"distractor":"pd","trial_type":"mars","trial_index":34,"time_elapsed":523341,"internal_node_id":"0.0-20.0-1.0","experiment":"calibration","task_version":"1.0","jspsych_version":"6.3.1","browser_interactions":0},{"rt":null,"stimulus":"<div style=\"font-size:24px;\">Loading puzzle:<br>15 / 16</div>","response":null,"trial_type":"html-keyboard-response","trial_index":35,"time_elapsed":524547,"internal_node_id":"0.0-21.0-0.0","experiment":"calibration","task_version":"1.0","jspsych_version":"6.3.1"},{"puzzle":"../static/img/is3/tf2/tf2_30_M_ss1.jpeg","item_order":[2,3,1,0],"correct":0,"choice":1,"accuracy":0,"rt":14268.300000000745,"screen_resolution":[768,1366],"minimum_resolution":1,"item_set":3,"item":30,"test_form":2,"distractor":"pd","trial_type":"mars","trial_index":36,"time_elapsed":538820,"internal_node_id":"0.0-21.0-1.0","experiment":"calibration","task_version":"1.0","jspsych_version":"6.3.1","browser_interactions":0},{"rt":null,"stimulus":"<div style=\"font-size:24px;\">Loading puzzle:<br>16 / 16</div>","response":null,"trial_type":"html-keyboard-response","trial_index":37,"time_elapsed":540024,"internal_node_id":"0.0-22.0-0.0","experiment":"calibration","task_version":"1.0","jspsych_version":"6.3.1"},{"puzzle":"../static/img/is3/tf1/tf1_78_M_ss2.jpeg","item_order":[1,2,3,0],"correct":0,"choice":3,"accuracy":0,"rt":12298.599999999627,"screen_resolution":[768,1366],"minimum_resolution":1,"item_set":3,"item":78,"test_form":1,"distractor":"md","trial_type":"mars","trial_index":38,"time_elapsed":552331,"internal_node_id":"0.0-22.0-1.0","experiment":"calibration","task_version":"1.0","jspsych_version":"6.3.1","browser_interactions":0},{"value":[0,2,0],"trial_type":"call-function","trial_index":39,"time_elapsed":552333,"internal_node_id":"0.0-23.0","experiment":"calibration","task_version":"1.0","jspsych_version":"6.3.1"},{"view_history":[{"page_index":0,"viewing_time":10147.100000000559}],"rt":10147.5,"trial_type":"instructions","trial_index":40,"time_elapsed":562481,"internal_node_id":"0.0-24.0","experiment":"calibration","task_version":"1.0","jspsych_version":"6.3.1"},{"rt":64375.799999999814,"responses":{"age":"32","gender-categorical":"Male","gender-free-response":"","ethnicity":"Not Hispanic or Latino","race":["White"],"education":"Master degree or higher","free-response":"It was a challenging task"},"trial_type":"survey-demo","trial_index":41,"time_elapsed":626858,"internal_node_id":"0.0-25.0","experiment":"calibration","task_version":"1.0","jspsych_version":"6.3.1","interactions":"[{\"event\":\"fullscreenenter\",\"trial\":1,\"time\":36998}]"}]