[{"success":true,"timeout":false,"failed_images":[],"failed_audio":[],"failed_video":[],"trial_type":"preload","trial_index":0,"time_elapsed":3823,"internal_node_id":"0.0-0.0","experiment":"calibration","task_version":"1.0","jspsych_version":"6.3.1"},{"success":true,"trial_type":"fullscreen","trial_index":1,"time_elapsed":8835,"internal_node_id":"0.0-1.0","experiment":"calibration","task_version":"1.0","jspsych_version":"6.3.1"},{"view_history":[{"page_index":0,"viewing_time":8834.89999999106},{"page_index":1,"viewing_time":5525},{"page_index":2,"viewing_time":3243.800000011921}],"rt":17605.70000000298,"trial_type":"instructions","trial_index":2,"time_elapsed":26447,"internal_node_id":"0.0-2.0","experiment":"calibration","task_version":"1.0","jspsych_version":"6.3.1"},{"puzzle":"../static/img/practice/pt1_M1.png","item_order":[0,2,3,1],"correct":0,"choice":0,"accuracy":1,"rt":6959.20000000298,"screen_resolution":[864,1536],"minimum_resolution":1,"item_set":"practice","trial_type":"mars","trial_index":3,"time_elapsed":35415,"internal_node_id":"0.0-3.0-0.0","experiment":"calibration","task_version":"1.0","jspsych_version":"6.3.1"},{"puzzle":"../static/img/practice/pt2_M1.png","item_order":[3,1,0,2],"correct":0,"choice":0,"accuracy":1,"rt":3324.9000000059605,"screen_resolution":[864,1536],"minimum_resolution":1,"item_set":"practice","trial_type":"mars","trial_index":4,"time_elapsed":40751,"internal_node_id":"0.0-4.0-0.0","experiment":"calibration","task_version":"1.0","jspsych_version":"6.3.1"},{"puzzle":"../static/img/practice/pt3_M1.png","item_order":[1,3,0,2],"correct":0,"choice":0,"accuracy":1,"rt":2773.2000000029802,"screen_resolution":[864,1536],"minimum_resolution":1,"item_set":"practice","trial_type":"mars","trial_index":5,"time_elapsed":45530,"internal_node_id":"0.0-5.0-0.0","experiment":"calibration","task_version":"1.0","jspsych_version":"6.3.1"},{"view_history":[{"page_index":0,"viewing_time":1640.2000000029802},{"page_index":1,"viewing_time":9348.29999999702}],"rt":10989.300000011921,"trial_type":"instructions","trial_index":6,"time_elapsed":56521,"internal_node_id":"0.0-6.0","experiment":"calibration","task_version":"1.0","jspsych_version":"6.3.1"},{"rt":null,"stimulus":"<div style=\"font-size:24px;\">Loading puzzle:<br>1 / 16</div>","response":null,"trial_type":"html-keyboard-response","trial_index":7,"time_elapsed":57738,"internal_node_id":"0.0-7.0-0.0","experiment":"calibration","task_version":"1.0","jspsych_version":"6.3.1"},{"puzzle":"../static/img/is3/tf1/tf1_39_M_ss2.jpeg","item_order":[0,1,2,3],"correct":0,"choice":0,"accuracy":1,"rt":16606.40000000596,"screen_resolution":[864,1536],"minimum_resolution":1,"item_set":3,"item":39,"test_form":1,"distractor":"pd","trial_type":"mars","trial_index":8,"time_elapsed":74354,"internal_node_id":"0.0-7.0-1.0","experiment":"calibration","task_version":"1.0","jspsych_version":"6.3.1","browser_interactions":0},{"rt":null,"stimulus":"<div style=\"font-size:24px;\">Loading puzzle:<br>2 / 16</div>","response":null,"trial_type":"html-keyboard-response","trial_index":9,"time_elapsed":75565,"internal_node_id":"0.0-8.0-0.0","experiment":"calibration","task_version":"1.0","jspsych_version":"6.3.1"},{"puzzle":"../static/img/is3/tf2/tf2_20_M_ss3.jpeg","item_order":[1,2,0,3],"correct":0,"choice":0,"accuracy":1,"rt":14014.79999999702,"screen_resolution":[864,1536],"minimum_resolution":1,"item_set":3,"item":20,"test_form":2,"distractor":"pd","trial_type":"mars","trial_index":10,"time_elapsed":89587,"internal_node_id":"0.0-8.0-1.0","experiment":"calibration","task_version":"1.0","jspsych_version":"6.3.1","browser_interactions":0},{"rt":null,"stimulus":"<div style=\"font-size:24px;\">Loading puzzle:<br>3 / 16</div>","response":null,"trial_type":"html-keyboard-response","trial_index":11,"time_elapsed":90792,"internal_node_id":"0.0-9.0-0.0","experiment":"calibration","task_version":"1.0","jspsych_version":"6.3.1"},{"puzzle":"../static/img/is3/tf1/tf1_65_M_ss1.jpeg","item_order":[2,1,0,3],"correct":0,"choice":0,"accuracy":1,"rt":7670.5999999940395,"screen_resolution":[864,1536],"minimum_resolution":1,"item_set":3,"item":65,"test_form":1,"distractor":"md","trial_type":"mars","trial_index":12,"time_elapsed":98470,"internal_node_id":"0.0-9.0-1.0","experiment":"calibration","task_version":"1.0","jspsych_version":"6.3.1","browser_interactions":0},{"rt":null,"stimulus":"<div style=\"font-size:24px;\">Loading puzzle:<br>4 / 16</div>","response":null,"trial_type":"html-keyboard-response","trial_index":13,"time_elapsed":99681,"internal_node_id":"0.0-10.0-0.0","experiment":"calibration","task_version":"1.0","jspsych_version":"6.3.1"},{"puzzle":"../static/img/is3/tf2/tf2_49_M_ss2.jpeg","item_order":[3,2,0,1],"correct":0,"choice":0,"accuracy":1,"rt":7153.600000008941,"screen_resolution":[864,1536],"minimum_resolution":1,"item_set":3,"item":49,"test_form":2,"distractor":"md","trial_type":"mars","trial_index":14,"time_elapsed":106843,"internal_node_id":"0.0-10.0-1.0","experiment":"calibration","task_version":"1.0","jspsych_version":"6.3.1","browser_interactions":0},{"rt":null,"stimulus":"<div style=\"font-size:24px;\">Loading puzzle:<br>5 / 16</div>","response":null,"trial_type":"html-keyboard-response","trial_index":15,"time_elapsed":108051,"internal_node_id":"0.0-11.0-0.0","experiment":"calibration","task_version":"1.0","jspsych_version":"6.3.1"},{"puzzle":"../static/img/is3/tf1/tf1_34_M_ss3.jpeg","item_order":[3,1,0,2],"correct":0,"choice":0,"accuracy":1,"rt":19974.79999999702,"screen_resolution":[864,1536],"minimum_resolution":1,"item_set":3,"item":34,"test_form":1,"distractor":"md","trial_type":"mars","trial_index":16,"time_elapsed":128035,"internal_node_id":"0.0-11.0-1.0","experiment":"calibration","task_version":"1.0","jspsych_version":"6.3.1","browser_interactions":0},{"rt":null,"stimulus":"<div style=\"font-size:24px;\">Loading puzzle:<br>6 / 16</div>","response":null,"trial_type":"html-keyboard-response","trial_index":17,"time_elapsed":129238,"internal_node_id":"0.0-12.0-0.0","experiment":"calibration","task_version":"1.0","jspsych_version":"6.3.1"},{"puzzle":"../static/img/is3/tf2/tf2_11_M_ss3.jpeg","item_order":[2,3,1,0],"correct":0,"choice":0,"accuracy":1,"rt":18165.90000000596,"screen_resolution":[864,1536],"minimum_resolution":1,"item_set":3,"item":11,"test_form":2,"distractor":"pd","trial_type":"mars","trial_index":18,"time_elapsed":147416,"internal_node_id":"0.0-12.0-1.0","experiment":"calibration","task_version":"1.0","jspsych_version":"6.3.1","browser_interactions":0},{"rt":null,"stimulus":"<div style=\"font-size:24px;\">Loading puzzle:<br>7 / 16</div>","response":null,"trial_type":"html-keyboard-response","trial_index":19,"time_elapsed":148619,"internal_node_id":"0.0-13.0-0.0","experiment":"calibration","task_version":"1.0","jspsych_version":"6.3.1"},{"puzzle":"../static/img/is3/tf1/tf1_16_M_ss3.jpeg","item_order":[0,2,3,1],"correct":0,"choice":0,"accuracy":1,"rt":14234.70000000298,"screen_resolution":[864,1536],"minimum_resolution":1,"item_set":3,"item":16,"test_form":1,"distractor":"md","trial_type":"mars","trial_index":20,"time_elapsed":162862,"internal_node_id":"0.0-13.0-1.0","experiment":"calibration","task_version":"1.0","jspsych_version":"6.3.1","browser_interactions":0},{"rt":null,"stimulus":"<div style=\"font-size:24px;\">Loading puzzle:<br>8 / 16</div>","response":null,"trial_type":"html-keyboard-response","trial_index":21,"time_elapsed":164071,"internal_node_id":"0.0-14.0-0.0","experiment":"calibration","task_version":"1.0","jspsych_version":"6.3.1"},{"puzzle":"../static/img/is3/tf2/tf2_69_M_ss1.jpeg","item_order":[1,0,3,2],"correct":0,"choice":0,"accuracy":1,"rt":8863.59999999404,"screen_resolution":[864,1536],"minimum_resolution":1,"item_set":3,"item":69,"test_form":2,"distractor":"md","trial_type":"mars","trial_index":22,"time_elapsed":172944,"internal_node_id":"0.0-14.0-1.0","experiment":"calibration","task_version":"1.0","jspsych_version":"6.3.1","browser_interactions":0},{"rt":null,"stimulus":"<div style=\"font-size:24px;\">Loading puzzle:<br>9 / 16</div>","response":null,"trial_type":"html-keyboard-response","trial_index":23,"time_elapsed":174153,"internal_node_id":"0.0-15.0-0.0","experiment":"calibration","task_version":"1.0","jspsych_version":"6.3.1"},{"puzzle":"../static/img/is3/tf2/tf2_53_M_ss3.jpeg","item_order":[2,3,1,0],"correct":0,"choice":2,"accuracy":0,"rt":22085.59999999404,"screen_resolution":[864,1536],"minimum_resolution":1,"item_set":3,"item":53,"test_form":2,"distractor":"md","trial_type":"mars","trial_index":24,"time_elapsed":196248,"internal_node_id":"0.0-15.0-1.0","experiment":"calibration","task_version":"1.0","jspsych_version":"6.3.1","browser_interactions":0},{"rt":null,"stimulus":"<div style=\"font-size:24px;\">Loading puzzle:<br>10 / 16</div>","response":null,"trial_type":"html-keyboard-response","trial_index":25,"time_elapsed":197452,"internal_node_id":"0.0-16.0-0.0","experiment":"calibration","task_version":"1.0","jspsych_version":"6.3.1"},{"puzzle":"../static/img/is3/tf1/tf1_73_M_ss3.jpeg","item_order":[1,2,0,3],"correct":0,"choice":0,"accuracy":1,"rt":21366.09999999404,"screen_resolution":[864,1536],"minimum_resolution":1,"item_set":3,"item":73,"test_form":1,"distractor":"md","trial_type":"mars","trial_index":26,"time_elapsed":218831,"internal_node_id":"0.0-16.0-1.0","experiment":"calibration","task_version":"1.0","jspsych_version":"6.3.1","browser_interactions":0},{"rt":null,"stimulus":"<div style=\"font-size:24px;\">Loading puzzle:<br>11 / 16</div>","response":null,"trial_type":"html-keyboard-response","trial_index":27,"time_elapsed":220039,"internal_node_id":"0.0-17.0-0.0","experiment":"calibration","task_version":"1.0","jspsych_version":"6.3.1"},{"puzzle":"../static/img/is3/tf2/tf2_52_M_ss2.jpeg","item_order":[3,0,2,1],"correct":0,"choice":0,"accuracy":1,"rt":16216.5,"screen_resolution":[864,1536],"minimum_resolution":1,"item_set":3,"item":52,"test_form":2,"distractor":"md","trial_type":"mars","trial_index":28,"time_elapsed":236265,"internal_node_id":"0.0-17.0-1.0","experiment":"calibration","task_version":"1.0","jspsych_version":"6.3.1","browser_interactions":0},{"rt":null,"stimulus":"<div style=\"font-size:24px;\">Loading puzzle:<br>12 / 16</div>","response":null,"trial_type":"html-keyboard-response","trial_index":29,"time_elapsed":237469,"internal_node_id":"0.0-18.0-0.0","experiment":"calibration","task_version":"1.0","jspsych_version":"6.3.1"},{"puzzle":"../static/img/is3/tf1/tf1_59_M_ss1.jpeg","item_order":[1,0,3,2],"correct":0,"choice":0,"accuracy":1,"rt":27595.09999999404,"screen_resolution":[864,1536],"minimum_resolution":1,"item_set":3,"item":59,"test_form":1,"distractor":"md","trial_type":"mars","trial_index":30,"time_elapsed":265073,"internal_node_id":"0.0-18.0-1.0","experiment":"calibration","task_version":"1.0","jspsych_version":"6.3.1","browser_interactions":0},{"rt":null,"stimulus":"<div style=\"font-size:24px;\">Loading puzzle:<br>13 / 16</div>","response":null,"trial_type":"html-keyboard-response","trial_index":31,"time_elapsed":266281,"internal_node_id":"0.0-19.0-0.0","experiment":"calibration","task_version":"1.0","jspsych_version":"6.3.1"},{"puzzle":"../static/img/is3/tf2/tf2_76_M_ss2.jpeg","item_order":[2,1,0,3],"correct":0,"choice":0,"accuracy":1,"rt":24004.10000000894,"screen_resolution":[864,1536],"minimum_resolution":1,"item_set":3,"item":76,"test_form":2,"distractor":"pd","trial_type":"mars","trial_index":32,"time_elapsed":290288,"internal_node_id":"0.0-19.0-1.0","experiment":"calibration","task_version":"1.0","jspsych_version":"6.3.1","browser_interactions":0},{"rt":null,"stimulus":"<div style=\"font-size:24px;\">Loading puzzle:<br>14 / 16</div>","response":null,"trial_type":"html-keyboard-response","trial_index":33,"time_elapsed":291498,"internal_node_id":"0.0-20.0-0.0","experiment":"calibration","task_version":"1.0","jspsych_version":"6.3.1"},{"puzzle":"../static/img/is3/tf1/tf1_64_M_ss3.jpeg","item_order":[0,1,2,3],"correct":0,"choice":0,"accuracy":1,"rt":22167,"screen_resolution":[864,1536],"minimum_resolution":1,"item_set":3,"item":64,"test_form":1,"distractor":"pd","trial_type":"mars","trial_index":34,"time_elapsed":313675,"internal_node_id":"0.0-20.0-1.0","experiment":"calibration","task_version":"1.0","jspsych_version":"6.3.1","browser_interactions":0},{"rt":null,"stimulus":"<div style=\"font-size:24px;\">Loading puzzle:<br>15 / 16</div>","response":null,"trial_type":"html-keyboard-response","trial_index":35,"time_elapsed":314885,"internal_node_id":"0.0-21.0-0.0","experiment":"calibration","task_version":"1.0","jspsych_version":"6.3.1"},{"puzzle":"../static/img/is3/tf2/tf2_24_M_ss1.jpeg","item_order":[3,0,2,1],"correct":0,"choice":2,"accuracy":0,"rt":18926.79999999702,"screen_resolution":[864,1536],"minimum_resolution":1,"item_set":3,"item":24,"test_form":2,"distractor":"md","trial_type":"mars","trial_index":36,"time_elapsed":333820,"internal_node_id":"0.0-21.0-1.0","experiment":"calibration","task_version":"1.0","jspsych_version":"6.3.1","browser_interactions":0},{"rt":null,"stimulus":"<div style=\"font-size:24px;\">Loading puzzle:<br>16 / 16</div>","response":null,"trial_type":"html-keyboard-response","trial_index":37,"time_elapsed":335030,"internal_node_id":"0.0-22.0-0.0","experiment":"calibration","task_version":"1.0","jspsych_version":"6.3.1"},{"puzzle":"../static/img/is3/tf1/tf1_35_M_ss1.jpeg","item_order":[0,3,1,2],"correct":0,"choice":0,"accuracy":1,"rt":13009.699999988079,"screen_resolution":[864,1536],"minimum_resolution":1,"item_set":3,"item":35,"test_form":1,"distractor":"pd","trial_type":"mars","trial_index":38,"time_elapsed":348051,"internal_node_id":"0.0-22.0-1.0","experiment":"calibration","task_version":"1.0","jspsych_version":"6.3.1","browser_interactions":0},{"value":[0,0,0],"trial_type":"call-function","trial_index":39,"time_elapsed":348053,"internal_node_id":"0.0-23.0","experiment":"calibration","task_version":"1.0","jspsych_version":"6.3.1"},{"view_history":[{"page_index":0,"viewing_time":1970.2000000029802}],"rt":1971,"trial_type":"instructions","trial_index":40,"time_elapsed":350028,"internal_node_id":"0.0-24.0","experiment":"calibration","task_version":"1.0","jspsych_version":"6.3.1"},{"rt":17590.59999999404,"responses":{"age":"26","gender-categorical":"Male","gender-free-response":"","ethnicity":"Not Hispanic or Latino","race":["White"],"education":"Bachelor degree","free-response":""},"trial_type":"survey-demo","trial_index":41,"time_elapsed":367624,"internal_node_id":"0.0-25.0","experiment":"calibration","task_version":"1.0","jspsych_version":"6.3.1","interactions":"[{\"event\":\"fullscreenenter\",\"trial\":1,\"time\":7871}]"}]