[{"success":true,"timeout":false,"failed_images":[],"failed_audio":[],"failed_video":[],"trial_type":"preload","trial_index":0,"time_elapsed":21507,"internal_node_id":"0.0-0.0","experiment":"calibration","task_version":"1.0","jspsych_version":"6.3.1"},{"success":true,"trial_type":"fullscreen","trial_index":1,"time_elapsed":29198,"internal_node_id":"0.0-1.0","experiment":"calibration","task_version":"1.0","jspsych_version":"6.3.1"},{"view_history":[{"page_index":0,"viewing_time":30558.599999964237},{"page_index":1,"viewing_time":9491.100000023842},{"page_index":2,"viewing_time":1793.8999999761581}],"rt":41844.39999997616,"trial_type":"instructions","trial_index":2,"time_elapsed":71050,"internal_node_id":"0.0-3.0","experiment":"calibration","task_version":"1.0","jspsych_version":"6.3.1"},{"puzzle":"../static/img/practice/pt1_M1.png","item_order":[0,1,3,2],"correct":0,"choice":0,"accuracy":1,"rt":5831.199999988079,"screen_resolution":[1007,1920],"minimum_resolution":1,"item_set":"practice","trial_type":"mars","trial_index":3,"time_elapsed":78893,"internal_node_id":"0.0-4.0-0.0","experiment":"calibration","task_version":"1.0","jspsych_version":"6.3.1"},{"puzzle":"../static/img/practice/pt2_M1.png","item_order":[2,3,1,0],"correct":0,"choice":0,"accuracy":1,"rt":2576.099999964237,"screen_resolution":[1007,1920],"minimum_resolution":1,"item_set":"practice","trial_type":"mars","trial_index":4,"time_elapsed":83483,"internal_node_id":"0.0-5.0-0.0","experiment":"calibration","task_version":"1.0","jspsych_version":"6.3.1"},{"puzzle":"../static/img/practice/pt3_M1.png","item_order":[1,0,3,2],"correct":0,"choice":0,"accuracy":1,"rt":1826.7999999523163,"screen_resolution":[1007,1920],"minimum_resolution":1,"item_set":"practice","trial_type":"mars","trial_index":5,"time_elapsed":87322,"internal_node_id":"0.0-6.0-0.0","experiment":"calibration","task_version":"1.0","jspsych_version":"6.3.1"},{"view_history":[{"page_index":0,"viewing_time":1409.8999999761581},{"page_index":1,"viewing_time":7524.699999988079}],"rt":8934.899999976158,"trial_type":"instructions","trial_index":6,"time_elapsed":96259,"internal_node_id":"0.0-7.0","experiment":"calibration","task_version":"1.0","jspsych_version":"6.3.1"},{"rt":null,"stimulus":"<div style=\"font-size:24px;\">Loading puzzle:<br>1 / 16</div>","response":null,"trial_type":"html-keyboard-response","trial_index":7,"time_elapsed":97483,"internal_node_id":"0.0-8.0-1.0","experiment":"calibration","task_version":"1.0","jspsych_version":"6.3.1"},{"puzzle":"../static/img/is3/tf3/tf3_47_M_ss2.jpeg","item_order":[3,2,1,0],"correct":0,"choice":2,"accuracy":0,"rt":9278,"screen_resolution":[1007,1920],"minimum_resolution":1,"item_set":3,"item":47,"test_form":3,"distractor":"pd","trial_type":"mars","trial_index":8,"time_elapsed":106771,"internal_node_id":"0.0-8.0-2.0","experiment":"calibration","task_version":"1.0","jspsych_version":"6.3.1","browser_interactions":0},{"rt":null,"stimulus":"<div style=\"font-size:24px;\">Loading puzzle:<br>2 / 16</div>","response":null,"trial_type":"html-keyboard-response","trial_index":9,"time_elapsed":107982,"internal_node_id":"0.0-9.0-1.0","experiment":"calibration","task_version":"1.0","jspsych_version":"6.3.1"},{"puzzle":"../static/img/is3/tf3/tf3_20_M_ss2.jpeg","item_order":[0,2,3,1],"correct":0,"choice":0,"accuracy":1,"rt":10383.900000035763,"screen_resolution":[1007,1920],"minimum_resolution":1,"item_set":3,"item":20,"test_form":3,"distractor":"md","trial_type":"mars","trial_index":10,"time_elapsed":118373,"internal_node_id":"0.0-9.0-2.0","experiment":"calibration","task_version":"1.0","jspsych_version":"6.3.1","browser_interactions":0},{"rt":null,"stimulus":"<div style=\"font-size:24px;\">Loading puzzle:<br>3 / 16</div>","response":null,"trial_type":"html-keyboard-response","trial_index":11,"time_elapsed":119592,"internal_node_id":"0.0-10.0-1.0","experiment":"calibration","task_version":"1.0","jspsych_version":"6.3.1"},{"puzzle":"../static/img/is3/tf3/tf3_65_M_ss2.jpeg","item_order":[1,0,3,2],"correct":0,"choice":1,"accuracy":0,"rt":21315.80000001192,"screen_resolution":[1007,1920],"minimum_resolution":1,"item_set":3,"item":65,"test_form":3,"distractor":"md","trial_type":"mars","trial_index":12,"time_elapsed":140919,"internal_node_id":"0.0-10.0-2.0","experiment":"calibration","task_version":"1.0","jspsych_version":"6.3.1","browser_interactions":0},{"rt":null,"stimulus":"<div style=\"font-size:24px;\">Loading puzzle:<br>4 / 16</div>","response":null,"trial_type":"html-keyboard-response","trial_index":13,"time_elapsed":142127,"internal_node_id":"0.0-11.0-1.0","experiment":"calibration","task_version":"1.0","jspsych_version":"6.3.1"},{"puzzle":"../static/img/is3/tf3/tf3_49_M_ss1.jpeg","item_order":[3,2,0,1],"correct":0,"choice":0,"accuracy":1,"rt":8310.100000023842,"screen_resolution":[1007,1920],"minimum_resolution":1,"item_set":3,"item":49,"test_form":3,"distractor":"pd","trial_type":"mars","trial_index":14,"time_elapsed":150446,"internal_node_id":"0.0-11.0-2.0","experiment":"calibration","task_version":"1.0","jspsych_version":"6.3.1","browser_interactions":0},{"rt":null,"stimulus":"<div style=\"font-size:24px;\">Loading puzzle:<br>5 / 16</div>","response":null,"trial_type":"html-keyboard-response","trial_index":15,"time_elapsed":151658,"internal_node_id":"0.0-12.0-1.0","experiment":"calibration","task_version":"1.0","jspsych_version":"6.3.1"},{"puzzle":"../static/img/is3/tf3/tf3_18_M_ss3.jpeg","item_order":[3,2,0,1],"correct":0,"choice":0,"accuracy":1,"rt":16753.399999976158,"screen_resolution":[1007,1920],"minimum_resolution":1,"item_set":3,"item":18,"test_form":3,"distractor":"pd","trial_type":"mars","trial_index":16,"time_elapsed":168416,"internal_node_id":"0.0-12.0-2.0","experiment":"calibration","task_version":"1.0","jspsych_version":"6.3.1","browser_interactions":0},{"rt":null,"stimulus":"<div style=\"font-size:24px;\">Loading puzzle:<br>6 / 16</div>","response":null,"trial_type":"html-keyboard-response","trial_index":17,"time_elapsed":169627,"internal_node_id":"0.0-13.0-1.0","experiment":"calibration","task_version":"1.0","jspsych_version":"6.3.1"},{"puzzle":"../static/img/is3/tf3/tf3_31_M_ss1.jpeg","item_order":[3,0,1,2],"correct":0,"choice":1,"accuracy":0,"rt":25766.799999952316,"screen_resolution":[1007,1920],"minimum_resolution":1,"item_set":3,"item":31,"test_form":3,"distractor":"md","trial_type":"mars","trial_index":18,"time_elapsed":195396,"internal_node_id":"0.0-13.0-2.0","experiment":"calibration","task_version":"1.0","jspsych_version":"6.3.1","browser_interactions":0},{"rt":null,"stimulus":"<div style=\"font-size:24px;\">Loading puzzle:<br>7 / 16</div>","response":null,"trial_type":"html-keyboard-response","trial_index":19,"time_elapsed":196605,"internal_node_id":"0.0-14.0-1.0","experiment":"calibration","task_version":"1.0","jspsych_version":"6.3.1"},{"puzzle":"../static/img/is3/tf3/tf3_56_M_ss2.jpeg","item_order":[2,0,3,1],"correct":0,"choice":1,"accuracy":0,"rt":25440.19999998808,"screen_resolution":[1007,1920],"minimum_resolution":1,"item_set":3,"item":56,"test_form":3,"distractor":"pd","trial_type":"mars","trial_index":20,"time_elapsed":222057,"internal_node_id":"0.0-14.0-2.0","experiment":"calibration","task_version":"1.0","jspsych_version":"6.3.1","browser_interactions":0},{"rt":null,"stimulus":"<div style=\"font-size:24px;\">Loading puzzle:<br>8 / 16</div>","response":null,"trial_type":"html-keyboard-response","trial_index":21,"time_elapsed":223266,"internal_node_id":"0.0-15.0-1.0","experiment":"calibration","task_version":"1.0","jspsych_version":"6.3.1"},{"puzzle":"../static/img/is3/tf3/tf3_77_M_ss2.jpeg","item_order":[0,1,2,3],"correct":0,"choice":0,"accuracy":1,"rt":14211.700000047684,"screen_resolution":[1007,1920],"minimum_resolution":1,"item_set":3,"item":77,"test_form":3,"distractor":"md","trial_type":"mars","trial_index":22,"time_elapsed":237487,"internal_node_id":"0.0-15.0-2.0","experiment":"calibration","task_version":"1.0","jspsych_version":"6.3.1","browser_interactions":0},{"rt":null,"stimulus":"<div style=\"font-size:24px;\">Loading puzzle:<br>9 / 16</div>","response":null,"trial_type":"html-keyboard-response","trial_index":23,"time_elapsed":238705,"internal_node_id":"0.0-16.0-1.0","experiment":"calibration","task_version":"1.0","jspsych_version":"6.3.1"},{"puzzle":"../static/img/is3/tf3/tf3_40_M_ss1.jpeg","item_order":[1,0,2,3],"correct":0,"choice":0,"accuracy":1,"rt":14965.100000023842,"screen_resolution":[1007,1920],"minimum_resolution":1,"item_set":3,"item":40,"test_form":3,"distractor":"pd","trial_type":"mars","trial_index":24,"time_elapsed":253678,"internal_node_id":"0.0-16.0-2.0","experiment":"calibration","task_version":"1.0","jspsych_version":"6.3.1","browser_interactions":0},{"rt":null,"stimulus":"<div style=\"font-size:24px;\">Loading puzzle:<br>10 / 16</div>","response":null,"trial_type":"html-keyboard-response","trial_index":25,"time_elapsed":254887,"internal_node_id":"0.0-17.0-1.0","experiment":"calibration","task_version":"1.0","jspsych_version":"6.3.1"},{"puzzle":"../static/img/is3/tf3/tf3_73_M_ss1.jpeg","item_order":[3,1,0,2],"correct":0,"choice":0,"accuracy":1,"rt":14311.300000011921,"screen_resolution":[1007,1920],"minimum_resolution":1,"item_set":3,"item":73,"test_form":3,"distractor":"pd","trial_type":"mars","trial_index":26,"time_elapsed":269207,"internal_node_id":"0.0-17.0-2.0","experiment":"calibration","task_version":"1.0","jspsych_version":"6.3.1","browser_interactions":0},{"rt":null,"stimulus":"<div style=\"font-size:24px;\">Loading puzzle:<br>11 / 16</div>","response":null,"trial_type":"html-keyboard-response","trial_index":27,"time_elapsed":270418,"internal_node_id":"0.0-18.0-1.0","experiment":"calibration","task_version":"1.0","jspsych_version":"6.3.1"},{"puzzle":"../static/img/is3/tf3/tf3_52_M_ss1.jpeg","item_order":[1,3,2,0],"correct":0,"choice":2,"accuracy":0,"rt":8108,"screen_resolution":[1007,1920],"minimum_resolution":1,"item_set":3,"item":52,"test_form":3,"distractor":"pd","trial_type":"mars","trial_index":28,"time_elapsed":278537,"internal_node_id":"0.0-18.0-2.0","experiment":"calibration","task_version":"1.0","jspsych_version":"6.3.1","browser_interactions":0},{"rt":null,"stimulus":"<div style=\"font-size:24px;\">Loading puzzle:<br>12 / 16</div>","response":null,"trial_type":"html-keyboard-response","trial_index":29,"time_elapsed":279749,"internal_node_id":"0.0-19.0-1.0","experiment":"calibration","task_version":"1.0","jspsych_version":"6.3.1"},{"puzzle":"../static/img/is3/tf3/tf3_74_M_ss2.jpeg","item_order":[1,0,2,3],"correct":0,"choice":2,"accuracy":0,"rt":20288.099999964237,"screen_resolution":[1007,1920],"minimum_resolution":1,"item_set":3,"item":74,"test_form":3,"distractor":"md","trial_type":"mars","trial_index":30,"time_elapsed":300048,"internal_node_id":"0.0-19.0-2.0","experiment":"calibration","task_version":"1.0","jspsych_version":"6.3.1","browser_interactions":0},{"rt":null,"stimulus":"<div style=\"font-size:24px;\">Loading puzzle:<br>13 / 16</div>","response":null,"trial_type":"html-keyboard-response","trial_index":31,"time_elapsed":301258,"internal_node_id":"0.0-20.0-1.0","experiment":"calibration","task_version":"1.0","jspsych_version":"6.3.1"},{"puzzle":"../static/img/is3/tf3/tf3_75_M_ss3.jpeg","item_order":[1,2,3,0],"correct":0,"choice":0,"accuracy":1,"rt":24114.69999998808,"screen_resolution":[1007,1920],"minimum_resolution":1,"item_set":3,"item":75,"test_form":3,"distractor":"pd","trial_type":"mars","trial_index":32,"time_elapsed":325373,"internal_node_id":"0.0-20.0-2.0","experiment":"calibration","task_version":"1.0","jspsych_version":"6.3.1","browser_interactions":0},{"rt":null,"stimulus":"<div style=\"font-size:24px;\">Loading puzzle:<br>14 / 16</div>","response":null,"trial_type":"html-keyboard-response","trial_index":33,"time_elapsed":326584,"internal_node_id":"0.0-21.0-1.0","experiment":"calibration","task_version":"1.0","jspsych_version":"6.3.1"},{"puzzle":"../static/img/is3/tf3/tf3_76_M_ss1.jpeg","item_order":[1,2,0,3],"correct":0,"choice":3,"accuracy":0,"rt":2176.399999976158,"screen_resolution":[1007,1920],"minimum_resolution":1,"item_set":3,"item":76,"test_form":3,"distractor":"md","trial_type":"mars","trial_index":34,"time_elapsed":328772,"internal_node_id":"0.0-21.0-2.0","experiment":"calibration","task_version":"1.0","jspsych_version":"6.3.1","browser_interactions":0},{"rt":null,"stimulus":"<div style=\"font-size:24px;\">Loading puzzle:<br>15 / 16</div>","response":null,"trial_type":"html-keyboard-response","trial_index":35,"time_elapsed":329978,"internal_node_id":"0.0-22.0-1.0","experiment":"calibration","task_version":"1.0","jspsych_version":"6.3.1"},{"puzzle":"../static/img/is3/tf3/tf3_35_M_ss2.jpeg","item_order":[0,2,3,1],"correct":0,"choice":2,"accuracy":0,"rt":3089.600000023842,"screen_resolution":[1007,1920],"minimum_resolution":1,"item_set":3,"item":35,"test_form":3,"distractor":"pd","trial_type":"mars","trial_index":36,"time_elapsed":333073,"internal_node_id":"0.0-22.0-2.0","experiment":"calibration","task_version":"1.0","jspsych_version":"6.3.1","browser_interactions":0},{"rt":null,"stimulus":"<div style=\"font-size:24px;\">Loading puzzle:<br>16 / 16</div>","response":null,"trial_type":"html-keyboard-response","trial_index":37,"time_elapsed":334282,"internal_node_id":"0.0-23.0-1.0","experiment":"calibration","task_version":"1.0","jspsych_version":"6.3.1"},{"puzzle":"../static/img/is3/tf3/tf3_24_M_ss3.jpeg","item_order":[3,0,2,1],"correct":0,"choice":2,"accuracy":0,"rt":1766.5,"screen_resolution":[1007,1920],"minimum_resolution":1,"item_set":3,"item":24,"test_form":3,"distractor":"pd","trial_type":"mars","trial_index":38,"time_elapsed":336060,"internal_node_id":"0.0-23.0-2.0","experiment":"calibration","task_version":"1.0","jspsych_version":"6.3.1","browser_interactions":0},{"value":[2,0,0],"trial_type":"call-function","trial_index":39,"time_elapsed":336061,"internal_node_id":"0.0-24.0","experiment":"calibration","task_version":"1.0","jspsych_version":"6.3.1"},{"view_history":[{"page_index":0,"viewing_time":2435.800000011921}],"rt":2436.300000011921,"trial_type":"instructions","trial_index":40,"time_elapsed":338498,"internal_node_id":"0.0-25.0","experiment":"calibration","task_version":"1.0","jspsych_version":"6.3.1"},{"rt":17527.30000001192,"responses":{"age":"41","gender-categorical":"Male","gender-free-response":"","ethnicity":"Not Hispanic or Latino","race":["White"],"education":"Master degree or higher","free-response":""},"trial_type":"survey-demo","trial_index":41,"time_elapsed":356028,"internal_node_id":"0.0-26.0","experiment":"calibration","task_version":"1.0","jspsych_version":"6.3.1","interactions":"[{\"event\":\"blur\",\"trial\":0,\"time\":13931},{\"event\":\"focus\",\"trial\":1,\"time\":25335},{\"event\":\"fullscreenenter\",\"trial\":1,\"time\":28224},{\"event\":\"fullscreenexit\",\"trial\":2,\"time\":46027}]"}]