[{"success":true,"timeout":false,"failed_images":[],"failed_audio":[],"failed_video":[],"trial_type":"preload","trial_index":0,"time_elapsed":8943,"internal_node_id":"0.0-0.0","experiment":"calibration","task_version":"1.0","jspsych_version":"6.3.1"},{"success":true,"trial_type":"fullscreen","trial_index":1,"time_elapsed":11982,"internal_node_id":"0.0-1.0","experiment":"calibration","task_version":"1.0","jspsych_version":"6.3.1"},{"view_history":[{"page_index":0,"viewing_time":12022.999999999998},{"page_index":1,"viewing_time":8101},{"page_index":2,"viewing_time":2524}],"rt":22648,"trial_type":"instructions","trial_index":2,"time_elapsed":34634,"internal_node_id":"0.0-3.0","experiment":"calibration","task_version":"1.0","jspsych_version":"6.3.1"},{"puzzle":"../static/img/practice/pt1_M1.png","item_order":[1,3,0,2],"correct":0,"choice":0,"accuracy":1,"rt":7459,"screen_resolution":[1120,1792],"minimum_resolution":1,"item_set":"practice","trial_type":"mars","trial_index":3,"time_elapsed":44097,"internal_node_id":"0.0-4.0-0.0","experiment":"calibration","task_version":"1.0","jspsych_version":"6.3.1"},{"puzzle":"../static/img/practice/pt2_M1.png","item_order":[2,3,1,0],"correct":0,"choice":0,"accuracy":1,"rt":2709.0000000000073,"screen_resolution":[1120,1792],"minimum_resolution":1,"item_set":"practice","trial_type":"mars","trial_index":4,"time_elapsed":48822,"internal_node_id":"0.0-5.0-0.0","experiment":"calibration","task_version":"1.0","jspsych_version":"6.3.1"},{"puzzle":"../static/img/practice/pt3_M1.png","item_order":[0,2,3,1],"correct":0,"choice":0,"accuracy":1,"rt":3435,"screen_resolution":[1120,1792],"minimum_resolution":1,"item_set":"practice","trial_type":"mars","trial_index":5,"time_elapsed":54274,"internal_node_id":"0.0-6.0-0.0","experiment":"calibration","task_version":"1.0","jspsych_version":"6.3.1"},{"view_history":[{"page_index":0,"viewing_time":1486},{"page_index":1,"viewing_time":10334}],"rt":11820,"trial_type":"instructions","trial_index":6,"time_elapsed":66109,"internal_node_id":"0.0-7.0","experiment":"calibration","task_version":"1.0","jspsych_version":"6.3.1"},{"rt":null,"stimulus":"<div style=\"font-size:24px;\">Loading puzzle:<br>1 / 16</div>","response":null,"trial_type":"html-keyboard-response","trial_index":7,"time_elapsed":67313,"internal_node_id":"0.0-8.0-1.0","experiment":"calibration","task_version":"1.0","jspsych_version":"6.3.1"},{"puzzle":"../static/img/is3/tf3/tf3_20_M_ss2.jpeg","item_order":[0,3,1,2],"correct":0,"choice":0,"accuracy":1,"rt":15280,"screen_resolution":[1120,1792],"minimum_resolution":1,"item_set":3,"item":20,"test_form":3,"distractor":"md","trial_type":"mars","trial_index":8,"time_elapsed":82595,"internal_node_id":"0.0-8.0-2.0","experiment":"calibration","task_version":"1.0","jspsych_version":"6.3.1","browser_interactions":0},{"rt":null,"stimulus":"<div style=\"font-size:24px;\">Loading puzzle:<br>2 / 16</div>","response":null,"trial_type":"html-keyboard-response","trial_index":9,"time_elapsed":83813,"internal_node_id":"0.0-9.0-1.0","experiment":"calibration","task_version":"1.0","jspsych_version":"6.3.1"},{"puzzle":"../static/img/is3/tf3/tf3_39_M_ss3.jpeg","item_order":[3,0,2,1],"correct":0,"choice":0,"accuracy":1,"rt":27840,"screen_resolution":[1120,1792],"minimum_resolution":1,"item_set":3,"item":39,"test_form":3,"distractor":"md","trial_type":"mars","trial_index":10,"time_elapsed":111656,"internal_node_id":"0.0-9.0-2.0","experiment":"calibration","task_version":"1.0","jspsych_version":"6.3.1","browser_interactions":0},{"rt":null,"stimulus":"<div style=\"font-size:24px;\">Loading puzzle:<br>3 / 16</div>","response":null,"trial_type":"html-keyboard-response","trial_index":11,"time_elapsed":112873,"internal_node_id":"0.0-10.0-1.0","experiment":"calibration","task_version":"1.0","jspsych_version":"6.3.1"},{"puzzle":"../static/img/is3/tf3/tf3_51_M_ss3.jpeg","item_order":[0,3,2,1],"correct":0,"choice":0,"accuracy":1,"rt":10033,"screen_resolution":[1120,1792],"minimum_resolution":1,"item_set":3,"item":51,"test_form":3,"distractor":"pd","trial_type":"mars","trial_index":12,"time_elapsed":122908,"internal_node_id":"0.0-10.0-2.0","experiment":"calibration","task_version":"1.0","jspsych_version":"6.3.1","browser_interactions":0},{"rt":null,"stimulus":"<div style=\"font-size:24px;\">Loading puzzle:<br>4 / 16</div>","response":null,"trial_type":"html-keyboard-response","trial_index":13,"time_elapsed":124124,"internal_node_id":"0.0-11.0-1.0","experiment":"calibration","task_version":"1.0","jspsych_version":"6.3.1"},{"puzzle":"../static/img/is3/tf3/tf3_71_M_ss2.jpeg","item_order":[1,0,2,3],"correct":0,"choice":0,"accuracy":1,"rt":10332.000000000015,"screen_resolution":[1120,1792],"minimum_resolution":1,"item_set":3,"item":71,"test_form":3,"distractor":"md","trial_type":"mars","trial_index":14,"time_elapsed":134459,"internal_node_id":"0.0-11.0-2.0","experiment":"calibration","task_version":"1.0","jspsych_version":"6.3.1","browser_interactions":0},{"rt":null,"stimulus":"<div style=\"font-size:24px;\">Loading puzzle:<br>5 / 16</div>","response":null,"trial_type":"html-keyboard-response","trial_index":15,"time_elapsed":135676,"internal_node_id":"0.0-12.0-1.0","experiment":"calibration","task_version":"1.0","jspsych_version":"6.3.1"},{"puzzle":"../static/img/is3/tf3/tf3_13_M_ss1.jpeg","item_order":[3,1,0,2],"correct":0,"choice":0,"accuracy":1,"rt":17543.99999999997,"screen_resolution":[1120,1792],"minimum_resolution":1,"item_set":3,"item":13,"test_form":3,"distractor":"pd","trial_type":"mars","trial_index":16,"time_elapsed":153223,"internal_node_id":"0.0-12.0-2.0","experiment":"calibration","task_version":"1.0","jspsych_version":"6.3.1","browser_interactions":0},{"rt":null,"stimulus":"<div style=\"font-size:24px;\">Loading puzzle:<br>6 / 16</div>","response":null,"trial_type":"html-keyboard-response","trial_index":17,"time_elapsed":154440,"internal_node_id":"0.0-13.0-1.0","experiment":"calibration","task_version":"1.0","jspsych_version":"6.3.1"},{"puzzle":"../static/img/is3/tf3/tf3_37_M_ss1.jpeg","item_order":[3,0,2,1],"correct":0,"choice":0,"accuracy":1,"rt":21384,"screen_resolution":[1120,1792],"minimum_resolution":1,"item_set":3,"item":37,"test_form":3,"distractor":"pd","trial_type":"mars","trial_index":18,"time_elapsed":175826,"internal_node_id":"0.0-13.0-2.0","experiment":"calibration","task_version":"1.0","jspsych_version":"6.3.1","browser_interactions":0},{"rt":null,"stimulus":"<div style=\"font-size:24px;\">Loading puzzle:<br>7 / 16</div>","response":null,"trial_type":"html-keyboard-response","trial_index":19,"time_elapsed":177043,"internal_node_id":"0.0-14.0-1.0","experiment":"calibration","task_version":"1.0","jspsych_version":"6.3.1"},{"puzzle":"../static/img/is3/tf3/tf3_69_M_ss3.jpeg","item_order":[1,2,3,0],"correct":0,"choice":0,"accuracy":1,"rt":13785,"screen_resolution":[1120,1792],"minimum_resolution":1,"item_set":3,"item":69,"test_form":3,"distractor":"md","trial_type":"mars","trial_index":20,"time_elapsed":190830,"internal_node_id":"0.0-14.0-2.0","experiment":"calibration","task_version":"1.0","jspsych_version":"6.3.1","browser_interactions":0},{"rt":null,"stimulus":"<div style=\"font-size:24px;\">Loading puzzle:<br>8 / 16</div>","response":null,"trial_type":"html-keyboard-response","trial_index":21,"time_elapsed":192048,"internal_node_id":"0.0-15.0-1.0","experiment":"calibration","task_version":"1.0","jspsych_version":"6.3.1"},{"puzzle":"../static/img/is3/tf3/tf3_17_M_ss2.jpeg","item_order":[1,0,3,2],"correct":0,"choice":0,"accuracy":1,"rt":25566,"screen_resolution":[1120,1792],"minimum_resolution":1,"item_set":3,"item":17,"test_form":3,"distractor":"pd","trial_type":"mars","trial_index":22,"time_elapsed":217616,"internal_node_id":"0.0-15.0-2.0","experiment":"calibration","task_version":"1.0","jspsych_version":"6.3.1","browser_interactions":0},{"rt":null,"stimulus":"<div style=\"font-size:24px;\">Loading puzzle:<br>9 / 16</div>","response":null,"trial_type":"html-keyboard-response","trial_index":23,"time_elapsed":218834,"internal_node_id":"0.0-16.0-1.0","experiment":"calibration","task_version":"1.0","jspsych_version":"6.3.1"},{"puzzle":"../static/img/is3/tf3/tf3_42_M_ss3.jpeg","item_order":[3,1,2,0],"correct":0,"choice":0,"accuracy":1,"rt":13592.00000000003,"screen_resolution":[1120,1792],"minimum_resolution":1,"item_set":3,"item":42,"test_form":3,"distractor":"pd","trial_type":"mars","trial_index":24,"time_elapsed":232428,"internal_node_id":"0.0-16.0-2.0","experiment":"calibration","task_version":"1.0","jspsych_version":"6.3.1","browser_interactions":0},{"rt":null,"stimulus":"<div style=\"font-size:24px;\">Loading puzzle:<br>10 / 16</div>","response":null,"trial_type":"html-keyboard-response","trial_index":25,"time_elapsed":233643,"internal_node_id":"0.0-17.0-1.0","experiment":"calibration","task_version":"1.0","jspsych_version":"6.3.1"},{"puzzle":"../static/img/is3/tf3/tf3_73_M_ss1.jpeg","item_order":[2,3,1,0],"correct":0,"choice":0,"accuracy":1,"rt":26846,"screen_resolution":[1120,1792],"minimum_resolution":1,"item_set":3,"item":73,"test_form":3,"distractor":"pd","trial_type":"mars","trial_index":26,"time_elapsed":260491,"internal_node_id":"0.0-17.0-2.0","experiment":"calibration","task_version":"1.0","jspsych_version":"6.3.1","browser_interactions":0},{"rt":null,"stimulus":"<div style=\"font-size:24px;\">Loading puzzle:<br>11 / 16</div>","response":null,"trial_type":"html-keyboard-response","trial_index":27,"time_elapsed":261709,"internal_node_id":"0.0-18.0-1.0","experiment":"calibration","task_version":"1.0","jspsych_version":"6.3.1"},{"puzzle":"../static/img/is3/tf3/tf3_74_M_ss2.jpeg","item_order":[2,1,0,3],"correct":0,"choice":0,"accuracy":1,"rt":29064,"screen_resolution":[1120,1792],"minimum_resolution":1,"item_set":3,"item":74,"test_form":3,"distractor":"pd","trial_type":"mars","trial_index":28,"time_elapsed":290776,"internal_node_id":"0.0-18.0-2.0","experiment":"calibration","task_version":"1.0","jspsych_version":"6.3.1","browser_interactions":0},{"rt":null,"stimulus":"<div style=\"font-size:24px;\">Loading puzzle:<br>12 / 16</div>","response":null,"trial_type":"html-keyboard-response","trial_index":29,"time_elapsed":291991,"internal_node_id":"0.0-19.0-1.0","experiment":"calibration","task_version":"1.0","jspsych_version":"6.3.1"},{"puzzle":"../static/img/is3/tf3/tf3_52_M_ss1.jpeg","item_order":[3,1,0,2],"correct":0,"choice":0,"accuracy":1,"rt":29207,"screen_resolution":[1120,1792],"minimum_resolution":1,"item_set":3,"item":52,"test_form":3,"distractor":"md","trial_type":"mars","trial_index":30,"time_elapsed":321200,"internal_node_id":"0.0-19.0-2.0","experiment":"calibration","task_version":"1.0","jspsych_version":"6.3.1","browser_interactions":0},{"rt":null,"stimulus":"<div style=\"font-size:24px;\">Loading puzzle:<br>13 / 16</div>","response":null,"trial_type":"html-keyboard-response","trial_index":31,"time_elapsed":322417,"internal_node_id":"0.0-20.0-1.0","experiment":"calibration","task_version":"1.0","jspsych_version":"6.3.1"},{"puzzle":"../static/img/is3/tf3/tf3_75_M_ss3.jpeg","item_order":[1,3,0,2],"correct":0,"choice":0,"accuracy":1,"rt":14466.999999999942,"screen_resolution":[1120,1792],"minimum_resolution":1,"item_set":3,"item":75,"test_form":3,"distractor":"pd","trial_type":"mars","trial_index":32,"time_elapsed":336886,"internal_node_id":"0.0-20.0-2.0","experiment":"calibration","task_version":"1.0","jspsych_version":"6.3.1","browser_interactions":0},{"rt":null,"stimulus":"<div style=\"font-size:24px;\">Loading puzzle:<br>14 / 16</div>","response":null,"trial_type":"html-keyboard-response","trial_index":33,"time_elapsed":338103,"internal_node_id":"0.0-21.0-1.0","experiment":"calibration","task_version":"1.0","jspsych_version":"6.3.1"},{"puzzle":"../static/img/is3/tf3/tf3_36_M_ss3.jpeg","item_order":[0,2,3,1],"correct":0,"choice":0,"accuracy":1,"rt":25777,"screen_resolution":[1120,1792],"minimum_resolution":1,"item_set":3,"item":36,"test_form":3,"distractor":"pd","trial_type":"mars","trial_index":34,"time_elapsed":363882,"internal_node_id":"0.0-21.0-2.0","experiment":"calibration","task_version":"1.0","jspsych_version":"6.3.1","browser_interactions":0},{"rt":null,"stimulus":"<div style=\"font-size:24px;\">Loading puzzle:<br>15 / 16</div>","response":null,"trial_type":"html-keyboard-response","trial_index":35,"time_elapsed":365099,"internal_node_id":"0.0-22.0-1.0","experiment":"calibration","task_version":"1.0","jspsych_version":"6.3.1"},{"puzzle":"../static/img/is3/tf3/tf3_24_M_ss3.jpeg","item_order":[1,3,2,0],"correct":0,"choice":0,"accuracy":1,"rt":27100,"screen_resolution":[1120,1792],"minimum_resolution":1,"item_set":3,"item":24,"test_form":3,"distractor":"md","trial_type":"mars","trial_index":36,"time_elapsed":392201,"internal_node_id":"0.0-22.0-2.0","experiment":"calibration","task_version":"1.0","jspsych_version":"6.3.1","browser_interactions":0},{"rt":null,"stimulus":"<div style=\"font-size:24px;\">Loading puzzle:<br>16 / 16</div>","response":null,"trial_type":"html-keyboard-response","trial_index":37,"time_elapsed":393419,"internal_node_id":"0.0-23.0-1.0","experiment":"calibration","task_version":"1.0","jspsych_version":"6.3.1"},{"puzzle":"../static/img/is3/tf3/tf3_66_M_ss3.jpeg","item_order":[1,0,3,2],"correct":0,"choice":3,"accuracy":0,"rt":25744,"screen_resolution":[1120,1792],"minimum_resolution":1,"item_set":3,"item":66,"test_form":3,"distractor":"md","trial_type":"mars","trial_index":38,"time_elapsed":419165,"internal_node_id":"0.0-23.0-2.0","experiment":"calibration","task_version":"1.0","jspsych_version":"6.3.1","browser_interactions":0},{"value":[0,0,0],"trial_type":"call-function","trial_index":39,"time_elapsed":419181,"internal_node_id":"0.0-24.0","experiment":"calibration","task_version":"1.0","jspsych_version":"6.3.1"},{"view_history":[{"page_index":0,"viewing_time":11755}],"rt":11756,"trial_type":"instructions","trial_index":40,"time_elapsed":430937,"internal_node_id":"0.0-25.0","experiment":"calibration","task_version":"1.0","jspsych_version":"6.3.1"},{"rt":29539,"responses":{"age":"22","gender-categorical":"Male","gender-free-response":"","ethnicity":"Not Hispanic or Latino","race":["White"],"education":"Bachelor degree","free-response":""},"trial_type":"survey-demo","trial_index":41,"time_elapsed":460479,"internal_node_id":"0.0-26.0","experiment":"calibration","task_version":"1.0","jspsych_version":"6.3.1","interactions":"[{\"event\":\"fullscreenenter\",\"trial\":1,\"time\":11062}]"}]