[{"success":true,"timeout":false,"failed_images":[],"failed_audio":[],"failed_video":[],"trial_type":"preload","trial_index":0,"time_elapsed":5600,"internal_node_id":"0.0-0.0","experiment":"calibration","task_version":"1.0","jspsych_version":"6.3.1"},{"success":true,"trial_type":"fullscreen","trial_index":1,"time_elapsed":9694,"internal_node_id":"0.0-1.0","experiment":"calibration","task_version":"1.0","jspsych_version":"6.3.1"},{"view_history":[{"page_index":0,"viewing_time":12103.80000000028},{"page_index":1,"viewing_time":8340.299999999814},{"page_index":2,"viewing_time":2768.2000000001863}],"rt":23213.399999999907,"trial_type":"instructions","trial_index":2,"time_elapsed":32912,"internal_node_id":"0.0-2.0","experiment":"calibration","task_version":"1.0","jspsych_version":"6.3.1"},{"puzzle":"../static/img/practice/pt1_M1.png","item_order":[3,2,1,0],"correct":0,"choice":0,"accuracy":1,"rt":6642.5,"screen_resolution":[800,1280],"minimum_resolution":1,"item_set":"practice","trial_type":"mars","trial_index":3,"time_elapsed":41560,"internal_node_id":"0.0-3.0-0.0","experiment":"calibration","task_version":"1.0","jspsych_version":"6.3.1"},{"puzzle":"../static/img/practice/pt2_M1.png","item_order":[2,1,0,3],"correct":0,"choice":0,"accuracy":1,"rt":2660,"screen_resolution":[800,1280],"minimum_resolution":1,"item_set":"practice","trial_type":"mars","trial_index":4,"time_elapsed":46227,"internal_node_id":"0.0-4.0-0.0","experiment":"calibration","task_version":"1.0","jspsych_version":"6.3.1"},{"puzzle":"../static/img/practice/pt3_M1.png","item_order":[2,0,1,3],"correct":0,"choice":0,"accuracy":1,"rt":1795.699999999255,"screen_resolution":[800,1280],"minimum_resolution":1,"item_set":"practice","trial_type":"mars","trial_index":5,"time_elapsed":50029,"internal_node_id":"0.0-5.0-0.0","experiment":"calibration","task_version":"1.0","jspsych_version":"6.3.1"},{"view_history":[{"page_index":0,"viewing_time":1202.2999999998137},{"page_index":1,"viewing_time":7269.5999999996275}],"rt":8472.200000000186,"trial_type":"instructions","trial_index":6,"time_elapsed":58503,"internal_node_id":"0.0-6.0","experiment":"calibration","task_version":"1.0","jspsych_version":"6.3.1"},{"rt":null,"stimulus":"<div style=\"font-size:24px;\">Loading puzzle:<br>1 / 16</div>","response":null,"trial_type":"html-keyboard-response","trial_index":7,"time_elapsed":59712,"internal_node_id":"0.0-7.0-0.0","experiment":"calibration","task_version":"1.0","jspsych_version":"6.3.1"},{"puzzle":"../static/img/is3/tf1/tf1_20_M_ss1.jpeg","item_order":[0,3,1,2],"correct":0,"choice":0,"accuracy":1,"rt":13881.5,"screen_resolution":[800,1280],"minimum_resolution":1,"item_set":3,"item":20,"test_form":1,"distractor":"pd","trial_type":"mars","trial_index":8,"time_elapsed":73598,"internal_node_id":"0.0-7.0-1.0","experiment":"calibration","task_version":"1.0","jspsych_version":"6.3.1","browser_interactions":0},{"rt":null,"stimulus":"<div style=\"font-size:24px;\">Loading puzzle:<br>2 / 16</div>","response":null,"trial_type":"html-keyboard-response","trial_index":9,"time_elapsed":74805,"internal_node_id":"0.0-8.0-0.0","experiment":"calibration","task_version":"1.0","jspsych_version":"6.3.1"},{"puzzle":"../static/img/is3/tf2/tf2_47_M_ss3.jpeg","item_order":[3,1,2,0],"correct":0,"choice":0,"accuracy":1,"rt":11076.799999999814,"screen_resolution":[800,1280],"minimum_resolution":1,"item_set":3,"item":47,"test_form":2,"distractor":"md","trial_type":"mars","trial_index":10,"time_elapsed":85886,"internal_node_id":"0.0-8.0-1.0","experiment":"calibration","task_version":"1.0","jspsych_version":"6.3.1","browser_interactions":0},{"rt":null,"stimulus":"<div style=\"font-size:24px;\">Loading puzzle:<br>3 / 16</div>","response":null,"trial_type":"html-keyboard-response","trial_index":11,"time_elapsed":87089,"internal_node_id":"0.0-9.0-0.0","experiment":"calibration","task_version":"1.0","jspsych_version":"6.3.1"},{"puzzle":"../static/img/is3/tf2/tf2_70_M_ss2.jpeg","item_order":[1,2,3,0],"correct":0,"choice":0,"accuracy":1,"rt":15672.400000000373,"screen_resolution":[800,1280],"minimum_resolution":1,"item_set":3,"item":70,"test_form":2,"distractor":"md","trial_type":"mars","trial_index":12,"time_elapsed":102765,"internal_node_id":"0.0-9.0-1.0","experiment":"calibration","task_version":"1.0","jspsych_version":"6.3.1","browser_interactions":0},{"rt":null,"stimulus":"<div style=\"font-size:24px;\">Loading puzzle:<br>4 / 16</div>","response":null,"trial_type":"html-keyboard-response","trial_index":13,"time_elapsed":103971,"internal_node_id":"0.0-10.0-0.0","experiment":"calibration","task_version":"1.0","jspsych_version":"6.3.1"},{"puzzle":"../static/img/is3/tf1/tf1_50_M_ss1.jpeg","item_order":[0,1,3,2],"correct":0,"choice":0,"accuracy":1,"rt":13038.900000000373,"screen_resolution":[800,1280],"minimum_resolution":1,"item_set":3,"item":50,"test_form":1,"distractor":"pd","trial_type":"mars","trial_index":14,"time_elapsed":117013,"internal_node_id":"0.0-10.0-1.0","experiment":"calibration","task_version":"1.0","jspsych_version":"6.3.1","browser_interactions":0},{"rt":null,"stimulus":"<div style=\"font-size:24px;\">Loading puzzle:<br>5 / 16</div>","response":null,"trial_type":"html-keyboard-response","trial_index":15,"time_elapsed":118216,"internal_node_id":"0.0-11.0-0.0","experiment":"calibration","task_version":"1.0","jspsych_version":"6.3.1"},{"puzzle":"../static/img/is3/tf2/tf2_34_M_ss2.jpeg","item_order":[0,2,3,1],"correct":0,"choice":1,"accuracy":0,"rt":14199.699999999255,"screen_resolution":[800,1280],"minimum_resolution":1,"item_set":3,"item":34,"test_form":2,"distractor":"md","trial_type":"mars","trial_index":16,"time_elapsed":132420,"internal_node_id":"0.0-11.0-1.0","experiment":"calibration","task_version":"1.0","jspsych_version":"6.3.1","browser_interactions":0},{"rt":null,"stimulus":"<div style=\"font-size:24px;\">Loading puzzle:<br>6 / 16</div>","response":null,"trial_type":"html-keyboard-response","trial_index":17,"time_elapsed":133623,"internal_node_id":"0.0-12.0-0.0","experiment":"calibration","task_version":"1.0","jspsych_version":"6.3.1"},{"puzzle":"../static/img/is3/tf1/tf1_15_M_ss2.jpeg","item_order":[2,1,0,3],"correct":0,"choice":1,"accuracy":0,"rt":25490.400000000373,"screen_resolution":[800,1280],"minimum_resolution":1,"item_set":3,"item":15,"test_form":1,"distractor":"pd","trial_type":"mars","trial_index":18,"time_elapsed":159118,"internal_node_id":"0.0-12.0-1.0","experiment":"calibration","task_version":"1.0","jspsych_version":"6.3.1","browser_interactions":0},{"rt":null,"stimulus":"<div style=\"font-size:24px;\">Loading puzzle:<br>7 / 16</div>","response":null,"trial_type":"html-keyboard-response","trial_index":19,"time_elapsed":160321,"internal_node_id":"0.0-13.0-0.0","experiment":"calibration","task_version":"1.0","jspsych_version":"6.3.1"},{"puzzle":"../static/img/is3/tf2/tf2_12_M_ss1.jpeg","item_order":[3,1,0,2],"correct":0,"choice":3,"accuracy":0,"rt":27575.5,"screen_resolution":[800,1280],"minimum_resolution":1,"item_set":3,"item":12,"test_form":2,"distractor":"md","trial_type":"mars","trial_index":20,"time_elapsed":187902,"internal_node_id":"0.0-13.0-1.0","experiment":"calibration","task_version":"1.0","jspsych_version":"6.3.1","browser_interactions":0},{"rt":null,"stimulus":"<div style=\"font-size:24px;\">Loading puzzle:<br>8 / 16</div>","response":null,"trial_type":"html-keyboard-response","trial_index":21,"time_elapsed":189108,"internal_node_id":"0.0-14.0-0.0","experiment":"calibration","task_version":"1.0","jspsych_version":"6.3.1"},{"puzzle":"../static/img/is3/tf1/tf1_62_M_ss1.jpeg","item_order":[1,3,2,0],"correct":0,"choice":0,"accuracy":1,"rt":10556.600000000559,"screen_resolution":[800,1280],"minimum_resolution":1,"item_set":3,"item":62,"test_form":1,"distractor":"pd","trial_type":"mars","trial_index":22,"time_elapsed":199679,"internal_node_id":"0.0-14.0-1.0","experiment":"calibration","task_version":"1.0","jspsych_version":"6.3.1","browser_interactions":0},{"rt":null,"stimulus":"<div style=\"font-size:24px;\">Loading puzzle:<br>9 / 16</div>","response":null,"trial_type":"html-keyboard-response","trial_index":23,"time_elapsed":200885,"internal_node_id":"0.0-15.0-0.0","experiment":"calibration","task_version":"1.0","jspsych_version":"6.3.1"},{"puzzle":"../static/img/is3/tf2/tf2_73_M_ss2.jpeg","item_order":[1,0,3,2],"correct":0,"choice":1,"accuracy":0,"rt":9806.799999999814,"screen_resolution":[800,1280],"minimum_resolution":1,"item_set":3,"item":73,"test_form":2,"distractor":"md","trial_type":"mars","trial_index":24,"time_elapsed":210700,"internal_node_id":"0.0-15.0-1.0","experiment":"calibration","task_version":"1.0","jspsych_version":"6.3.1","browser_interactions":0},{"rt":null,"stimulus":"<div style=\"font-size:24px;\">Loading puzzle:<br>10 / 16</div>","response":null,"trial_type":"html-keyboard-response","trial_index":25,"time_elapsed":211903,"internal_node_id":"0.0-16.0-0.0","experiment":"calibration","task_version":"1.0","jspsych_version":"6.3.1"},{"puzzle":"../static/img/is3/tf1/tf1_53_M_ss1.jpeg","item_order":[2,3,1,0],"correct":0,"choice":0,"accuracy":1,"rt":14118.099999999627,"screen_resolution":[800,1280],"minimum_resolution":1,"item_set":3,"item":53,"test_form":1,"distractor":"pd","trial_type":"mars","trial_index":26,"time_elapsed":226028,"internal_node_id":"0.0-16.0-1.0","experiment":"calibration","task_version":"1.0","jspsych_version":"6.3.1","browser_interactions":0},{"rt":null,"stimulus":"<div style=\"font-size:24px;\">Loading puzzle:<br>11 / 16</div>","response":null,"trial_type":"html-keyboard-response","trial_index":27,"time_elapsed":227232,"internal_node_id":"0.0-17.0-0.0","experiment":"calibration","task_version":"1.0","jspsych_version":"6.3.1"},{"puzzle":"../static/img/is3/tf2/tf2_63_M_ss1.jpeg","item_order":[0,1,3,2],"correct":0,"choice":2,"accuracy":0,"rt":19046.10000000056,"screen_resolution":[800,1280],"minimum_resolution":1,"item_set":3,"item":63,"test_form":2,"distractor":"md","trial_type":"mars","trial_index":28,"time_elapsed":246283,"internal_node_id":"0.0-17.0-1.0","experiment":"calibration","task_version":"1.0","jspsych_version":"6.3.1","browser_interactions":0},{"rt":null,"stimulus":"<div style=\"font-size:24px;\">Loading puzzle:<br>12 / 16</div>","response":null,"trial_type":"html-keyboard-response","trial_index":29,"time_elapsed":247488,"internal_node_id":"0.0-18.0-0.0","experiment":"calibration","task_version":"1.0","jspsych_version":"6.3.1"},{"puzzle":"../static/img/is3/tf1/tf1_14_M_ss1.jpeg","item_order":[2,3,0,1],"correct":0,"choice":1,"accuracy":0,"rt":5722.399999999441,"screen_resolution":[800,1280],"minimum_resolution":1,"item_set":3,"item":14,"test_form":1,"distractor":"pd","trial_type":"mars","trial_index":30,"time_elapsed":253213,"internal_node_id":"0.0-18.0-1.0","experiment":"calibration","task_version":"1.0","jspsych_version":"6.3.1","browser_interactions":0},{"rt":null,"stimulus":"<div style=\"font-size:24px;\">Loading puzzle:<br>13 / 16</div>","response":null,"trial_type":"html-keyboard-response","trial_index":31,"time_elapsed":254419,"internal_node_id":"0.0-19.0-0.0","experiment":"calibration","task_version":"1.0","jspsych_version":"6.3.1"},{"puzzle":"../static/img/is3/tf1/tf1_46_M_ss3.jpeg","item_order":[1,0,2,3],"correct":0,"choice":0,"accuracy":1,"rt":15632.599999999627,"screen_resolution":[800,1280],"minimum_resolution":1,"item_set":3,"item":46,"test_form":1,"distractor":"pd","trial_type":"mars","trial_index":32,"time_elapsed":270055,"internal_node_id":"0.0-19.0-1.0","experiment":"calibration","task_version":"1.0","jspsych_version":"6.3.1","browser_interactions":0},{"rt":null,"stimulus":"<div style=\"font-size:24px;\">Loading puzzle:<br>14 / 16</div>","response":null,"trial_type":"html-keyboard-response","trial_index":33,"time_elapsed":271260,"internal_node_id":"0.0-20.0-0.0","experiment":"calibration","task_version":"1.0","jspsych_version":"6.3.1"},{"puzzle":"../static/img/is3/tf2/tf2_75_M_ss1.jpeg","item_order":[1,2,0,3],"correct":0,"choice":2,"accuracy":0,"rt":23145.799999999814,"screen_resolution":[800,1280],"minimum_resolution":1,"item_set":3,"item":75,"test_form":2,"distractor":"md","trial_type":"mars","trial_index":34,"time_elapsed":294409,"internal_node_id":"0.0-20.0-1.0","experiment":"calibration","task_version":"1.0","jspsych_version":"6.3.1","browser_interactions":0},{"rt":null,"stimulus":"<div style=\"font-size:24px;\">Loading puzzle:<br>15 / 16</div>","response":null,"trial_type":"html-keyboard-response","trial_index":35,"time_elapsed":295613,"internal_node_id":"0.0-21.0-0.0","experiment":"calibration","task_version":"1.0","jspsych_version":"6.3.1"},{"puzzle":"../static/img/is3/tf2/tf2_78_M_ss1.jpeg","item_order":[0,3,1,2],"correct":0,"choice":3,"accuracy":0,"rt":16881.5,"screen_resolution":[800,1280],"minimum_resolution":1,"item_set":3,"item":78,"test_form":2,"distractor":"md","trial_type":"mars","trial_index":36,"time_elapsed":312498,"internal_node_id":"0.0-21.0-1.0","experiment":"calibration","task_version":"1.0","jspsych_version":"6.3.1","browser_interactions":0},{"rt":null,"stimulus":"<div style=\"font-size:24px;\">Loading puzzle:<br>16 / 16</div>","response":null,"trial_type":"html-keyboard-response","trial_index":37,"time_elapsed":313702,"internal_node_id":"0.0-22.0-0.0","experiment":"calibration","task_version":"1.0","jspsych_version":"6.3.1"},{"puzzle":"../static/img/is3/tf1/tf1_21_M_ss2.jpeg","item_order":[3,1,0,2],"correct":0,"choice":0,"accuracy":1,"rt":9685.299999999814,"screen_resolution":[800,1280],"minimum_resolution":1,"item_set":3,"item":21,"test_form":1,"distractor":"pd","trial_type":"mars","trial_index":38,"time_elapsed":323390,"internal_node_id":"0.0-22.0-1.0","experiment":"calibration","task_version":"1.0","jspsych_version":"6.3.1","browser_interactions":0},{"view_history":[{"page_index":0,"viewing_time":2720.7000000001863}],"rt":2721.0999999996275,"trial_type":"instructions","trial_index":39,"time_elapsed":326113,"internal_node_id":"0.0-23.0","experiment":"calibration","task_version":"1.0","jspsych_version":"6.3.1"},{"rt":22706.300000000745,"responses":{"age":"37","gender-categorical":"Female","gender-free-response":"","ethnicity":"Not Hispanic or Latino","race":["White"],"education":"Master degree or higher","free-response":""},"trial_type":"survey-demo","trial_index":40,"time_elapsed":348824,"internal_node_id":"0.0-24.0","experiment":"calibration","task_version":"1.0","jspsych_version":"6.3.1","interactions":"[{\"event\":\"fullscreenenter\",\"trial\":1,\"time\":8749}]"}]