[{"success":true,"timeout":false,"failed_images":[],"failed_audio":[],"failed_video":[],"trial_type":"preload","trial_index":0,"time_elapsed":5923,"internal_node_id":"0.0-0.0","experiment":"calibration","task_version":"1.0","jspsych_version":"6.3.1"},{"success":true,"trial_type":"fullscreen","trial_index":1,"time_elapsed":13196,"internal_node_id":"0.0-1.0","experiment":"calibration","task_version":"1.0","jspsych_version":"6.3.1"},{"view_history":[{"page_index":0,"viewing_time":21695.099999904633},{"page_index":1,"viewing_time":14075.900000095367},{"page_index":2,"viewing_time":3251.7999999523163}],"rt":39024.700000047684,"trial_type":"instructions","trial_index":2,"time_elapsed":52224,"internal_node_id":"0.0-3.0","experiment":"calibration","task_version":"1.0","jspsych_version":"6.3.1"},{"puzzle":"../static/img/practice/pt1_M1.png","item_order":[3,2,1,0],"correct":0,"choice":0,"accuracy":1,"rt":5561.099999904633,"screen_resolution":[1080,1920],"minimum_resolution":1,"item_set":"practice","trial_type":"mars","trial_index":3,"time_elapsed":59790,"internal_node_id":"0.0-4.0-0.0","experiment":"calibration","task_version":"1.0","jspsych_version":"6.3.1"},{"puzzle":"../static/img/practice/pt2_M1.png","item_order":[1,0,3,2],"correct":0,"choice":0,"accuracy":1,"rt":2790.399999856949,"screen_resolution":[1080,1920],"minimum_resolution":1,"item_set":"practice","trial_type":"mars","trial_index":4,"time_elapsed":64589,"internal_node_id":"0.0-5.0-0.0","experiment":"calibration","task_version":"1.0","jspsych_version":"6.3.1"},{"puzzle":"../static/img/practice/pt3_M1.png","item_order":[3,0,1,2],"correct":0,"choice":0,"accuracy":1,"rt":2187.100000143051,"screen_resolution":[1080,1920],"minimum_resolution":1,"item_set":"practice","trial_type":"mars","trial_index":5,"time_elapsed":68782,"internal_node_id":"0.0-6.0-0.0","experiment":"calibration","task_version":"1.0","jspsych_version":"6.3.1"},{"view_history":[{"page_index":0,"viewing_time":3851.4000000953674},{"page_index":1,"viewing_time":13182.099999904633}],"rt":17034,"trial_type":"instructions","trial_index":6,"time_elapsed":85822,"internal_node_id":"0.0-7.0","experiment":"calibration","task_version":"1.0","jspsych_version":"6.3.1"},{"rt":null,"stimulus":"<div style=\"font-size:24px;\">Loading puzzle:<br>1 / 16</div>","response":null,"trial_type":"html-keyboard-response","trial_index":7,"time_elapsed":87028,"internal_node_id":"0.0-8.0-1.0","experiment":"calibration","task_version":"1.0","jspsych_version":"6.3.1"},{"puzzle":"../static/img/is3/tf3/tf3_28_M_ss1.jpeg","item_order":[2,3,1,0],"correct":0,"choice":0,"accuracy":1,"rt":11799,"screen_resolution":[1080,1920],"minimum_resolution":1,"item_set":3,"item":28,"test_form":3,"distractor":"md","trial_type":"mars","trial_index":8,"time_elapsed":98832,"internal_node_id":"0.0-8.0-2.0","experiment":"calibration","task_version":"1.0","jspsych_version":"6.3.1","browser_interactions":0},{"rt":null,"stimulus":"<div style=\"font-size:24px;\">Loading puzzle:<br>2 / 16</div>","response":null,"trial_type":"html-keyboard-response","trial_index":9,"time_elapsed":100039,"internal_node_id":"0.0-9.0-1.0","experiment":"calibration","task_version":"1.0","jspsych_version":"6.3.1"},{"puzzle":"../static/img/is3/tf3/tf3_19_M_ss1.jpeg","item_order":[1,0,3,2],"correct":0,"choice":0,"accuracy":1,"rt":15978.599999904633,"screen_resolution":[1080,1920],"minimum_resolution":1,"item_set":3,"item":19,"test_form":3,"distractor":"pd","trial_type":"mars","trial_index":10,"time_elapsed":116021,"internal_node_id":"0.0-9.0-2.0","experiment":"calibration","task_version":"1.0","jspsych_version":"6.3.1","browser_interactions":0},{"rt":null,"stimulus":"<div style=\"font-size:24px;\">Loading puzzle:<br>3 / 16</div>","response":null,"trial_type":"html-keyboard-response","trial_index":11,"time_elapsed":117224,"internal_node_id":"0.0-10.0-1.0","experiment":"calibration","task_version":"1.0","jspsych_version":"6.3.1"},{"puzzle":"../static/img/is3/tf3/tf3_50_M_ss2.jpeg","item_order":[3,1,0,2],"correct":0,"choice":0,"accuracy":1,"rt":15229.199999809265,"screen_resolution":[1080,1920],"minimum_resolution":1,"item_set":3,"item":50,"test_form":3,"distractor":"md","trial_type":"mars","trial_index":12,"time_elapsed":132457,"internal_node_id":"0.0-10.0-2.0","experiment":"calibration","task_version":"1.0","jspsych_version":"6.3.1","browser_interactions":0},{"rt":null,"stimulus":"<div style=\"font-size:24px;\">Loading puzzle:<br>4 / 16</div>","response":null,"trial_type":"html-keyboard-response","trial_index":13,"time_elapsed":133669,"internal_node_id":"0.0-11.0-1.0","experiment":"calibration","task_version":"1.0","jspsych_version":"6.3.1"},{"puzzle":"../static/img/is3/tf3/tf3_70_M_ss1.jpeg","item_order":[3,1,2,0],"correct":0,"choice":0,"accuracy":1,"rt":11571.900000095367,"screen_resolution":[1080,1920],"minimum_resolution":1,"item_set":3,"item":70,"test_form":3,"distractor":"pd","trial_type":"mars","trial_index":14,"time_elapsed":145244,"internal_node_id":"0.0-11.0-2.0","experiment":"calibration","task_version":"1.0","jspsych_version":"6.3.1","browser_interactions":0},{"rt":null,"stimulus":"<div style=\"font-size:24px;\">Loading puzzle:<br>5 / 16</div>","response":null,"trial_type":"html-keyboard-response","trial_index":15,"time_elapsed":146453,"internal_node_id":"0.0-12.0-1.0","experiment":"calibration","task_version":"1.0","jspsych_version":"6.3.1"},{"puzzle":"../static/img/is3/tf3/tf3_34_M_ss1.jpeg","item_order":[1,3,2,0],"correct":0,"choice":2,"accuracy":0,"rt":29302.39999985695,"screen_resolution":[1080,1920],"minimum_resolution":1,"item_set":3,"item":34,"test_form":3,"distractor":"pd","trial_type":"mars","trial_index":16,"time_elapsed":175758,"internal_node_id":"0.0-12.0-2.0","experiment":"calibration","task_version":"1.0","jspsych_version":"6.3.1","browser_interactions":0},{"rt":null,"stimulus":"<div style=\"font-size:24px;\">Loading puzzle:<br>6 / 16</div>","response":null,"trial_type":"html-keyboard-response","trial_index":17,"time_elapsed":176968,"internal_node_id":"0.0-13.0-1.0","experiment":"calibration","task_version":"1.0","jspsych_version":"6.3.1"},{"puzzle":"../static/img/is3/tf3/tf3_11_M_ss2.jpeg","item_order":[3,0,1,2],"correct":0,"choice":0,"accuracy":1,"rt":27516.099999904633,"screen_resolution":[1080,1920],"minimum_resolution":1,"item_set":3,"item":11,"test_form":3,"distractor":"pd","trial_type":"mars","trial_index":18,"time_elapsed":204488,"internal_node_id":"0.0-13.0-2.0","experiment":"calibration","task_version":"1.0","jspsych_version":"6.3.1","browser_interactions":0},{"rt":null,"stimulus":"<div style=\"font-size:24px;\">Loading puzzle:<br>7 / 16</div>","response":null,"trial_type":"html-keyboard-response","trial_index":19,"time_elapsed":205696,"internal_node_id":"0.0-14.0-1.0","experiment":"calibration","task_version":"1.0","jspsych_version":"6.3.1"},{"puzzle":"../static/img/is3/tf3/tf3_12_M_ss3.jpeg","item_order":[0,2,3,1],"correct":0,"choice":2,"accuracy":0,"rt":21932,"screen_resolution":[1080,1920],"minimum_resolution":1,"item_set":3,"item":12,"test_form":3,"distractor":"pd","trial_type":"mars","trial_index":20,"time_elapsed":227632,"internal_node_id":"0.0-14.0-2.0","experiment":"calibration","task_version":"1.0","jspsych_version":"6.3.1","browser_interactions":0},{"rt":null,"stimulus":"<div style=\"font-size:24px;\">Loading puzzle:<br>8 / 16</div>","response":null,"trial_type":"html-keyboard-response","trial_index":21,"time_elapsed":228838,"internal_node_id":"0.0-15.0-1.0","experiment":"calibration","task_version":"1.0","jspsych_version":"6.3.1"},{"puzzle":"../static/img/is3/tf3/tf3_62_M_ss2.jpeg","item_order":[1,2,3,0],"correct":0,"choice":0,"accuracy":1,"rt":13485.700000047684,"screen_resolution":[1080,1920],"minimum_resolution":1,"item_set":3,"item":62,"test_form":3,"distractor":"md","trial_type":"mars","trial_index":22,"time_elapsed":242327,"internal_node_id":"0.0-15.0-2.0","experiment":"calibration","task_version":"1.0","jspsych_version":"6.3.1","browser_interactions":0},{"rt":null,"stimulus":"<div style=\"font-size:24px;\">Loading puzzle:<br>9 / 16</div>","response":null,"trial_type":"html-keyboard-response","trial_index":23,"time_elapsed":243535,"internal_node_id":"0.0-16.0-1.0","experiment":"calibration","task_version":"1.0","jspsych_version":"6.3.1"},{"puzzle":"../static/img/is3/tf3/tf3_23_M_ss2.jpeg","item_order":[1,0,3,2],"correct":0,"choice":3,"accuracy":0,"rt":21838.200000047684,"screen_resolution":[1080,1920],"minimum_resolution":1,"item_set":3,"item":23,"test_form":3,"distractor":"md","trial_type":"mars","trial_index":24,"time_elapsed":265376,"internal_node_id":"0.0-16.0-2.0","experiment":"calibration","task_version":"1.0","jspsych_version":"6.3.1","browser_interactions":0},{"rt":null,"stimulus":"<div style=\"font-size:24px;\">Loading puzzle:<br>10 / 16</div>","response":null,"trial_type":"html-keyboard-response","trial_index":25,"time_elapsed":266582,"internal_node_id":"0.0-17.0-1.0","experiment":"calibration","task_version":"1.0","jspsych_version":"6.3.1"},{"puzzle":"../static/img/is3/tf3/tf3_73_M_ss1.jpeg","item_order":[3,1,0,2],"correct":0,"choice":0,"accuracy":1,"rt":27947.200000047684,"screen_resolution":[1080,1920],"minimum_resolution":1,"item_set":3,"item":73,"test_form":3,"distractor":"pd","trial_type":"mars","trial_index":26,"time_elapsed":294532,"internal_node_id":"0.0-17.0-2.0","experiment":"calibration","task_version":"1.0","jspsych_version":"6.3.1","browser_interactions":0},{"rt":null,"stimulus":"<div style=\"font-size:24px;\">Loading puzzle:<br>11 / 16</div>","response":null,"trial_type":"html-keyboard-response","trial_index":27,"time_elapsed":295736,"internal_node_id":"0.0-18.0-1.0","experiment":"calibration","task_version":"1.0","jspsych_version":"6.3.1"},{"puzzle":"../static/img/is3/tf3/tf3_26_M_ss2.jpeg","item_order":[1,2,0,3],"correct":0,"choice":2,"accuracy":0,"rt":22797.599999904633,"screen_resolution":[1080,1920],"minimum_resolution":1,"item_set":3,"item":26,"test_form":3,"distractor":"md","trial_type":"mars","trial_index":28,"time_elapsed":318537,"internal_node_id":"0.0-18.0-2.0","experiment":"calibration","task_version":"1.0","jspsych_version":"6.3.1","browser_interactions":0},{"rt":null,"stimulus":"<div style=\"font-size:24px;\">Loading puzzle:<br>12 / 16</div>","response":null,"trial_type":"html-keyboard-response","trial_index":29,"time_elapsed":319744,"internal_node_id":"0.0-19.0-1.0","experiment":"calibration","task_version":"1.0","jspsych_version":"6.3.1"},{"puzzle":"../static/img/is3/tf3/tf3_74_M_ss2.jpeg","item_order":[2,3,0,1],"correct":0,"choice":2,"accuracy":0,"rt":27437.5,"screen_resolution":[1080,1920],"minimum_resolution":1,"item_set":3,"item":74,"test_form":3,"distractor":"md","trial_type":"mars","trial_index":30,"time_elapsed":347183,"internal_node_id":"0.0-19.0-2.0","experiment":"calibration","task_version":"1.0","jspsych_version":"6.3.1","browser_interactions":0},{"rt":null,"stimulus":"<div style=\"font-size:24px;\">Loading puzzle:<br>13 / 16</div>","response":null,"trial_type":"html-keyboard-response","trial_index":31,"time_elapsed":348386,"internal_node_id":"0.0-20.0-1.0","experiment":"calibration","task_version":"1.0","jspsych_version":"6.3.1"},{"puzzle":"../static/img/is3/tf3/tf3_55_M_ss1.jpeg","item_order":[1,3,0,2],"correct":0,"choice":2,"accuracy":0,"rt":27707.60000014305,"screen_resolution":[1080,1920],"minimum_resolution":1,"item_set":3,"item":55,"test_form":3,"distractor":"pd","trial_type":"mars","trial_index":32,"time_elapsed":376098,"internal_node_id":"0.0-20.0-2.0","experiment":"calibration","task_version":"1.0","jspsych_version":"6.3.1","browser_interactions":0},{"rt":null,"stimulus":"<div style=\"font-size:24px;\">Loading puzzle:<br>14 / 16</div>","response":null,"trial_type":"html-keyboard-response","trial_index":33,"time_elapsed":377308,"internal_node_id":"0.0-21.0-1.0","experiment":"calibration","task_version":"1.0","jspsych_version":"6.3.1"},{"puzzle":"../static/img/is3/tf3/tf3_36_M_ss3.jpeg","item_order":[0,2,1,3],"correct":0,"choice":0,"accuracy":1,"rt":29828.200000047684,"screen_resolution":[1080,1920],"minimum_resolution":1,"item_set":3,"item":36,"test_form":3,"distractor":"pd","trial_type":"mars","trial_index":34,"time_elapsed":407139,"internal_node_id":"0.0-21.0-2.0","experiment":"calibration","task_version":"1.0","jspsych_version":"6.3.1","browser_interactions":0},{"rt":null,"stimulus":"<div style=\"font-size:24px;\">Loading puzzle:<br>15 / 16</div>","response":null,"trial_type":"html-keyboard-response","trial_index":35,"time_elapsed":408349,"internal_node_id":"0.0-22.0-1.0","experiment":"calibration","task_version":"1.0","jspsych_version":"6.3.1"},{"puzzle":"../static/img/is3/tf3/tf3_29_M_ss2.jpeg","item_order":[0,3,2,1],"correct":0,"choice":null,"accuracy":null,"rt":null,"screen_resolution":[1080,1920],"minimum_resolution":1,"item_set":3,"item":29,"test_form":3,"distractor":"pd","trial_type":"mars","trial_index":36,"time_elapsed":438351,"internal_node_id":"0.0-22.0-2.0","experiment":"calibration","task_version":"1.0","jspsych_version":"6.3.1","browser_interactions":0},{"rt":null,"stimulus":"<div style=\"font-size:24px;\">Loading puzzle:<br>16 / 16</div>","response":null,"trial_type":"html-keyboard-response","trial_index":37,"time_elapsed":439558,"internal_node_id":"0.0-23.0-1.0","experiment":"calibration","task_version":"1.0","jspsych_version":"6.3.1"},{"puzzle":"../static/img/is3/tf3/tf3_45_M_ss3.jpeg","item_order":[0,3,2,1],"correct":0,"choice":1,"accuracy":0,"rt":13628.5,"screen_resolution":[1080,1920],"minimum_resolution":1,"item_set":3,"item":45,"test_form":3,"distractor":"pd","trial_type":"mars","trial_index":38,"time_elapsed":453190,"internal_node_id":"0.0-23.0-2.0","experiment":"calibration","task_version":"1.0","jspsych_version":"6.3.1","browser_interactions":0},{"value":[0,1,0],"trial_type":"call-function","trial_index":39,"time_elapsed":453200,"internal_node_id":"0.0-24.0","experiment":"calibration","task_version":"1.0","jspsych_version":"6.3.1"},{"view_history":[{"page_index":0,"viewing_time":5236.400000095367}],"rt":5238,"trial_type":"instructions","trial_index":40,"time_elapsed":458440,"internal_node_id":"0.0-25.0","experiment":"calibration","task_version":"1.0","jspsych_version":"6.3.1"},{"rt":45172,"responses":{"age":"38","gender-categorical":"Male","gender-free-response":"","ethnicity":"Not Hispanic or Latino","race":["White"],"education":"Bachelor degree","free-response":"This was fun, I wish I had a little longer to do them!"},"trial_type":"survey-demo","trial_index":41,"time_elapsed":503617,"internal_node_id":"0.0-26.0","experiment":"calibration","task_version":"1.0","jspsych_version":"6.3.1","interactions":"[{\"event\":\"fullscreenenter\",\"trial\":1,\"time\":12218}]"}]