[{"success":true,"timeout":false,"failed_images":[],"failed_audio":[],"failed_video":[],"trial_type":"preload","trial_index":0,"time_elapsed":41486,"internal_node_id":"0.0-0.0","experiment":"calibration","task_version":"1.0","jspsych_version":"6.3.1"},{"success":true,"trial_type":"fullscreen","trial_index":1,"time_elapsed":415670,"internal_node_id":"0.0-1.0","experiment":"calibration","task_version":"1.0","jspsych_version":"6.3.1"},{"min_width":640,"min_height":600,"inner_width":979,"inner_height":1969,"trial_type":"screen-check","trial_index":2,"time_elapsed":421189,"internal_node_id":"0.0-2.0-0.0","experiment":"calibration","task_version":"1.0","jspsych_version":"6.3.1"},{"view_history":[{"page_index":0,"viewing_time":3084.7000000067055},{"page_index":1,"viewing_time":953.3999999985099},{"page_index":2,"viewing_time":1425.5999997258186}],"rt":5468.700000084937,"trial_type":"instructions","trial_index":3,"time_elapsed":426828,"internal_node_id":"0.0-3.0","experiment":"calibration","task_version":"1.0","jspsych_version":"6.3.1"},{"puzzle":"../static/img/practice/pt1_M1.png","item_order":[1,2,0,3],"correct":0,"choice":0,"accuracy":1,"rt":2698.0000003241003,"screen_resolution":[1765,979],"minimum_resolution":1,"item_set":"practice","trial_type":"mars","trial_index":4,"time_elapsed":431556,"internal_node_id":"0.0-4.0-0.0","experiment":"calibration","task_version":"1.0","jspsych_version":"6.3.1"},{"puzzle":"../static/img/practice/pt2_M1.png","item_order":[2,0,3,1],"correct":0,"choice":0,"accuracy":1,"rt":2332.4000001884997,"screen_resolution":[1765,979],"minimum_resolution":1,"item_set":"practice","trial_type":"mars","trial_index":5,"time_elapsed":435918,"internal_node_id":"0.0-5.0-0.0","experiment":"calibration","task_version":"1.0","jspsych_version":"6.3.1"},{"puzzle":"../static/img/practice/pt3_M1.png","item_order":[0,1,3,2],"correct":0,"choice":0,"accuracy":1,"rt":20432.79999960214,"screen_resolution":[1765,979],"minimum_resolution":1,"item_set":"practice","trial_type":"mars","trial_index":6,"time_elapsed":458380,"internal_node_id":"0.0-6.0-0.0","experiment":"calibration","task_version":"1.0","jspsych_version":"6.3.1"},{"view_history":[{"page_index":0,"viewing_time":1321.8000000342727},{"page_index":1,"viewing_time":17892.500000074506}],"rt":19217.600000090897,"trial_type":"instructions","trial_index":7,"time_elapsed":477609,"internal_node_id":"0.0-7.0","experiment":"calibration","task_version":"1.0","jspsych_version":"6.3.1"},{"rt":null,"stimulus":"<div style=\"font-size:24px;\">Loading puzzle:<br>1 / 16</div>","response":null,"trial_type":"html-keyboard-response","trial_index":8,"time_elapsed":478848,"internal_node_id":"0.0-8.0-1.0","experiment":"calibration","task_version":"1.0","jspsych_version":"6.3.1"},{"puzzle":"../static/img/is3/tf2/tf2_20_M_ss3.jpeg","item_order":[2,0,1,3],"correct":0,"choice":0,"accuracy":1,"rt":15944.999999832362,"screen_resolution":[1765,979],"minimum_resolution":1,"item_set":3,"item":20,"test_form":2,"distractor":"md","trial_type":"mars","trial_index":9,"time_elapsed":494819,"internal_node_id":"0.0-8.0-2.0","experiment":"calibration","task_version":"1.0","jspsych_version":"6.3.1","browser_interactions":0},{"rt":null,"stimulus":"<div style=\"font-size:24px;\">Loading puzzle:<br>2 / 16</div>","response":null,"trial_type":"html-keyboard-response","trial_index":10,"time_elapsed":496040,"internal_node_id":"0.0-9.0-1.0","experiment":"calibration","task_version":"1.0","jspsych_version":"6.3.1"},{"puzzle":"../static/img/is3/tf3/tf3_47_M_ss2.jpeg","item_order":[2,3,1,0],"correct":0,"choice":2,"accuracy":0,"rt":25882.100000046194,"screen_resolution":[1765,979],"minimum_resolution":1,"item_set":3,"item":47,"test_form":3,"distractor":"pd","trial_type":"mars","trial_index":11,"time_elapsed":521977,"internal_node_id":"0.0-9.0-2.0","experiment":"calibration","task_version":"1.0","jspsych_version":"6.3.1","browser_interactions":0},{"rt":null,"stimulus":"<div style=\"font-size:24px;\">Loading puzzle:<br>3 / 16</div>","response":null,"trial_type":"html-keyboard-response","trial_index":12,"time_elapsed":523186,"internal_node_id":"0.0-10.0-1.0","experiment":"calibration","task_version":"1.0","jspsych_version":"6.3.1"},{"puzzle":"../static/img/is3/tf1/tf1_71_M_ss1.jpeg","item_order":[0,1,3,2],"correct":0,"choice":0,"accuracy":1,"rt":6644.400000106543,"screen_resolution":[1765,979],"minimum_resolution":1,"item_set":3,"item":71,"test_form":1,"distractor":"md","trial_type":"mars","trial_index":13,"time_elapsed":529851,"internal_node_id":"0.0-10.0-2.0","experiment":"calibration","task_version":"1.0","jspsych_version":"6.3.1","browser_interactions":0},{"rt":null,"stimulus":"<div style=\"font-size:24px;\">Loading puzzle:<br>4 / 16</div>","response":null,"trial_type":"html-keyboard-response","trial_index":14,"time_elapsed":531061,"internal_node_id":"0.0-11.0-1.0","experiment":"calibration","task_version":"1.0","jspsych_version":"6.3.1"},{"puzzle":"../static/img/is3/tf1/tf1_61_M_ss3.jpeg","item_order":[1,3,0,2],"correct":0,"choice":0,"accuracy":1,"rt":27265.100000426173,"screen_resolution":[1765,979],"minimum_resolution":1,"item_set":3,"item":61,"test_form":1,"distractor":"pd","trial_type":"mars","trial_index":15,"time_elapsed":558350,"internal_node_id":"0.0-11.0-2.0","experiment":"calibration","task_version":"1.0","jspsych_version":"6.3.1","browser_interactions":0},{"rt":null,"stimulus":"<div style=\"font-size:24px;\">Loading puzzle:<br>5 / 16</div>","response":null,"trial_type":"html-keyboard-response","trial_index":16,"time_elapsed":559558,"internal_node_id":"0.0-12.0-1.0","experiment":"calibration","task_version":"1.0","jspsych_version":"6.3.1"},{"puzzle":"../static/img/is3/tf2/tf2_37_M_ss2.jpeg","item_order":[0,1,2,3],"correct":0,"choice":null,"accuracy":null,"rt":null,"screen_resolution":[1765,979],"minimum_resolution":1,"item_set":3,"item":37,"test_form":2,"distractor":"pd","trial_type":"mars","trial_index":17,"time_elapsed":589576,"internal_node_id":"0.0-12.0-2.0","experiment":"calibration","task_version":"1.0","jspsych_version":"6.3.1","browser_interactions":0},{"rt":null,"stimulus":"<div style=\"font-size:24px;\">Loading puzzle:<br>6 / 16</div>","response":null,"trial_type":"html-keyboard-response","trial_index":18,"time_elapsed":590787,"internal_node_id":"0.0-13.0-1.0","experiment":"calibration","task_version":"1.0","jspsych_version":"6.3.1"},{"puzzle":"../static/img/is3/tf2/tf2_18_M_ss1.jpeg","item_order":[2,0,1,3],"correct":0,"choice":0,"accuracy":1,"rt":12867.500000167638,"screen_resolution":[1765,979],"minimum_resolution":1,"item_set":3,"item":18,"test_form":2,"distractor":"md","trial_type":"mars","trial_index":19,"time_elapsed":603679,"internal_node_id":"0.0-13.0-2.0","experiment":"calibration","task_version":"1.0","jspsych_version":"6.3.1","browser_interactions":0},{"rt":null,"stimulus":"<div style=\"font-size:24px;\">Loading puzzle:<br>7 / 16</div>","response":null,"trial_type":"html-keyboard-response","trial_index":20,"time_elapsed":604891,"internal_node_id":"0.0-14.0-1.0","experiment":"calibration","task_version":"1.0","jspsych_version":"6.3.1"},{"puzzle":"../static/img/is3/tf1/tf1_69_M_ss2.jpeg","item_order":[2,1,0,3],"correct":0,"choice":0,"accuracy":1,"rt":21198.199999984354,"screen_resolution":[1765,979],"minimum_resolution":1,"item_set":3,"item":69,"test_form":1,"distractor":"pd","trial_type":"mars","trial_index":21,"time_elapsed":626109,"internal_node_id":"0.0-14.0-2.0","experiment":"calibration","task_version":"1.0","jspsych_version":"6.3.1","browser_interactions":0},{"rt":null,"stimulus":"<div style=\"font-size:24px;\">Loading puzzle:<br>8 / 16</div>","response":null,"trial_type":"html-keyboard-response","trial_index":22,"time_elapsed":627320,"internal_node_id":"0.0-15.0-1.0","experiment":"calibration","task_version":"1.0","jspsych_version":"6.3.1"},{"puzzle":"../static/img/is3/tf2/tf2_77_M_ss3.jpeg","item_order":[2,3,0,1],"correct":0,"choice":0,"accuracy":1,"rt":12296.300000045449,"screen_resolution":[1765,979],"minimum_resolution":1,"item_set":3,"item":77,"test_form":2,"distractor":"pd","trial_type":"mars","trial_index":23,"time_elapsed":639630,"internal_node_id":"0.0-15.0-2.0","experiment":"calibration","task_version":"1.0","jspsych_version":"6.3.1","browser_interactions":0},{"rt":null,"stimulus":"<div style=\"font-size:24px;\">Loading puzzle:<br>9 / 16</div>","response":null,"trial_type":"html-keyboard-response","trial_index":24,"time_elapsed":640843,"internal_node_id":"0.0-16.0-1.0","experiment":"calibration","task_version":"1.0","jspsych_version":"6.3.1"},{"puzzle":"../static/img/is3/tf3/tf3_79_M_ss1.jpeg","item_order":[3,0,1,2],"correct":0,"choice":1,"accuracy":0,"rt":9125.499999616295,"screen_resolution":[1765,979],"minimum_resolution":1,"item_set":3,"item":79,"test_form":3,"distractor":"md","trial_type":"mars","trial_index":25,"time_elapsed":649990,"internal_node_id":"0.0-16.0-2.0","experiment":"calibration","task_version":"1.0","jspsych_version":"6.3.1","browser_interactions":2},{"rt":null,"stimulus":"<div style=\"font-size:24px;\">Loading puzzle:<br>10 / 16</div>","response":null,"trial_type":"html-keyboard-response","trial_index":26,"time_elapsed":651202,"internal_node_id":"0.0-17.0-1.0","experiment":"calibration","task_version":"1.0","jspsych_version":"6.3.1"},{"puzzle":"../static/img/is3/tf2/tf2_23_M_ss3.jpeg","item_order":[0,3,2,1],"correct":0,"choice":0,"accuracy":1,"rt":20853.399999905378,"screen_resolution":[1765,979],"minimum_resolution":1,"item_set":3,"item":23,"test_form":2,"distractor":"pd","trial_type":"mars","trial_index":27,"time_elapsed":672069,"internal_node_id":"0.0-17.0-2.0","experiment":"calibration","task_version":"1.0","jspsych_version":"6.3.1","browser_interactions":0},{"rt":null,"stimulus":"<div style=\"font-size:24px;\">Loading puzzle:<br>11 / 16</div>","response":null,"trial_type":"html-keyboard-response","trial_index":28,"time_elapsed":673277,"internal_node_id":"0.0-18.0-1.0","experiment":"calibration","task_version":"1.0","jspsych_version":"6.3.1"},{"puzzle":"../static/img/is3/tf1/tf1_63_M_ss2.jpeg","item_order":[0,3,1,2],"correct":0,"choice":3,"accuracy":0,"rt":27948.900000192225,"screen_resolution":[1765,979],"minimum_resolution":1,"item_set":3,"item":63,"test_form":1,"distractor":"pd","trial_type":"mars","trial_index":29,"time_elapsed":701247,"internal_node_id":"0.0-18.0-2.0","experiment":"calibration","task_version":"1.0","jspsych_version":"6.3.1","browser_interactions":0},{"rt":null,"stimulus":"<div style=\"font-size:24px;\">Loading puzzle:<br>12 / 16</div>","response":null,"trial_type":"html-keyboard-response","trial_index":30,"time_elapsed":702454,"internal_node_id":"0.0-19.0-1.0","experiment":"calibration","task_version":"1.0","jspsych_version":"6.3.1"},{"puzzle":"../static/img/is3/tf2/tf2_80_M_ss3.jpeg","item_order":[3,2,0,1],"correct":0,"choice":3,"accuracy":0,"rt":24883.600000292063,"screen_resolution":[1765,979],"minimum_resolution":1,"item_set":3,"item":80,"test_form":2,"distractor":"pd","trial_type":"mars","trial_index":31,"time_elapsed":727361,"internal_node_id":"0.0-19.0-2.0","experiment":"calibration","task_version":"1.0","jspsych_version":"6.3.1","browser_interactions":0},{"rt":null,"stimulus":"<div style=\"font-size:24px;\">Loading puzzle:<br>13 / 16</div>","response":null,"trial_type":"html-keyboard-response","trial_index":32,"time_elapsed":728574,"internal_node_id":"0.0-20.0-1.0","experiment":"calibration","task_version":"1.0","jspsych_version":"6.3.1"},{"puzzle":"../static/img/is3/tf1/tf1_64_M_ss3.jpeg","item_order":[2,1,3,0],"correct":0,"choice":0,"accuracy":1,"rt":2183.3000001497567,"screen_resolution":[1765,979],"minimum_resolution":1,"item_set":3,"item":64,"test_form":1,"distractor":"pd","trial_type":"mars","trial_index":33,"time_elapsed":730770,"internal_node_id":"0.0-20.0-2.0","experiment":"calibration","task_version":"1.0","jspsych_version":"6.3.1","browser_interactions":0},{"rt":null,"stimulus":"<div style=\"font-size:24px;\">Loading puzzle:<br>14 / 16</div>","response":null,"trial_type":"html-keyboard-response","trial_index":34,"time_elapsed":731982,"internal_node_id":"0.0-21.0-1.0","experiment":"calibration","task_version":"1.0","jspsych_version":"6.3.1"},{"puzzle":"../static/img/is3/tf3/tf3_46_M_ss1.jpeg","item_order":[2,3,0,1],"correct":0,"choice":1,"accuracy":0,"rt":19595.100000035018,"screen_resolution":[1765,979],"minimum_resolution":1,"item_set":3,"item":46,"test_form":3,"distractor":"md","trial_type":"mars","trial_index":35,"time_elapsed":751598,"internal_node_id":"0.0-21.0-2.0","experiment":"calibration","task_version":"1.0","jspsych_version":"6.3.1","browser_interactions":0},{"rt":null,"stimulus":"<div style=\"font-size:24px;\">Loading puzzle:<br>15 / 16</div>","response":null,"trial_type":"html-keyboard-response","trial_index":36,"time_elapsed":752806,"internal_node_id":"0.0-22.0-1.0","experiment":"calibration","task_version":"1.0","jspsych_version":"6.3.1"},{"puzzle":"../static/img/is3/tf2/tf2_30_M_ss1.jpeg","item_order":[0,2,1,3],"correct":0,"choice":2,"accuracy":0,"rt":3485.0999996997416,"screen_resolution":[1765,979],"minimum_resolution":1,"item_set":3,"item":30,"test_form":2,"distractor":"pd","trial_type":"mars","trial_index":37,"time_elapsed":756312,"internal_node_id":"0.0-22.0-2.0","experiment":"calibration","task_version":"1.0","jspsych_version":"6.3.1","browser_interactions":0},{"rt":null,"stimulus":"<div style=\"font-size:24px;\">Loading puzzle:<br>16 / 16</div>","response":null,"trial_type":"html-keyboard-response","trial_index":38,"time_elapsed":757520,"internal_node_id":"0.0-23.0-1.0","experiment":"calibration","task_version":"1.0","jspsych_version":"6.3.1"},{"puzzle":"../static/img/is3/tf2/tf2_35_M_ss3.jpeg","item_order":[1,2,3,0],"correct":0,"choice":0,"accuracy":1,"rt":3422.8000002913177,"screen_resolution":[1765,979],"minimum_resolution":1,"item_set":3,"item":35,"test_form":2,"distractor":"pd","trial_type":"mars","trial_index":39,"time_elapsed":760966,"internal_node_id":"0.0-23.0-2.0","experiment":"calibration","task_version":"1.0","jspsych_version":"6.3.1","browser_interactions":0},{"value":[1,1,0],"trial_type":"call-function","trial_index":40,"time_elapsed":760975,"internal_node_id":"0.0-24.0","experiment":"calibration","task_version":"1.0","jspsych_version":"6.3.1"},{"view_history":[{"page_index":0,"viewing_time":2748.0999999679625}],"rt":2749.7000000439584,"trial_type":"instructions","trial_index":41,"time_elapsed":763733,"internal_node_id":"0.0-25.0","experiment":"calibration","task_version":"1.0","jspsych_version":"6.3.1"},{"rt":27474.80000043288,"responses":{"age":"31","gender-categorical":"Male","gender-free-response":"","ethnicity":"Not Hispanic or Latino","race":["White"],"education":"Master degree or higher","free-response":""},"trial_type":"survey-demo","trial_index":42,"time_elapsed":791238,"internal_node_id":"0.0-26.0","experiment":"calibration","task_version":"1.0","jspsych_version":"6.3.1","interactions":"[{\"event\":\"blur\",\"trial\":0,\"time\":10443},{\"event\":\"fullscreenenter\",\"trial\":1,\"time\":414719},{\"event\":\"blur\",\"trial\":2,\"time\":419828},{\"event\":\"focus\",\"trial\":2,\"time\":420909},{\"event\":\"fullscreenexit\",\"trial\":3,\"time\":421451},{\"event\":\"blur\",\"trial\":25,\"time\":645009},{\"event\":\"focus\",\"trial\":25,\"time\":648933}]"}]