[{"success":true,"timeout":false,"failed_images":[],"failed_audio":[],"failed_video":[],"trial_type":"preload","trial_index":0,"time_elapsed":3410,"internal_node_id":"0.0-0.0","experiment":"calibration","task_version":"1.0","jspsych_version":"6.3.1"},{"success":true,"trial_type":"fullscreen","trial_index":1,"time_elapsed":11227,"internal_node_id":"0.0-1.0","experiment":"calibration","task_version":"1.0","jspsych_version":"6.3.1"},{"view_history":[{"page_index":0,"viewing_time":4805.70000000298},{"page_index":1,"viewing_time":8152.699999988079},{"page_index":2,"viewing_time":1562.800000011921}],"rt":14522.09999999404,"trial_type":"instructions","trial_index":2,"time_elapsed":25759,"internal_node_id":"0.0-2.0","experiment":"calibration","task_version":"1.0","jspsych_version":"6.3.1"},{"puzzle":"../static/img/practice/pt1_M1.png","item_order":[2,1,3,0],"correct":0,"choice":0,"accuracy":1,"rt":10589.90000000596,"screen_resolution":[864,1536],"minimum_resolution":1,"item_set":"practice","trial_type":"mars","trial_index":3,"time_elapsed":38352,"internal_node_id":"0.0-3.0-0.0","experiment":"calibration","task_version":"1.0","jspsych_version":"6.3.1"},{"puzzle":"../static/img/practice/pt2_M1.png","item_order":[3,2,1,0],"correct":0,"choice":0,"accuracy":1,"rt":2929.5999999940395,"screen_resolution":[864,1536],"minimum_resolution":1,"item_set":"practice","trial_type":"mars","trial_index":4,"time_elapsed":43290,"internal_node_id":"0.0-4.0-0.0","experiment":"calibration","task_version":"1.0","jspsych_version":"6.3.1"},{"puzzle":"../static/img/practice/pt3_M1.png","item_order":[2,0,1,3],"correct":0,"choice":0,"accuracy":1,"rt":1804.5,"screen_resolution":[864,1536],"minimum_resolution":1,"item_set":"practice","trial_type":"mars","trial_index":5,"time_elapsed":47099,"internal_node_id":"0.0-5.0-0.0","experiment":"calibration","task_version":"1.0","jspsych_version":"6.3.1"},{"view_history":[{"page_index":0,"viewing_time":1102.699999988079},{"page_index":1,"viewing_time":7183.9000000059605}],"rt":8286.79999999702,"trial_type":"instructions","trial_index":6,"time_elapsed":55389,"internal_node_id":"0.0-6.0","experiment":"calibration","task_version":"1.0","jspsych_version":"6.3.1"},{"rt":null,"stimulus":"<div style=\"font-size:24px;\">Loading puzzle:<br>1 / 16</div>","response":null,"trial_type":"html-keyboard-response","trial_index":7,"time_elapsed":56594,"internal_node_id":"0.0-7.0-0.0","experiment":"calibration","task_version":"1.0","jspsych_version":"6.3.1"},{"puzzle":"../static/img/is3/tf2/tf2_28_M_ss2.jpeg","item_order":[1,0,3,2],"correct":0,"choice":0,"accuracy":1,"rt":27560.29999999702,"screen_resolution":[864,1536],"minimum_resolution":1,"item_set":3,"item":28,"test_form":2,"distractor":"md","trial_type":"mars","trial_index":8,"time_elapsed":84158,"internal_node_id":"0.0-7.0-1.0","experiment":"calibration","task_version":"1.0","jspsych_version":"6.3.1","browser_interactions":0},{"rt":null,"stimulus":"<div style=\"font-size:24px;\">Loading puzzle:<br>2 / 16</div>","response":null,"trial_type":"html-keyboard-response","trial_index":9,"time_elapsed":85361,"internal_node_id":"0.0-8.0-0.0","experiment":"calibration","task_version":"1.0","jspsych_version":"6.3.1"},{"puzzle":"../static/img/is3/tf1/tf1_22_M_ss3.jpeg","item_order":[0,3,2,1],"correct":0,"choice":0,"accuracy":1,"rt":22882.79999999702,"screen_resolution":[864,1536],"minimum_resolution":1,"item_set":3,"item":22,"test_form":1,"distractor":"md","trial_type":"mars","trial_index":10,"time_elapsed":108249,"internal_node_id":"0.0-8.0-1.0","experiment":"calibration","task_version":"1.0","jspsych_version":"6.3.1","browser_interactions":0},{"rt":null,"stimulus":"<div style=\"font-size:24px;\">Loading puzzle:<br>3 / 16</div>","response":null,"trial_type":"html-keyboard-response","trial_index":11,"time_elapsed":109451,"internal_node_id":"0.0-9.0-0.0","experiment":"calibration","task_version":"1.0","jspsych_version":"6.3.1"},{"puzzle":"../static/img/is3/tf2/tf2_10_M_ss2.jpeg","item_order":[3,0,1,2],"correct":0,"choice":0,"accuracy":1,"rt":17136.70000000298,"screen_resolution":[864,1536],"minimum_resolution":1,"item_set":3,"item":10,"test_form":2,"distractor":"pd","trial_type":"mars","trial_index":12,"time_elapsed":126590,"internal_node_id":"0.0-9.0-1.0","experiment":"calibration","task_version":"1.0","jspsych_version":"6.3.1","browser_interactions":0},{"rt":null,"stimulus":"<div style=\"font-size:24px;\">Loading puzzle:<br>4 / 16</div>","response":null,"trial_type":"html-keyboard-response","trial_index":13,"time_elapsed":127792,"internal_node_id":"0.0-10.0-0.0","experiment":"calibration","task_version":"1.0","jspsych_version":"6.3.1"},{"puzzle":"../static/img/is3/tf1/tf1_50_M_ss1.jpeg","item_order":[1,3,0,2],"correct":0,"choice":0,"accuracy":1,"rt":8562,"screen_resolution":[864,1536],"minimum_resolution":1,"item_set":3,"item":50,"test_form":1,"distractor":"pd","trial_type":"mars","trial_index":14,"time_elapsed":136359,"internal_node_id":"0.0-10.0-1.0","experiment":"calibration","task_version":"1.0","jspsych_version":"6.3.1","browser_interactions":0},{"rt":null,"stimulus":"<div style=\"font-size:24px;\">Loading puzzle:<br>5 / 16</div>","response":null,"trial_type":"html-keyboard-response","trial_index":15,"time_elapsed":137561,"internal_node_id":"0.0-11.0-0.0","experiment":"calibration","task_version":"1.0","jspsych_version":"6.3.1"},{"puzzle":"../static/img/is3/tf1/tf1_18_M_ss2.jpeg","item_order":[2,3,1,0],"correct":0,"choice":0,"accuracy":1,"rt":20537.29999999702,"screen_resolution":[864,1536],"minimum_resolution":1,"item_set":3,"item":18,"test_form":1,"distractor":"md","trial_type":"mars","trial_index":16,"time_elapsed":158102,"internal_node_id":"0.0-11.0-1.0","experiment":"calibration","task_version":"1.0","jspsych_version":"6.3.1","browser_interactions":0},{"rt":null,"stimulus":"<div style=\"font-size:24px;\">Loading puzzle:<br>6 / 16</div>","response":null,"trial_type":"html-keyboard-response","trial_index":17,"time_elapsed":159305,"internal_node_id":"0.0-12.0-0.0","experiment":"calibration","task_version":"1.0","jspsych_version":"6.3.1"},{"puzzle":"../static/img/is3/tf2/tf2_37_M_ss2.jpeg","item_order":[3,1,0,2],"correct":0,"choice":0,"accuracy":1,"rt":29146.20000000298,"screen_resolution":[864,1536],"minimum_resolution":1,"item_set":3,"item":37,"test_form":2,"distractor":"md","trial_type":"mars","trial_index":18,"time_elapsed":188455,"internal_node_id":"0.0-12.0-1.0","experiment":"calibration","task_version":"1.0","jspsych_version":"6.3.1","browser_interactions":0},{"rt":null,"stimulus":"<div style=\"font-size:24px;\">Loading puzzle:<br>7 / 16</div>","response":null,"trial_type":"html-keyboard-response","trial_index":19,"time_elapsed":189658,"internal_node_id":"0.0-13.0-0.0","experiment":"calibration","task_version":"1.0","jspsych_version":"6.3.1"},{"puzzle":"../static/img/is3/tf1/tf1_56_M_ss1.jpeg","item_order":[2,3,1,0],"correct":0,"choice":0,"accuracy":1,"rt":20841.80000001192,"screen_resolution":[864,1536],"minimum_resolution":1,"item_set":3,"item":56,"test_form":1,"distractor":"md","trial_type":"mars","trial_index":20,"time_elapsed":210504,"internal_node_id":"0.0-13.0-1.0","experiment":"calibration","task_version":"1.0","jspsych_version":"6.3.1","browser_interactions":0},{"rt":null,"stimulus":"<div style=\"font-size:24px;\">Loading puzzle:<br>8 / 16</div>","response":null,"trial_type":"html-keyboard-response","trial_index":21,"time_elapsed":211709,"internal_node_id":"0.0-14.0-0.0","experiment":"calibration","task_version":"1.0","jspsych_version":"6.3.1"},{"puzzle":"../static/img/is3/tf2/tf2_16_M_ss2.jpeg","item_order":[3,0,2,1],"correct":0,"choice":0,"accuracy":1,"rt":9139.09999999404,"screen_resolution":[864,1536],"minimum_resolution":1,"item_set":3,"item":16,"test_form":2,"distractor":"pd","trial_type":"mars","trial_index":22,"time_elapsed":220852,"internal_node_id":"0.0-14.0-1.0","experiment":"calibration","task_version":"1.0","jspsych_version":"6.3.1","browser_interactions":0},{"rt":null,"stimulus":"<div style=\"font-size:24px;\">Loading puzzle:<br>9 / 16</div>","response":null,"trial_type":"html-keyboard-response","trial_index":23,"time_elapsed":222054,"internal_node_id":"0.0-15.0-0.0","experiment":"calibration","task_version":"1.0","jspsych_version":"6.3.1"},{"puzzle":"../static/img/is3/tf1/tf1_53_M_ss1.jpeg","item_order":[0,3,1,2],"correct":0,"choice":3,"accuracy":0,"rt":28878.10000000894,"screen_resolution":[864,1536],"minimum_resolution":1,"item_set":3,"item":53,"test_form":1,"distractor":"md","trial_type":"mars","trial_index":24,"time_elapsed":250936,"internal_node_id":"0.0-15.0-1.0","experiment":"calibration","task_version":"1.0","jspsych_version":"6.3.1","browser_interactions":0},{"rt":null,"stimulus":"<div style=\"font-size:24px;\">Loading puzzle:<br>10 / 16</div>","response":null,"trial_type":"html-keyboard-response","trial_index":25,"time_elapsed":252139,"internal_node_id":"0.0-16.0-0.0","experiment":"calibration","task_version":"1.0","jspsych_version":"6.3.1"},{"puzzle":"../static/img/is3/tf2/tf2_79_M_ss2.jpeg","item_order":[3,0,2,1],"correct":0,"choice":0,"accuracy":1,"rt":16479.89999999106,"screen_resolution":[864,1536],"minimum_resolution":1,"item_set":3,"item":79,"test_form":2,"distractor":"pd","trial_type":"mars","trial_index":26,"time_elapsed":268623,"internal_node_id":"0.0-16.0-1.0","experiment":"calibration","task_version":"1.0","jspsych_version":"6.3.1","browser_interactions":0},{"rt":null,"stimulus":"<div style=\"font-size:24px;\">Loading puzzle:<br>11 / 16</div>","response":null,"trial_type":"html-keyboard-response","trial_index":27,"time_elapsed":269825,"internal_node_id":"0.0-17.0-0.0","experiment":"calibration","task_version":"1.0","jspsych_version":"6.3.1"},{"puzzle":"../static/img/is3/tf1/tf1_80_M_ss1.jpeg","item_order":[3,2,0,1],"correct":0,"choice":0,"accuracy":1,"rt":20585.70000000298,"screen_resolution":[864,1536],"minimum_resolution":1,"item_set":3,"item":80,"test_form":1,"distractor":"pd","trial_type":"mars","trial_index":28,"time_elapsed":290417,"internal_node_id":"0.0-17.0-1.0","experiment":"calibration","task_version":"1.0","jspsych_version":"6.3.1","browser_interactions":0},{"rt":null,"stimulus":"<div style=\"font-size:24px;\">Loading puzzle:<br>12 / 16</div>","response":null,"trial_type":"html-keyboard-response","trial_index":29,"time_elapsed":291619,"internal_node_id":"0.0-18.0-0.0","experiment":"calibration","task_version":"1.0","jspsych_version":"6.3.1"},{"puzzle":"../static/img/is3/tf2/tf2_63_M_ss1.jpeg","item_order":[1,2,0,3],"correct":0,"choice":0,"accuracy":1,"rt":11460.09999999404,"screen_resolution":[864,1536],"minimum_resolution":1,"item_set":3,"item":63,"test_form":2,"distractor":"pd","trial_type":"mars","trial_index":30,"time_elapsed":303082,"internal_node_id":"0.0-18.0-1.0","experiment":"calibration","task_version":"1.0","jspsych_version":"6.3.1","browser_interactions":0},{"rt":null,"stimulus":"<div style=\"font-size:24px;\">Loading puzzle:<br>13 / 16</div>","response":null,"trial_type":"html-keyboard-response","trial_index":31,"time_elapsed":304284,"internal_node_id":"0.0-19.0-0.0","experiment":"calibration","task_version":"1.0","jspsych_version":"6.3.1"},{"puzzle":"../static/img/is3/tf2/tf2_75_M_ss1.jpeg","item_order":[2,3,0,1],"correct":0,"choice":0,"accuracy":1,"rt":6766.29999999702,"screen_resolution":[864,1536],"minimum_resolution":1,"item_set":3,"item":75,"test_form":2,"distractor":"pd","trial_type":"mars","trial_index":32,"time_elapsed":311053,"internal_node_id":"0.0-19.0-1.0","experiment":"calibration","task_version":"1.0","jspsych_version":"6.3.1","browser_interactions":0},{"rt":null,"stimulus":"<div style=\"font-size:24px;\">Loading puzzle:<br>14 / 16</div>","response":null,"trial_type":"html-keyboard-response","trial_index":33,"time_elapsed":312255,"internal_node_id":"0.0-20.0-0.0","experiment":"calibration","task_version":"1.0","jspsych_version":"6.3.1"},{"puzzle":"../static/img/is3/tf1/tf1_46_M_ss3.jpeg","item_order":[2,0,1,3],"correct":0,"choice":0,"accuracy":1,"rt":20190.19999998808,"screen_resolution":[864,1536],"minimum_resolution":1,"item_set":3,"item":46,"test_form":1,"distractor":"md","trial_type":"mars","trial_index":34,"time_elapsed":332449,"internal_node_id":"0.0-20.0-1.0","experiment":"calibration","task_version":"1.0","jspsych_version":"6.3.1","browser_interactions":0},{"rt":null,"stimulus":"<div style=\"font-size:24px;\">Loading puzzle:<br>15 / 16</div>","response":null,"trial_type":"html-keyboard-response","trial_index":35,"time_elapsed":333651,"internal_node_id":"0.0-21.0-0.0","experiment":"calibration","task_version":"1.0","jspsych_version":"6.3.1"},{"puzzle":"../static/img/is3/tf2/tf2_45_M_ss1.jpeg","item_order":[0,2,1,3],"correct":0,"choice":0,"accuracy":1,"rt":11781.20000000298,"screen_resolution":[864,1536],"minimum_resolution":1,"item_set":3,"item":45,"test_form":2,"distractor":"pd","trial_type":"mars","trial_index":36,"time_elapsed":345435,"internal_node_id":"0.0-21.0-1.0","experiment":"calibration","task_version":"1.0","jspsych_version":"6.3.1","browser_interactions":0},{"rt":null,"stimulus":"<div style=\"font-size:24px;\">Loading puzzle:<br>16 / 16</div>","response":null,"trial_type":"html-keyboard-response","trial_index":37,"time_elapsed":346638,"internal_node_id":"0.0-22.0-0.0","experiment":"calibration","task_version":"1.0","jspsych_version":"6.3.1"},{"puzzle":"../static/img/is3/tf1/tf1_29_M_ss1.jpeg","item_order":[2,1,3,0],"correct":0,"choice":0,"accuracy":1,"rt":6668.79999999702,"screen_resolution":[864,1536],"minimum_resolution":1,"item_set":3,"item":29,"test_form":1,"distractor":"pd","trial_type":"mars","trial_index":38,"time_elapsed":353309,"internal_node_id":"0.0-22.0-1.0","experiment":"calibration","task_version":"1.0","jspsych_version":"6.3.1","browser_interactions":0},{"value":[0,0,0],"trial_type":"call-function","trial_index":39,"time_elapsed":353311,"internal_node_id":"0.0-23.0","experiment":"calibration","task_version":"1.0","jspsych_version":"6.3.1"},{"view_history":[{"page_index":0,"viewing_time":3676}],"rt":3676.300000011921,"trial_type":"instructions","trial_index":40,"time_elapsed":356988,"internal_node_id":"0.0-24.0","experiment":"calibration","task_version":"1.0","jspsych_version":"6.3.1"},{"rt":12272,"responses":{"age":"24","gender-categorical":"Male","gender-free-response":"","ethnicity":"Not Hispanic or Latino","race":["White"],"education":"Bachelor degree","free-response":""},"trial_type":"survey-demo","trial_index":41,"time_elapsed":369263,"internal_node_id":"0.0-25.0","experiment":"calibration","task_version":"1.0","jspsych_version":"6.3.1","interactions":"[{\"event\":\"fullscreenenter\",\"trial\":1,\"time\":10247}]"}]