[{"success":true,"timeout":false,"failed_images":[],"failed_audio":[],"failed_video":[],"trial_type":"preload","trial_index":0,"time_elapsed":5336,"internal_node_id":"0.0-0.0","experiment":"calibration","task_version":"1.0","jspsych_version":"6.3.1"},{"success":true,"trial_type":"fullscreen","trial_index":1,"time_elapsed":7785,"internal_node_id":"0.0-1.0","experiment":"calibration","task_version":"1.0","jspsych_version":"6.3.1"},{"view_history":[{"page_index":0,"viewing_time":5788},{"page_index":1,"viewing_time":2078.600000023842},{"page_index":2,"viewing_time":1934}],"rt":9802.200000047684,"trial_type":"instructions","trial_index":2,"time_elapsed":17595,"internal_node_id":"0.0-2.0","experiment":"calibration","task_version":"1.0","jspsych_version":"6.3.1"},{"puzzle":"../static/img/practice/pt1_M1.png","item_order":[2,0,3,1],"correct":0,"choice":0,"accuracy":1,"rt":4623.600000023842,"screen_resolution":[912,1368],"minimum_resolution":1,"item_set":"practice","trial_type":"mars","trial_index":3,"time_elapsed":24227,"internal_node_id":"0.0-3.0-0.0","experiment":"calibration","task_version":"1.0","jspsych_version":"6.3.1"},{"puzzle":"../static/img/practice/pt2_M1.png","item_order":[3,0,2,1],"correct":0,"choice":0,"accuracy":1,"rt":2106.800000011921,"screen_resolution":[912,1368],"minimum_resolution":1,"item_set":"practice","trial_type":"mars","trial_index":4,"time_elapsed":28338,"internal_node_id":"0.0-4.0-0.0","experiment":"calibration","task_version":"1.0","jspsych_version":"6.3.1"},{"puzzle":"../static/img/practice/pt3_M1.png","item_order":[0,3,2,1],"correct":0,"choice":0,"accuracy":1,"rt":1374.800000011921,"screen_resolution":[912,1368],"minimum_resolution":1,"item_set":"practice","trial_type":"mars","trial_index":5,"time_elapsed":31717,"internal_node_id":"0.0-5.0-0.0","experiment":"calibration","task_version":"1.0","jspsych_version":"6.3.1"},{"view_history":[{"page_index":0,"viewing_time":1201.699999988079},{"page_index":1,"viewing_time":8572.100000023842}],"rt":9774.300000011921,"trial_type":"instructions","trial_index":6,"time_elapsed":41493,"internal_node_id":"0.0-6.0","experiment":"calibration","task_version":"1.0","jspsych_version":"6.3.1"},{"rt":null,"stimulus":"<div style=\"font-size:24px;\">Loading puzzle:<br>1 / 16</div>","response":null,"trial_type":"html-keyboard-response","trial_index":7,"time_elapsed":42698,"internal_node_id":"0.0-7.0-0.0","experiment":"calibration","task_version":"1.0","jspsych_version":"6.3.1"},{"puzzle":"../static/img/is3/tf2/tf2_25_M_ss2.jpeg","item_order":[1,0,2,3],"correct":0,"choice":0,"accuracy":1,"rt":6701.199999988079,"screen_resolution":[912,1368],"minimum_resolution":1,"item_set":3,"item":25,"test_form":2,"distractor":"pd","trial_type":"mars","trial_index":8,"time_elapsed":49403,"internal_node_id":"0.0-7.0-1.0","experiment":"calibration","task_version":"1.0","jspsych_version":"6.3.1","browser_interactions":0},{"rt":null,"stimulus":"<div style=\"font-size:24px;\">Loading puzzle:<br>2 / 16</div>","response":null,"trial_type":"html-keyboard-response","trial_index":9,"time_elapsed":50606,"internal_node_id":"0.0-8.0-0.0","experiment":"calibration","task_version":"1.0","jspsych_version":"6.3.1"},{"puzzle":"../static/img/is3/tf1/tf1_20_M_ss1.jpeg","item_order":[0,1,2,3],"correct":0,"choice":0,"accuracy":1,"rt":10533,"screen_resolution":[912,1368],"minimum_resolution":1,"item_set":3,"item":20,"test_form":1,"distractor":"md","trial_type":"mars","trial_index":10,"time_elapsed":61144,"internal_node_id":"0.0-8.0-1.0","experiment":"calibration","task_version":"1.0","jspsych_version":"6.3.1","browser_interactions":0},{"rt":null,"stimulus":"<div style=\"font-size:24px;\">Loading puzzle:<br>3 / 16</div>","response":null,"trial_type":"html-keyboard-response","trial_index":11,"time_elapsed":62346,"internal_node_id":"0.0-9.0-0.0","experiment":"calibration","task_version":"1.0","jspsych_version":"6.3.1"},{"puzzle":"../static/img/is3/tf1/tf1_61_M_ss3.jpeg","item_order":[2,3,1,0],"correct":0,"choice":0,"accuracy":1,"rt":7447,"screen_resolution":[912,1368],"minimum_resolution":1,"item_set":3,"item":61,"test_form":1,"distractor":"md","trial_type":"mars","trial_index":12,"time_elapsed":69796,"internal_node_id":"0.0-9.0-1.0","experiment":"calibration","task_version":"1.0","jspsych_version":"6.3.1","browser_interactions":0},{"rt":null,"stimulus":"<div style=\"font-size:24px;\">Loading puzzle:<br>4 / 16</div>","response":null,"trial_type":"html-keyboard-response","trial_index":13,"time_elapsed":70998,"internal_node_id":"0.0-10.0-0.0","experiment":"calibration","task_version":"1.0","jspsych_version":"6.3.1"},{"puzzle":"../static/img/is3/tf2/tf2_65_M_ss3.jpeg","item_order":[0,1,2,3],"correct":0,"choice":2,"accuracy":0,"rt":18089.400000035763,"screen_resolution":[912,1368],"minimum_resolution":1,"item_set":3,"item":65,"test_form":2,"distractor":"pd","trial_type":"mars","trial_index":14,"time_elapsed":89092,"internal_node_id":"0.0-10.0-1.0","experiment":"calibration","task_version":"1.0","jspsych_version":"6.3.1","browser_interactions":0},{"rt":null,"stimulus":"<div style=\"font-size:24px;\">Loading puzzle:<br>5 / 16</div>","response":null,"trial_type":"html-keyboard-response","trial_index":15,"time_elapsed":90294,"internal_node_id":"0.0-11.0-0.0","experiment":"calibration","task_version":"1.0","jspsych_version":"6.3.1"},{"puzzle":"../static/img/is3/tf2/tf2_31_M_ss2.jpeg","item_order":[1,3,2,0],"correct":0,"choice":0,"accuracy":1,"rt":19403.600000023842,"screen_resolution":[912,1368],"minimum_resolution":1,"item_set":3,"item":31,"test_form":2,"distractor":"pd","trial_type":"mars","trial_index":16,"time_elapsed":109701,"internal_node_id":"0.0-11.0-1.0","experiment":"calibration","task_version":"1.0","jspsych_version":"6.3.1","browser_interactions":0},{"rt":null,"stimulus":"<div style=\"font-size:24px;\">Loading puzzle:<br>6 / 16</div>","response":null,"trial_type":"html-keyboard-response","trial_index":17,"time_elapsed":110904,"internal_node_id":"0.0-12.0-0.0","experiment":"calibration","task_version":"1.0","jspsych_version":"6.3.1"},{"puzzle":"../static/img/is3/tf1/tf1_15_M_ss2.jpeg","item_order":[1,3,0,2],"correct":0,"choice":1,"accuracy":0,"rt":21239.30000001192,"screen_resolution":[912,1368],"minimum_resolution":1,"item_set":3,"item":15,"test_form":1,"distractor":"md","trial_type":"mars","trial_index":18,"time_elapsed":132147,"internal_node_id":"0.0-12.0-1.0","experiment":"calibration","task_version":"1.0","jspsych_version":"6.3.1","browser_interactions":0},{"rt":null,"stimulus":"<div style=\"font-size:24px;\">Loading puzzle:<br>7 / 16</div>","response":null,"trial_type":"html-keyboard-response","trial_index":19,"time_elapsed":133349,"internal_node_id":"0.0-13.0-0.0","experiment":"calibration","task_version":"1.0","jspsych_version":"6.3.1"},{"puzzle":"../static/img/is3/tf1/tf1_62_M_ss1.jpeg","item_order":[2,1,0,3],"correct":0,"choice":0,"accuracy":1,"rt":8937.699999988079,"screen_resolution":[912,1368],"minimum_resolution":1,"item_set":3,"item":62,"test_form":1,"distractor":"md","trial_type":"mars","trial_index":20,"time_elapsed":142290,"internal_node_id":"0.0-13.0-1.0","experiment":"calibration","task_version":"1.0","jspsych_version":"6.3.1","browser_interactions":0},{"rt":null,"stimulus":"<div style=\"font-size:24px;\">Loading puzzle:<br>8 / 16</div>","response":null,"trial_type":"html-keyboard-response","trial_index":21,"time_elapsed":143495,"internal_node_id":"0.0-14.0-0.0","experiment":"calibration","task_version":"1.0","jspsych_version":"6.3.1"},{"puzzle":"../static/img/is3/tf2/tf2_16_M_ss2.jpeg","item_order":[0,1,3,2],"correct":0,"choice":0,"accuracy":1,"rt":5277.100000023842,"screen_resolution":[912,1368],"minimum_resolution":1,"item_set":3,"item":16,"test_form":2,"distractor":"pd","trial_type":"mars","trial_index":22,"time_elapsed":148776,"internal_node_id":"0.0-14.0-1.0","experiment":"calibration","task_version":"1.0","jspsych_version":"6.3.1","browser_interactions":0},{"rt":null,"stimulus":"<div style=\"font-size:24px;\">Loading puzzle:<br>9 / 16</div>","response":null,"trial_type":"html-keyboard-response","trial_index":23,"time_elapsed":149978,"internal_node_id":"0.0-15.0-0.0","experiment":"calibration","task_version":"1.0","jspsych_version":"6.3.1"},{"puzzle":"../static/img/is3/tf1/tf1_40_M_ss3.jpeg","item_order":[2,0,3,1],"correct":0,"choice":0,"accuracy":1,"rt":15104.899999976158,"screen_resolution":[912,1368],"minimum_resolution":1,"item_set":3,"item":40,"test_form":1,"distractor":"md","trial_type":"mars","trial_index":24,"time_elapsed":165087,"internal_node_id":"0.0-15.0-1.0","experiment":"calibration","task_version":"1.0","jspsych_version":"6.3.1","browser_interactions":0},{"rt":null,"stimulus":"<div style=\"font-size:24px;\">Loading puzzle:<br>10 / 16</div>","response":null,"trial_type":"html-keyboard-response","trial_index":25,"time_elapsed":166289,"internal_node_id":"0.0-16.0-0.0","experiment":"calibration","task_version":"1.0","jspsych_version":"6.3.1"},{"puzzle":"../static/img/is3/tf2/tf2_72_M_ss1.jpeg","item_order":[1,2,0,3],"correct":0,"choice":2,"accuracy":0,"rt":12212.300000011921,"screen_resolution":[912,1368],"minimum_resolution":1,"item_set":3,"item":72,"test_form":2,"distractor":"pd","trial_type":"mars","trial_index":26,"time_elapsed":178505,"internal_node_id":"0.0-16.0-1.0","experiment":"calibration","task_version":"1.0","jspsych_version":"6.3.1","browser_interactions":0},{"rt":null,"stimulus":"<div style=\"font-size:24px;\">Loading puzzle:<br>11 / 16</div>","response":null,"trial_type":"html-keyboard-response","trial_index":27,"time_elapsed":179708,"internal_node_id":"0.0-17.0-0.0","experiment":"calibration","task_version":"1.0","jspsych_version":"6.3.1"},{"puzzle":"../static/img/is3/tf1/tf1_80_M_ss1.jpeg","item_order":[1,3,0,2],"correct":0,"choice":2,"accuracy":0,"rt":14855.699999988079,"screen_resolution":[912,1368],"minimum_resolution":1,"item_set":3,"item":80,"test_form":1,"distractor":"md","trial_type":"mars","trial_index":28,"time_elapsed":194567,"internal_node_id":"0.0-17.0-1.0","experiment":"calibration","task_version":"1.0","jspsych_version":"6.3.1","browser_interactions":0},{"rt":null,"stimulus":"<div style=\"font-size:24px;\">Loading puzzle:<br>12 / 16</div>","response":null,"trial_type":"html-keyboard-response","trial_index":29,"time_elapsed":195785,"internal_node_id":"0.0-18.0-0.0","experiment":"calibration","task_version":"1.0","jspsych_version":"6.3.1"},{"puzzle":"../static/img/is3/tf2/tf2_59_M_ss3.jpeg","item_order":[3,1,0,2],"correct":0,"choice":2,"accuracy":0,"rt":15703.699999988079,"screen_resolution":[912,1368],"minimum_resolution":1,"item_set":3,"item":59,"test_form":2,"distractor":"pd","trial_type":"mars","trial_index":30,"time_elapsed":211492,"internal_node_id":"0.0-18.0-1.0","experiment":"calibration","task_version":"1.0","jspsych_version":"6.3.1","browser_interactions":0},{"rt":null,"stimulus":"<div style=\"font-size:24px;\">Loading puzzle:<br>13 / 16</div>","response":null,"trial_type":"html-keyboard-response","trial_index":31,"time_elapsed":212695,"internal_node_id":"0.0-19.0-0.0","experiment":"calibration","task_version":"1.0","jspsych_version":"6.3.1"},{"puzzle":"../static/img/is3/tf2/tf2_54_M_ss1.jpeg","item_order":[3,1,0,2],"correct":0,"choice":0,"accuracy":1,"rt":18578.5,"screen_resolution":[912,1368],"minimum_resolution":1,"item_set":3,"item":54,"test_form":2,"distractor":"pd","trial_type":"mars","trial_index":32,"time_elapsed":231277,"internal_node_id":"0.0-19.0-1.0","experiment":"calibration","task_version":"1.0","jspsych_version":"6.3.1","browser_interactions":0},{"rt":null,"stimulus":"<div style=\"font-size:24px;\">Loading puzzle:<br>14 / 16</div>","response":null,"trial_type":"html-keyboard-response","trial_index":33,"time_elapsed":232479,"internal_node_id":"0.0-20.0-0.0","experiment":"calibration","task_version":"1.0","jspsych_version":"6.3.1"},{"puzzle":"../static/img/is3/tf1/tf1_36_M_ss2.jpeg","item_order":[2,3,1,0],"correct":0,"choice":0,"accuracy":1,"rt":23837.5,"screen_resolution":[912,1368],"minimum_resolution":1,"item_set":3,"item":36,"test_form":1,"distractor":"md","trial_type":"mars","trial_index":34,"time_elapsed":256320,"internal_node_id":"0.0-20.0-1.0","experiment":"calibration","task_version":"1.0","jspsych_version":"6.3.1","browser_interactions":0},{"rt":null,"stimulus":"<div style=\"font-size:24px;\">Loading puzzle:<br>15 / 16</div>","response":null,"trial_type":"html-keyboard-response","trial_index":35,"time_elapsed":257522,"internal_node_id":"0.0-21.0-0.0","experiment":"calibration","task_version":"1.0","jspsych_version":"6.3.1"},{"puzzle":"../static/img/is3/tf1/tf1_24_M_ss2.jpeg","item_order":[1,0,2,3],"correct":0,"choice":2,"accuracy":0,"rt":9913.600000023842,"screen_resolution":[912,1368],"minimum_resolution":1,"item_set":3,"item":24,"test_form":1,"distractor":"md","trial_type":"mars","trial_index":36,"time_elapsed":267441,"internal_node_id":"0.0-21.0-1.0","experiment":"calibration","task_version":"1.0","jspsych_version":"6.3.1","browser_interactions":0},{"rt":null,"stimulus":"<div style=\"font-size:24px;\">Loading puzzle:<br>16 / 16</div>","response":null,"trial_type":"html-keyboard-response","trial_index":37,"time_elapsed":268644,"internal_node_id":"0.0-22.0-0.0","experiment":"calibration","task_version":"1.0","jspsych_version":"6.3.1"},{"puzzle":"../static/img/is3/tf2/tf2_78_M_ss1.jpeg","item_order":[2,1,0,3],"correct":0,"choice":1,"accuracy":0,"rt":12870.400000035763,"screen_resolution":[912,1368],"minimum_resolution":1,"item_set":3,"item":78,"test_form":2,"distractor":"pd","trial_type":"mars","trial_index":38,"time_elapsed":281519,"internal_node_id":"0.0-22.0-1.0","experiment":"calibration","task_version":"1.0","jspsych_version":"6.3.1","browser_interactions":0},{"value":[0,0,0],"trial_type":"call-function","trial_index":39,"time_elapsed":281521,"internal_node_id":"0.0-23.0","experiment":"calibration","task_version":"1.0","jspsych_version":"6.3.1"},{"view_history":[{"page_index":0,"viewing_time":1859.1000000238419}],"rt":1859.6000000238419,"trial_type":"instructions","trial_index":40,"time_elapsed":283382,"internal_node_id":"0.0-24.0","experiment":"calibration","task_version":"1.0","jspsych_version":"6.3.1"},{"rt":8800.800000011921,"responses":{"age":"21","gender-categorical":"Female","gender-free-response":"","ethnicity":"Hispanic or Latino","race":["Rather not say"],"education":"Bachelor degree","free-response":""},"trial_type":"survey-demo","trial_index":41,"time_elapsed":292188,"internal_node_id":"0.0-25.0","experiment":"calibration","task_version":"1.0","jspsych_version":"6.3.1","interactions":"[{\"event\":\"fullscreenenter\",\"trial\":1,\"time\":6836}]"}]