[{"success":true,"timeout":false,"failed_images":[],"failed_audio":[],"failed_video":[],"trial_type":"preload","trial_index":0,"time_elapsed":1256,"internal_node_id":"0.0-0.0","experiment":"calibration","task_version":"1.0","jspsych_version":"6.3.1"},{"success":true,"trial_type":"fullscreen","trial_index":1,"time_elapsed":4751,"internal_node_id":"0.0-1.0","experiment":"calibration","task_version":"1.0","jspsych_version":"6.3.1"},{"view_history":[{"page_index":0,"viewing_time":8459.09999999404},{"page_index":1,"viewing_time":4135.29999999702},{"page_index":2,"viewing_time":1407}],"rt":14003.09999999404,"trial_type":"instructions","trial_index":2,"time_elapsed":18761,"internal_node_id":"0.0-2.0","experiment":"calibration","task_version":"1.0","jspsych_version":"6.3.1"},{"puzzle":"../static/img/practice/pt1_M1.png","item_order":[0,3,2,1],"correct":0,"choice":0,"accuracy":1,"rt":14426.39999999106,"screen_resolution":[720,1280],"minimum_resolution":1,"item_set":"practice","trial_type":"mars","trial_index":3,"time_elapsed":35201,"internal_node_id":"0.0-3.0-0.0","experiment":"calibration","task_version":"1.0","jspsych_version":"6.3.1"},{"puzzle":"../static/img/practice/pt2_M1.png","item_order":[2,0,1,3],"correct":0,"choice":0,"accuracy":1,"rt":2454.6000000089407,"screen_resolution":[720,1280],"minimum_resolution":1,"item_set":"practice","trial_type":"mars","trial_index":4,"time_elapsed":39664,"internal_node_id":"0.0-4.0-0.0","experiment":"calibration","task_version":"1.0","jspsych_version":"6.3.1"},{"puzzle":"../static/img/practice/pt3_M1.png","item_order":[3,2,1,0],"correct":0,"choice":0,"accuracy":1,"rt":2242.0999999940395,"screen_resolution":[720,1280],"minimum_resolution":1,"item_set":"practice","trial_type":"mars","trial_index":5,"time_elapsed":43911,"internal_node_id":"0.0-5.0-0.0","experiment":"calibration","task_version":"1.0","jspsych_version":"6.3.1"},{"view_history":[{"page_index":0,"viewing_time":1587.4000000059605},{"page_index":1,"viewing_time":5660.70000000298}],"rt":7248.5,"trial_type":"instructions","trial_index":6,"time_elapsed":51161,"internal_node_id":"0.0-6.0","experiment":"calibration","task_version":"1.0","jspsych_version":"6.3.1"},{"rt":null,"stimulus":"<div style=\"font-size:24px;\">Loading puzzle:<br>1 / 16</div>","response":null,"trial_type":"html-keyboard-response","trial_index":7,"time_elapsed":52378,"internal_node_id":"0.0-7.0-0.0","experiment":"calibration","task_version":"1.0","jspsych_version":"6.3.1"},{"puzzle":"../static/img/is3/tf1/tf1_22_M_ss3.jpeg","item_order":[1,3,0,2],"correct":0,"choice":0,"accuracy":1,"rt":11141.5,"screen_resolution":[720,1280],"minimum_resolution":1,"item_set":3,"item":22,"test_form":1,"distractor":"md","trial_type":"mars","trial_index":8,"time_elapsed":63527,"internal_node_id":"0.0-7.0-1.0","experiment":"calibration","task_version":"1.0","jspsych_version":"6.3.1","browser_interactions":0},{"rt":null,"stimulus":"<div style=\"font-size:24px;\">Loading puzzle:<br>2 / 16</div>","response":null,"trial_type":"html-keyboard-response","trial_index":9,"time_elapsed":64745,"internal_node_id":"0.0-8.0-0.0","experiment":"calibration","task_version":"1.0","jspsych_version":"6.3.1"},{"puzzle":"../static/img/is3/tf2/tf2_28_M_ss2.jpeg","item_order":[1,0,2,3],"correct":0,"choice":0,"accuracy":1,"rt":28025.90000000596,"screen_resolution":[720,1280],"minimum_resolution":1,"item_set":3,"item":28,"test_form":2,"distractor":"pd","trial_type":"mars","trial_index":10,"time_elapsed":92775,"internal_node_id":"0.0-8.0-1.0","experiment":"calibration","task_version":"1.0","jspsych_version":"6.3.1","browser_interactions":0},{"rt":null,"stimulus":"<div style=\"font-size:24px;\">Loading puzzle:<br>3 / 16</div>","response":null,"trial_type":"html-keyboard-response","trial_index":11,"time_elapsed":93985,"internal_node_id":"0.0-9.0-0.0","experiment":"calibration","task_version":"1.0","jspsych_version":"6.3.1"},{"puzzle":"../static/img/is3/tf1/tf1_49_M_ss3.jpeg","item_order":[0,2,3,1],"correct":0,"choice":0,"accuracy":1,"rt":19185.09999999404,"screen_resolution":[720,1280],"minimum_resolution":1,"item_set":3,"item":49,"test_form":1,"distractor":"md","trial_type":"mars","trial_index":12,"time_elapsed":113179,"internal_node_id":"0.0-9.0-1.0","experiment":"calibration","task_version":"1.0","jspsych_version":"6.3.1","browser_interactions":0},{"rt":null,"stimulus":"<div style=\"font-size:24px;\">Loading puzzle:<br>4 / 16</div>","response":null,"trial_type":"html-keyboard-response","trial_index":13,"time_elapsed":114388,"internal_node_id":"0.0-10.0-0.0","experiment":"calibration","task_version":"1.0","jspsych_version":"6.3.1"},{"puzzle":"../static/img/is3/tf2/tf2_70_M_ss2.jpeg","item_order":[2,1,3,0],"correct":0,"choice":0,"accuracy":1,"rt":17787.20000000298,"screen_resolution":[720,1280],"minimum_resolution":1,"item_set":3,"item":70,"test_form":2,"distractor":"pd","trial_type":"mars","trial_index":14,"time_elapsed":132178,"internal_node_id":"0.0-10.0-1.0","experiment":"calibration","task_version":"1.0","jspsych_version":"6.3.1","browser_interactions":0},{"rt":null,"stimulus":"<div style=\"font-size:24px;\">Loading puzzle:<br>5 / 16</div>","response":null,"trial_type":"html-keyboard-response","trial_index":15,"time_elapsed":133390,"internal_node_id":"0.0-11.0-0.0","experiment":"calibration","task_version":"1.0","jspsych_version":"6.3.1"},{"puzzle":"../static/img/is3/tf2/tf2_27_M_ss1.jpeg","item_order":[0,1,3,2],"correct":0,"choice":2,"accuracy":0,"rt":27626.59999999404,"screen_resolution":[720,1280],"minimum_resolution":1,"item_set":3,"item":27,"test_form":2,"distractor":"pd","trial_type":"mars","trial_index":16,"time_elapsed":161027,"internal_node_id":"0.0-11.0-1.0","experiment":"calibration","task_version":"1.0","jspsych_version":"6.3.1","browser_interactions":0},{"rt":null,"stimulus":"<div style=\"font-size:24px;\">Loading puzzle:<br>6 / 16</div>","response":null,"trial_type":"html-keyboard-response","trial_index":17,"time_elapsed":162235,"internal_node_id":"0.0-12.0-0.0","experiment":"calibration","task_version":"1.0","jspsych_version":"6.3.1"},{"puzzle":"../static/img/is3/tf1/tf1_13_M_ss3.jpeg","item_order":[2,0,1,3],"correct":0,"choice":0,"accuracy":1,"rt":24833.70000000298,"screen_resolution":[720,1280],"minimum_resolution":1,"item_set":3,"item":13,"test_form":1,"distractor":"md","trial_type":"mars","trial_index":18,"time_elapsed":187077,"internal_node_id":"0.0-12.0-1.0","experiment":"calibration","task_version":"1.0","jspsych_version":"6.3.1","browser_interactions":0},{"rt":null,"stimulus":"<div style=\"font-size:24px;\">Loading puzzle:<br>7 / 16</div>","response":null,"trial_type":"html-keyboard-response","trial_index":19,"time_elapsed":188289,"internal_node_id":"0.0-13.0-0.0","experiment":"calibration","task_version":"1.0","jspsych_version":"6.3.1"},{"puzzle":"../static/img/is3/tf2/tf2_17_M_ss3.jpeg","item_order":[3,1,2,0],"correct":0,"choice":0,"accuracy":1,"rt":22591.39999999106,"screen_resolution":[720,1280],"minimum_resolution":1,"item_set":3,"item":17,"test_form":2,"distractor":"pd","trial_type":"mars","trial_index":20,"time_elapsed":210885,"internal_node_id":"0.0-13.0-1.0","experiment":"calibration","task_version":"1.0","jspsych_version":"6.3.1","browser_interactions":0},{"rt":null,"stimulus":"<div style=\"font-size:24px;\">Loading puzzle:<br>8 / 16</div>","response":null,"trial_type":"html-keyboard-response","trial_index":21,"time_elapsed":212104,"internal_node_id":"0.0-14.0-0.0","experiment":"calibration","task_version":"1.0","jspsych_version":"6.3.1"},{"puzzle":"../static/img/is3/tf1/tf1_62_M_ss1.jpeg","item_order":[1,0,3,2],"correct":0,"choice":0,"accuracy":1,"rt":16600.59999999404,"screen_resolution":[720,1280],"minimum_resolution":1,"item_set":3,"item":62,"test_form":1,"distractor":"md","trial_type":"mars","trial_index":22,"time_elapsed":228714,"internal_node_id":"0.0-14.0-1.0","experiment":"calibration","task_version":"1.0","jspsych_version":"6.3.1","browser_interactions":0},{"rt":null,"stimulus":"<div style=\"font-size:24px;\">Loading puzzle:<br>9 / 16</div>","response":null,"trial_type":"html-keyboard-response","trial_index":23,"time_elapsed":229923,"internal_node_id":"0.0-15.0-0.0","experiment":"calibration","task_version":"1.0","jspsych_version":"6.3.1"},{"puzzle":"../static/img/is3/tf1/tf1_40_M_ss3.jpeg","item_order":[0,3,1,2],"correct":0,"choice":0,"accuracy":1,"rt":15195.90000000596,"screen_resolution":[720,1280],"minimum_resolution":1,"item_set":3,"item":40,"test_form":1,"distractor":"md","trial_type":"mars","trial_index":24,"time_elapsed":245129,"internal_node_id":"0.0-15.0-1.0","experiment":"calibration","task_version":"1.0","jspsych_version":"6.3.1","browser_interactions":0},{"rt":null,"stimulus":"<div style=\"font-size:24px;\">Loading puzzle:<br>10 / 16</div>","response":null,"trial_type":"html-keyboard-response","trial_index":25,"time_elapsed":246333,"internal_node_id":"0.0-16.0-0.0","experiment":"calibration","task_version":"1.0","jspsych_version":"6.3.1"},{"puzzle":"../static/img/is3/tf2/tf2_72_M_ss1.jpeg","item_order":[0,3,2,1],"correct":0,"choice":0,"accuracy":1,"rt":24548.5,"screen_resolution":[720,1280],"minimum_resolution":1,"item_set":3,"item":72,"test_form":2,"distractor":"pd","trial_type":"mars","trial_index":26,"time_elapsed":270896,"internal_node_id":"0.0-16.0-1.0","experiment":"calibration","task_version":"1.0","jspsych_version":"6.3.1","browser_interactions":0},{"rt":null,"stimulus":"<div style=\"font-size:24px;\">Loading puzzle:<br>11 / 16</div>","response":null,"trial_type":"html-keyboard-response","trial_index":27,"time_elapsed":272102,"internal_node_id":"0.0-17.0-0.0","experiment":"calibration","task_version":"1.0","jspsych_version":"6.3.1"},{"puzzle":"../static/img/is3/tf2/tf2_63_M_ss1.jpeg","item_order":[0,2,3,1],"correct":0,"choice":1,"accuracy":0,"rt":26136.59999999404,"screen_resolution":[720,1280],"minimum_resolution":1,"item_set":3,"item":63,"test_form":2,"distractor":"pd","trial_type":"mars","trial_index":28,"time_elapsed":298241,"internal_node_id":"0.0-17.0-1.0","experiment":"calibration","task_version":"1.0","jspsych_version":"6.3.1","browser_interactions":0},{"rt":null,"stimulus":"<div style=\"font-size:24px;\">Loading puzzle:<br>12 / 16</div>","response":null,"trial_type":"html-keyboard-response","trial_index":29,"time_elapsed":299445,"internal_node_id":"0.0-18.0-0.0","experiment":"calibration","task_version":"1.0","jspsych_version":"6.3.1"},{"puzzle":"../static/img/is3/tf1/tf1_26_M_ss1.jpeg","item_order":[2,3,0,1],"correct":0,"choice":1,"accuracy":0,"rt":27474.5,"screen_resolution":[720,1280],"minimum_resolution":1,"item_set":3,"item":26,"test_form":1,"distractor":"md","trial_type":"mars","trial_index":30,"time_elapsed":326928,"internal_node_id":"0.0-18.0-1.0","experiment":"calibration","task_version":"1.0","jspsych_version":"6.3.1","browser_interactions":0},{"rt":null,"stimulus":"<div style=\"font-size:24px;\">Loading puzzle:<br>13 / 16</div>","response":null,"trial_type":"html-keyboard-response","trial_index":31,"time_elapsed":328136,"internal_node_id":"0.0-19.0-0.0","experiment":"calibration","task_version":"1.0","jspsych_version":"6.3.1"},{"puzzle":"../static/img/is3/tf1/tf1_46_M_ss3.jpeg","item_order":[0,1,3,2],"correct":0,"choice":3,"accuracy":0,"rt":28045.5,"screen_resolution":[720,1280],"minimum_resolution":1,"item_set":3,"item":46,"test_form":1,"distractor":"md","trial_type":"mars","trial_index":32,"time_elapsed":356191,"internal_node_id":"0.0-19.0-1.0","experiment":"calibration","task_version":"1.0","jspsych_version":"6.3.1","browser_interactions":0},{"rt":null,"stimulus":"<div style=\"font-size:24px;\">Loading puzzle:<br>14 / 16</div>","response":null,"trial_type":"html-keyboard-response","trial_index":33,"time_elapsed":357400,"internal_node_id":"0.0-20.0-0.0","experiment":"calibration","task_version":"1.0","jspsych_version":"6.3.1"},{"puzzle":"../static/img/is3/tf2/tf2_54_M_ss1.jpeg","item_order":[3,2,1,0],"correct":0,"choice":0,"accuracy":1,"rt":13389.5,"screen_resolution":[720,1280],"minimum_resolution":1,"item_set":3,"item":54,"test_form":2,"distractor":"pd","trial_type":"mars","trial_index":34,"time_elapsed":370803,"internal_node_id":"0.0-20.0-1.0","experiment":"calibration","task_version":"1.0","jspsych_version":"6.3.1","browser_interactions":0},{"rt":null,"stimulus":"<div style=\"font-size:24px;\">Loading puzzle:<br>15 / 16</div>","response":null,"trial_type":"html-keyboard-response","trial_index":35,"time_elapsed":372021,"internal_node_id":"0.0-21.0-0.0","experiment":"calibration","task_version":"1.0","jspsych_version":"6.3.1"},{"puzzle":"../static/img/is3/tf2/tf2_45_M_ss1.jpeg","item_order":[1,2,3,0],"correct":0,"choice":2,"accuracy":0,"rt":13662.40000000596,"screen_resolution":[720,1280],"minimum_resolution":1,"item_set":3,"item":45,"test_form":2,"distractor":"pd","trial_type":"mars","trial_index":36,"time_elapsed":385697,"internal_node_id":"0.0-21.0-1.0","experiment":"calibration","task_version":"1.0","jspsych_version":"6.3.1","browser_interactions":0},{"rt":null,"stimulus":"<div style=\"font-size:24px;\">Loading puzzle:<br>16 / 16</div>","response":null,"trial_type":"html-keyboard-response","trial_index":37,"time_elapsed":386909,"internal_node_id":"0.0-22.0-0.0","experiment":"calibration","task_version":"1.0","jspsych_version":"6.3.1"},{"puzzle":"../static/img/is3/tf1/tf1_29_M_ss1.jpeg","item_order":[3,2,0,1],"correct":0,"choice":0,"accuracy":1,"rt":21264.5,"screen_resolution":[720,1280],"minimum_resolution":1,"item_set":3,"item":29,"test_form":1,"distractor":"md","trial_type":"mars","trial_index":38,"time_elapsed":408183,"internal_node_id":"0.0-22.0-1.0","experiment":"calibration","task_version":"1.0","jspsych_version":"6.3.1","browser_interactions":0},{"value":[0,0,0],"trial_type":"call-function","trial_index":39,"time_elapsed":408186,"internal_node_id":"0.0-23.0","experiment":"calibration","task_version":"1.0","jspsych_version":"6.3.1"},{"view_history":[{"page_index":0,"viewing_time":1798.5999999940395}],"rt":1799,"trial_type":"instructions","trial_index":40,"time_elapsed":409987,"internal_node_id":"0.0-24.0","experiment":"calibration","task_version":"1.0","jspsych_version":"6.3.1"},{"rt":10887.699999988079,"responses":{"age":"19","gender-categorical":"Female","gender-free-response":"","ethnicity":"Not Hispanic or Latino","race":["White"],"education":"High school","free-response":""},"trial_type":"survey-demo","trial_index":41,"time_elapsed":420880,"internal_node_id":"0.0-25.0","experiment":"calibration","task_version":"1.0","jspsych_version":"6.3.1","interactions":"[{\"event\":\"fullscreenenter\",\"trial\":1,\"time\":3753}]"}]