subject,trial,item_set,short_form,item_id,item,distractor,shape_set,choice,accuracy,rt,all_loaded,minimum_resolution,browser_interactions
004bcqb25d6m8s2j3snn7exa,1,3,3,191,45,pd,2,0.0,1.0,28.599,1,1,0.0
004bcqb25d6m8s2j3snn7exa,2,3,3,244,55,pd,1,0.0,1.0,14.368,1,1,0.0
004bcqb25d6m8s2j3snn7exa,3,3,3,132,30,pd,3,0.0,1.0,10.495,1,1,0.0
004bcqb25d6m8s2j3snn7exa,4,3,3,253,58,md,1,0.0,1.0,15.5,1,1,0.0
004bcqb25d6m8s2j3snn7exa,5,3,3,52,17,pd,1,0.0,1.0,20.892,1,1,0.0
004bcqb25d6m8s2j3snn7exa,6,3,3,334,72,pd,1,0.0,1.0,11.319,1,1,0.0
004bcqb25d6m8s2j3snn7exa,7,3,3,125,29,pd,2,0.0,1.0,14.053,1,1,0.0
004bcqb25d6m8s2j3snn7exa,8,3,3,359,76,pd,2,2.0,0.0,12.562,1,1,0.0
004bcqb25d6m8s2j3snn7exa,9,3,3,149,35,pd,2,0.0,1.0,11.537,1,1,0.0
004bcqb25d6m8s2j3snn7exa,10,3,3,293,64,pd,2,0.0,1.0,28.287,1,1,0.0
004bcqb25d6m8s2j3snn7exa,11,3,3,306,66,pd,3,0.0,1.0,22.045,1,1,0.0
004bcqb25d6m8s2j3snn7exa,12,3,3,95,24,pd,2,0.0,1.0,16.62,1,1,0.0
02afxz4fercedkpoucq0nwv2,1,3,1,245,55,pd,2,0.0,1.0,24.396,1,1,0.0
02afxz4fercedkpoucq0nwv2,2,3,1,304,66,pd,1,1.0,0.0,8.528,1,1,0.0
02afxz4fercedkpoucq0nwv2,3,3,1,130,30,pd,1,0.0,1.0,18.619,1,1,0.0
02afxz4fercedkpoucq0nwv2,4,3,1,254,58,md,2,1.0,0.0,21.994,1,1,0.0
02afxz4fercedkpoucq0nwv2,5,3,1,192,45,pd,3,0.0,1.0,14.029,1,1,0.0
02afxz4fercedkpoucq0nwv2,6,3,1,126,29,pd,3,0.0,1.0,14.105,1,1,0.0
02afxz4fercedkpoucq0nwv2,7,3,1,53,17,pd,2,0.0,1.0,24.772,1,1,0.0
02afxz4fercedkpoucq0nwv2,8,3,1,96,24,pd,3,1.0,0.0,10.51,1,1,0.0
02afxz4fercedkpoucq0nwv2,9,3,1,335,72,pd,2,0.0,1.0,10.477,1,1,0.0
02afxz4fercedkpoucq0nwv2,10,3,1,294,64,pd,3,0.0,1.0,16.773,1,1,0.0
02afxz4fercedkpoucq0nwv2,11,3,1,360,76,pd,3,0.0,1.0,8.457,1,1,0.0
02afxz4fercedkpoucq0nwv2,12,3,1,150,35,pd,3,0.0,1.0,4.152,1,1,0.0
067hzn5he4dqtrtiulmlf2eu,1,3,1,245,55,pd,2,0.0,1.0,20.944,1,1,0.0
067hzn5he4dqtrtiulmlf2eu,2,3,1,304,66,pd,1,0.0,1.0,16.762,1,1,0.0
067hzn5he4dqtrtiulmlf2eu,3,3,1,130,30,pd,1,0.0,1.0,8.718,1,1,0.0
067hzn5he4dqtrtiulmlf2eu,4,3,1,254,58,md,2,0.0,1.0,11.556,1,1,0.0
067hzn5he4dqtrtiulmlf2eu,5,3,1,192,45,pd,3,0.0,1.0,13.435,1,1,0.0
067hzn5he4dqtrtiulmlf2eu,6,3,1,126,29,pd,3,0.0,1.0,7.943,1,1,0.0
067hzn5he4dqtrtiulmlf2eu,7,3,1,53,17,pd,2,1.0,0.0,26.929,1,1,0.0
067hzn5he4dqtrtiulmlf2eu,8,3,1,96,24,pd,3,0.0,1.0,17.777,1,1,0.0
067hzn5he4dqtrtiulmlf2eu,9,3,1,335,72,pd,2,0.0,1.0,19.037,1,1,0.0
067hzn5he4dqtrtiulmlf2eu,10,3,1,294,64,pd,3,0.0,1.0,15.247,1,1,0.0
067hzn5he4dqtrtiulmlf2eu,11,3,1,360,76,pd,3,0.0,1.0,27.026,1,1,0.0
067hzn5he4dqtrtiulmlf2eu,12,3,1,150,35,pd,3,,,,1,1,0.0
06z78t8e7s50q0bufotmy2sh,1,3,1,245,55,pd,2,0.0,1.0,12.819,1,1,0.0
06z78t8e7s50q0bufotmy2sh,2,3,1,304,66,pd,1,0.0,1.0,17.047,1,1,0.0
06z78t8e7s50q0bufotmy2sh,3,3,1,130,30,pd,1,0.0,1.0,8.934,1,1,0.0
06z78t8e7s50q0bufotmy2sh,4,3,1,254,58,md,2,,,,1,1,0.0
06z78t8e7s50q0bufotmy2sh,5,3,1,192,45,pd,3,0.0,1.0,25.806,1,1,0.0
06z78t8e7s50q0bufotmy2sh,6,3,1,126,29,pd,3,3.0,0.0,29.582,1,1,0.0
06z78t8e7s50q0bufotmy2sh,7,3,1,53,17,pd,2,0.0,1.0,28.963,1,1,0.0
06z78t8e7s50q0bufotmy2sh,8,3,1,96,24,pd,3,2.0,0.0,28.698,1,1,0.0
06z78t8e7s50q0bufotmy2sh,9,3,1,335,72,pd,2,0.0,1.0,28.557,1,1,0.0
06z78t8e7s50q0bufotmy2sh,10,3,1,294,64,pd,3,3.0,0.0,28.057,1,1,0.0
06z78t8e7s50q0bufotmy2sh,11,3,1,360,76,pd,3,0.0,1.0,29.939,1,1,0.0
06z78t8e7s50q0bufotmy2sh,12,3,1,150,35,pd,3,1.0,0.0,28.672,1,1,0.0
0d2k1d6l575zu9b9qntyusym,1,3,3,191,45,pd,2,0.0,1.0,18.535,1,1,0.0
0d2k1d6l575zu9b9qntyusym,2,3,3,244,55,pd,1,0.0,1.0,6.867,1,1,0.0
0d2k1d6l575zu9b9qntyusym,3,3,3,132,30,pd,3,0.0,1.0,9.338,1,1,0.0
0d2k1d6l575zu9b9qntyusym,4,3,3,253,58,md,1,0.0,1.0,15.302,1,1,0.0
0d2k1d6l575zu9b9qntyusym,5,3,3,52,17,pd,1,0.0,1.0,17.212,1,1,0.0
0d2k1d6l575zu9b9qntyusym,6,3,3,334,72,pd,1,0.0,1.0,19.96,1,1,0.0
0d2k1d6l575zu9b9qntyusym,7,3,3,125,29,pd,2,2.0,0.0,29.235,1,1,0.0
0d2k1d6l575zu9b9qntyusym,8,3,3,359,76,pd,2,0.0,1.0,12.77,1,1,0.0
0d2k1d6l575zu9b9qntyusym,9,3,3,149,35,pd,2,1.0,0.0,22.271,1,1,0.0
0d2k1d6l575zu9b9qntyusym,10,3,3,293,64,pd,2,2.0,0.0,25.549,1,1,0.0
0d2k1d6l575zu9b9qntyusym,11,3,3,306,66,pd,3,1.0,0.0,15.712,1,1,0.0
0d2k1d6l575zu9b9qntyusym,12,3,3,95,24,pd,2,1.0,0.0,10.36,1,1,0.0
0hq9i9kgzqo0g7tid31bnu3i,1,3,1,245,55,pd,2,0.0,1.0,18.969,1,1,0.0
0hq9i9kgzqo0g7tid31bnu3i,2,3,1,304,66,pd,1,0.0,1.0,6.277,1,1,0.0
0hq9i9kgzqo0g7tid31bnu3i,3,3,1,130,30,pd,1,0.0,1.0,10.732,1,1,0.0
0hq9i9kgzqo0g7tid31bnu3i,4,3,1,254,58,md,2,0.0,1.0,19.678,1,1,0.0
0hq9i9kgzqo0g7tid31bnu3i,5,3,1,192,45,pd,3,0.0,1.0,23.553,1,1,0.0
0hq9i9kgzqo0g7tid31bnu3i,6,3,1,126,29,pd,3,0.0,1.0,9.145,1,1,0.0
0hq9i9kgzqo0g7tid31bnu3i,7,3,1,53,17,pd,2,0.0,1.0,16.911,1,1,0.0
0hq9i9kgzqo0g7tid31bnu3i,8,3,1,96,24,pd,3,0.0,1.0,15.128,1,1,0.0
0hq9i9kgzqo0g7tid31bnu3i,9,3,1,335,72,pd,2,0.0,1.0,12.628,1,1,0.0
0hq9i9kgzqo0g7tid31bnu3i,10,3,1,294,64,pd,3,2.0,0.0,18.892,1,1,0.0
0hq9i9kgzqo0g7tid31bnu3i,11,3,1,360,76,pd,3,1.0,0.0,29.752,1,1,0.0
0hq9i9kgzqo0g7tid31bnu3i,12,3,1,150,35,pd,3,0.0,1.0,24.498,1,1,0.0
0hyzm81by1o1277t5zyxb36x,1,3,3,191,45,pd,2,0.0,1.0,12.364,1,1,0.0
0hyzm81by1o1277t5zyxb36x,2,3,3,244,55,pd,1,0.0,1.0,15.362,1,1,0.0
0hyzm81by1o1277t5zyxb36x,3,3,3,132,30,pd,3,0.0,1.0,13.555,1,1,0.0
0hyzm81by1o1277t5zyxb36x,4,3,3,253,58,md,1,1.0,0.0,17.827,1,1,0.0
0hyzm81by1o1277t5zyxb36x,5,3,3,52,17,pd,1,0.0,1.0,29.564,1,1,0.0
0hyzm81by1o1277t5zyxb36x,6,3,3,334,72,pd,1,3.0,0.0,29.979,1,1,0.0
0hyzm81by1o1277t5zyxb36x,7,3,3,125,29,pd,2,0.0,1.0,7.924,1,1,0.0
0hyzm81by1o1277t5zyxb36x,8,3,3,359,76,pd,2,0.0,1.0,27.268,1,1,0.0
0hyzm81by1o1277t5zyxb36x,9,3,3,149,35,pd,2,0.0,1.0,18.027,1,1,0.0
0hyzm81by1o1277t5zyxb36x,10,3,3,293,64,pd,2,,,,1,1,0.0
0hyzm81by1o1277t5zyxb36x,11,3,3,306,66,pd,3,0.0,1.0,19.135,1,1,0.0
0hyzm81by1o1277t5zyxb36x,12,3,3,95,24,pd,2,0.0,1.0,19.883,1,1,0.0
0kq7fvgpezd7c2ugltf9v8il,1,3,3,191,45,pd,2,1.0,0.0,5.405,1,1,0.0
0kq7fvgpezd7c2ugltf9v8il,2,3,3,244,55,pd,1,2.0,0.0,8.049,1,1,0.0
0kq7fvgpezd7c2ugltf9v8il,3,3,3,132,30,pd,3,0.0,1.0,6.329,1,1,0.0
0kq7fvgpezd7c2ugltf9v8il,4,3,3,253,58,md,1,3.0,0.0,9.026,1,1,2.0
0kq7fvgpezd7c2ugltf9v8il,5,3,3,52,17,pd,1,1.0,0.0,18.211,1,1,2.0
0kq7fvgpezd7c2ugltf9v8il,6,3,3,334,72,pd,1,2.0,0.0,6.834,1,1,0.0
0kq7fvgpezd7c2ugltf9v8il,7,3,3,125,29,pd,2,0.0,1.0,11.192,1,1,0.0
0kq7fvgpezd7c2ugltf9v8il,8,3,3,359,76,pd,2,2.0,0.0,3.986,1,1,0.0
0kq7fvgpezd7c2ugltf9v8il,9,3,3,149,35,pd,2,2.0,0.0,11.536,1,1,0.0
0kq7fvgpezd7c2ugltf9v8il,10,3,3,293,64,pd,2,3.0,0.0,8.714,1,1,0.0
0kq7fvgpezd7c2ugltf9v8il,11,3,3,306,66,pd,3,2.0,0.0,5.98,1,1,0.0
0kq7fvgpezd7c2ugltf9v8il,12,3,3,95,24,pd,2,0.0,1.0,4.81,1,1,0.0
0pvidhiwas7imdnhdygdgoud,1,3,1,245,55,pd,2,0.0,1.0,8.662,1,1,0.0
0pvidhiwas7imdnhdygdgoud,2,3,1,304,66,pd,1,0.0,1.0,6.595,1,1,0.0
0pvidhiwas7imdnhdygdgoud,3,3,1,130,30,pd,1,0.0,1.0,11.664,1,1,0.0
0pvidhiwas7imdnhdygdgoud,4,3,1,254,58,md,2,1.0,0.0,7.428,1,1,0.0
0pvidhiwas7imdnhdygdgoud,5,3,1,192,45,pd,3,0.0,1.0,14.662,1,1,0.0
0pvidhiwas7imdnhdygdgoud,6,3,1,126,29,pd,3,0.0,1.0,14.896,1,1,0.0
0pvidhiwas7imdnhdygdgoud,7,3,1,53,17,pd,2,1.0,0.0,10.389,1,1,0.0
0pvidhiwas7imdnhdygdgoud,8,3,1,96,24,pd,3,3.0,0.0,16.036,1,1,0.0
0pvidhiwas7imdnhdygdgoud,9,3,1,335,72,pd,2,0.0,1.0,12.507,1,1,0.0
0pvidhiwas7imdnhdygdgoud,10,3,1,294,64,pd,3,0.0,1.0,5.195,1,1,0.0
0pvidhiwas7imdnhdygdgoud,11,3,1,360,76,pd,3,1.0,0.0,9.049,1,1,0.0
0pvidhiwas7imdnhdygdgoud,12,3,1,150,35,pd,3,1.0,0.0,2.005,1,1,0.0
0q78z464n12q3nvlhv5zem5f,1,3,1,245,55,pd,2,0.0,1.0,9.219,1,1,0.0
0q78z464n12q3nvlhv5zem5f,2,3,1,304,66,pd,1,0.0,1.0,4.505,1,1,0.0
0q78z464n12q3nvlhv5zem5f,3,3,1,130,30,pd,1,0.0,1.0,8.942,1,1,0.0
0q78z464n12q3nvlhv5zem5f,4,3,1,254,58,md,2,1.0,0.0,9.33,1,1,0.0
0q78z464n12q3nvlhv5zem5f,5,3,1,192,45,pd,3,1.0,0.0,11.961,1,1,0.0
0q78z464n12q3nvlhv5zem5f,6,3,1,126,29,pd,3,0.0,1.0,9.734,1,1,0.0
0q78z464n12q3nvlhv5zem5f,7,3,1,53,17,pd,2,1.0,0.0,13.893,1,1,0.0
0q78z464n12q3nvlhv5zem5f,8,3,1,96,24,pd,3,3.0,0.0,21.461,1,1,0.0
0q78z464n12q3nvlhv5zem5f,9,3,1,335,72,pd,2,0.0,1.0,10.283,1,1,0.0
0q78z464n12q3nvlhv5zem5f,10,3,1,294,64,pd,3,2.0,0.0,13.622,1,1,0.0
0q78z464n12q3nvlhv5zem5f,11,3,1,360,76,pd,3,0.0,1.0,11.601,1,1,0.0
0q78z464n12q3nvlhv5zem5f,12,3,1,150,35,pd,3,0.0,1.0,13.205,1,1,0.0
0rx1t0vxqcf0xgvkncpwbw6r,1,3,2,190,45,pd,1,0.0,1.0,3.803,1,1,0.0
0rx1t0vxqcf0xgvkncpwbw6r,2,3,2,131,30,pd,2,1.0,0.0,10.379,1,1,0.0
0rx1t0vxqcf0xgvkncpwbw6r,3,3,2,246,55,pd,3,0.0,1.0,7.964,1,1,0.0
0rx1t0vxqcf0xgvkncpwbw6r,4,3,2,124,29,pd,1,0.0,1.0,4.993,1,1,0.0
0rx1t0vxqcf0xgvkncpwbw6r,5,3,2,292,64,pd,1,1.0,0.0,6.765,1,1,0.0
0rx1t0vxqcf0xgvkncpwbw6r,6,3,2,148,35,pd,1,0.0,1.0,4.306,1,1,0.0
0rx1t0vxqcf0xgvkncpwbw6r,7,3,2,94,24,pd,1,3.0,0.0,10.385,1,1,0.0
0rx1t0vxqcf0xgvkncpwbw6r,8,3,2,54,17,pd,3,1.0,0.0,19.506,1,1,0.0
0rx1t0vxqcf0xgvkncpwbw6r,9,3,2,255,58,md,3,1.0,0.0,13.071,1,1,0.0
0rx1t0vxqcf0xgvkncpwbw6r,10,3,2,358,76,pd,1,3.0,0.0,2.289,1,1,0.0
0rx1t0vxqcf0xgvkncpwbw6r,11,3,2,336,72,pd,3,1.0,0.0,17.069,1,1,0.0
0rx1t0vxqcf0xgvkncpwbw6r,12,3,2,305,66,pd,2,2.0,0.0,1.54,1,1,0.0
0tqxbx2dj2avuvxd908pcbu2,1,3,3,191,45,pd,2,0.0,1.0,14.337,1,1,0.0
0tqxbx2dj2avuvxd908pcbu2,2,3,3,244,55,pd,1,0.0,1.0,19.826,1,1,0.0
0tqxbx2dj2avuvxd908pcbu2,3,3,3,132,30,pd,3,0.0,1.0,12.789,1,1,0.0
0tqxbx2dj2avuvxd908pcbu2,4,3,3,253,58,md,1,0.0,1.0,11.808,1,1,0.0
0tqxbx2dj2avuvxd908pcbu2,5,3,3,52,17,pd,1,0.0,1.0,13.571,1,1,0.0
0tqxbx2dj2avuvxd908pcbu2,6,3,3,334,72,pd,1,0.0,1.0,16.731,1,1,0.0
0tqxbx2dj2avuvxd908pcbu2,7,3,3,125,29,pd,2,3.0,0.0,11.672,1,1,0.0
0tqxbx2dj2avuvxd908pcbu2,8,3,3,359,76,pd,2,0.0,1.0,17.842,1,1,0.0
0tqxbx2dj2avuvxd908pcbu2,9,3,3,149,35,pd,2,0.0,1.0,14.887,1,1,0.0
0tqxbx2dj2avuvxd908pcbu2,10,3,3,293,64,pd,2,2.0,0.0,27.926,1,1,0.0
0tqxbx2dj2avuvxd908pcbu2,11,3,3,306,66,pd,3,0.0,1.0,26.097,1,1,0.0
0tqxbx2dj2avuvxd908pcbu2,12,3,3,95,24,pd,2,0.0,1.0,6.389,1,1,0.0
0xw4hsydjiw8n5x9emapoyfs,1,3,3,191,45,pd,2,1.0,0.0,9.532,1,1,0.0
0xw4hsydjiw8n5x9emapoyfs,2,3,3,244,55,pd,1,0.0,1.0,7.285,1,1,0.0
0xw4hsydjiw8n5x9emapoyfs,3,3,3,132,30,pd,3,0.0,1.0,11.619,1,1,0.0
0xw4hsydjiw8n5x9emapoyfs,4,3,3,253,58,md,1,0.0,1.0,12.2,1,1,0.0
0xw4hsydjiw8n5x9emapoyfs,5,3,3,52,17,pd,1,0.0,1.0,14.62,1,1,0.0
0xw4hsydjiw8n5x9emapoyfs,6,3,3,334,72,pd,1,0.0,1.0,26.044,1,1,0.0
0xw4hsydjiw8n5x9emapoyfs,7,3,3,125,29,pd,2,0.0,1.0,16.661,1,1,0.0
0xw4hsydjiw8n5x9emapoyfs,8,3,3,359,76,pd,2,0.0,1.0,15.248,1,1,0.0
0xw4hsydjiw8n5x9emapoyfs,9,3,3,149,35,pd,2,0.0,1.0,18.309,1,1,0.0
0xw4hsydjiw8n5x9emapoyfs,10,3,3,293,64,pd,2,0.0,1.0,13.607,1,1,0.0
0xw4hsydjiw8n5x9emapoyfs,11,3,3,306,66,pd,3,2.0,0.0,6.921,1,1,0.0
0xw4hsydjiw8n5x9emapoyfs,12,3,3,95,24,pd,2,2.0,0.0,22.316,1,1,0.0
0xzatwpgdlc9c9yh507r49d9,1,3,1,245,55,pd,2,0.0,1.0,15.394,1,1,0.0
0xzatwpgdlc9c9yh507r49d9,2,3,1,304,66,pd,1,0.0,1.0,6.965,1,1,0.0
0xzatwpgdlc9c9yh507r49d9,3,3,1,130,30,pd,1,0.0,1.0,21.198,1,1,0.0
0xzatwpgdlc9c9yh507r49d9,4,3,1,254,58,md,2,0.0,1.0,13.348,1,1,0.0
0xzatwpgdlc9c9yh507r49d9,5,3,1,192,45,pd,3,0.0,1.0,10.313,1,1,0.0
0xzatwpgdlc9c9yh507r49d9,6,3,1,126,29,pd,3,0.0,1.0,16.076,1,1,0.0
0xzatwpgdlc9c9yh507r49d9,7,3,1,53,17,pd,2,0.0,1.0,15.024,1,1,0.0
0xzatwpgdlc9c9yh507r49d9,8,3,1,96,24,pd,3,0.0,1.0,19.455,1,1,0.0
0xzatwpgdlc9c9yh507r49d9,9,3,1,335,72,pd,2,0.0,1.0,18.324,1,1,0.0
0xzatwpgdlc9c9yh507r49d9,10,3,1,294,64,pd,3,0.0,1.0,20.117,1,1,0.0
0xzatwpgdlc9c9yh507r49d9,11,3,1,360,76,pd,3,2.0,0.0,27.826,1,1,0.0
0xzatwpgdlc9c9yh507r49d9,12,3,1,150,35,pd,3,0.0,1.0,23.474,1,1,0.0
0y65ye74hdib59v4cgafca9a,1,3,1,245,55,pd,2,2.0,0.0,6.067,1,1,0.0
0y65ye74hdib59v4cgafca9a,2,3,1,304,66,pd,1,1.0,0.0,10.153,1,1,0.0
0y65ye74hdib59v4cgafca9a,3,3,1,130,30,pd,1,3.0,0.0,6.027,1,1,0.0
0y65ye74hdib59v4cgafca9a,4,3,1,254,58,md,2,3.0,0.0,7.619,1,1,0.0
0y65ye74hdib59v4cgafca9a,5,3,1,192,45,pd,3,1.0,0.0,5.418,1,1,0.0
0y65ye74hdib59v4cgafca9a,6,3,1,126,29,pd,3,3.0,0.0,7.297,1,1,0.0
0y65ye74hdib59v4cgafca9a,7,3,1,53,17,pd,2,0.0,1.0,6.116,1,1,0.0
0y65ye74hdib59v4cgafca9a,8,3,1,96,24,pd,3,3.0,0.0,4.723,1,1,0.0
0y65ye74hdib59v4cgafca9a,9,3,1,335,72,pd,2,0.0,1.0,4.354,1,1,0.0
0y65ye74hdib59v4cgafca9a,10,3,1,294,64,pd,3,1.0,0.0,3.795,1,1,0.0
0y65ye74hdib59v4cgafca9a,11,3,1,360,76,pd,3,2.0,0.0,5.963,1,1,0.0
0y65ye74hdib59v4cgafca9a,12,3,1,150,35,pd,3,2.0,0.0,4.227,1,1,0.0
136f4agymoto6l4ciu1h10yt,1,3,1,245,55,pd,2,0.0,1.0,11.687,1,1,0.0
136f4agymoto6l4ciu1h10yt,2,3,1,304,66,pd,1,0.0,1.0,9.538,1,1,0.0
136f4agymoto6l4ciu1h10yt,3,3,1,130,30,pd,1,0.0,1.0,14.913,1,1,0.0
136f4agymoto6l4ciu1h10yt,4,3,1,254,58,md,2,0.0,1.0,16.173,1,1,0.0
136f4agymoto6l4ciu1h10yt,5,3,1,192,45,pd,3,0.0,1.0,8.66,1,1,0.0
136f4agymoto6l4ciu1h10yt,6,3,1,126,29,pd,3,0.0,1.0,9.802,1,1,0.0
136f4agymoto6l4ciu1h10yt,7,3,1,53,17,pd,2,0.0,1.0,29.704,1,1,0.0
136f4agymoto6l4ciu1h10yt,8,3,1,96,24,pd,3,0.0,1.0,26.724,1,1,0.0
136f4agymoto6l4ciu1h10yt,9,3,1,335,72,pd,2,0.0,1.0,18.518,1,1,0.0
136f4agymoto6l4ciu1h10yt,10,3,1,294,64,pd,3,0.0,1.0,27.62,1,1,0.0
136f4agymoto6l4ciu1h10yt,11,3,1,360,76,pd,3,2.0,0.0,28.392,1,1,0.0
136f4agymoto6l4ciu1h10yt,12,3,1,150,35,pd,3,2.0,0.0,29.12,1,1,0.0
139lbgvav4jcfzknxfmlub08,1,3,1,245,55,pd,2,0.0,1.0,7.503,1,1,0.0
139lbgvav4jcfzknxfmlub08,2,3,1,304,66,pd,1,2.0,0.0,5.21,1,1,0.0
139lbgvav4jcfzknxfmlub08,3,3,1,130,30,pd,1,0.0,1.0,7.885,1,1,0.0
139lbgvav4jcfzknxfmlub08,4,3,1,254,58,md,2,3.0,0.0,8.706,1,1,0.0
139lbgvav4jcfzknxfmlub08,5,3,1,192,45,pd,3,2.0,0.0,7.35,1,1,0.0
139lbgvav4jcfzknxfmlub08,6,3,1,126,29,pd,3,0.0,1.0,10.205,1,1,0.0
139lbgvav4jcfzknxfmlub08,7,3,1,53,17,pd,2,1.0,0.0,8.761,1,1,0.0
139lbgvav4jcfzknxfmlub08,8,3,1,96,24,pd,3,0.0,1.0,7.344,1,1,0.0
139lbgvav4jcfzknxfmlub08,9,3,1,335,72,pd,2,2.0,0.0,11.034,1,1,0.0
139lbgvav4jcfzknxfmlub08,10,3,1,294,64,pd,3,0.0,1.0,8.643,1,1,0.0
139lbgvav4jcfzknxfmlub08,11,3,1,360,76,pd,3,0.0,1.0,8.31,1,1,0.0
139lbgvav4jcfzknxfmlub08,12,3,1,150,35,pd,3,0.0,1.0,6.81,1,1,0.0
13gajqrkpjsrb8clh6e4in64,1,3,3,191,45,pd,2,0.0,1.0,9.18,1,1,0.0
13gajqrkpjsrb8clh6e4in64,2,3,3,244,55,pd,1,0.0,1.0,7.836,1,1,0.0
13gajqrkpjsrb8clh6e4in64,3,3,3,132,30,pd,3,0.0,1.0,9.966,1,1,0.0
13gajqrkpjsrb8clh6e4in64,4,3,3,253,58,md,1,0.0,1.0,7.801,1,1,0.0
13gajqrkpjsrb8clh6e4in64,5,3,3,52,17,pd,1,0.0,1.0,21.317,1,1,0.0
13gajqrkpjsrb8clh6e4in64,6,3,3,334,72,pd,1,0.0,1.0,14.238,1,1,0.0
13gajqrkpjsrb8clh6e4in64,7,3,3,125,29,pd,2,2.0,0.0,18.042,1,1,0.0
13gajqrkpjsrb8clh6e4in64,8,3,3,359,76,pd,2,0.0,1.0,22.719,1,1,0.0
13gajqrkpjsrb8clh6e4in64,9,3,3,149,35,pd,2,0.0,1.0,2.515,1,1,0.0
13gajqrkpjsrb8clh6e4in64,10,3,3,293,64,pd,2,3.0,0.0,8.015,1,1,0.0
13gajqrkpjsrb8clh6e4in64,11,3,3,306,66,pd,3,0.0,1.0,3.833,1,1,0.0
13gajqrkpjsrb8clh6e4in64,12,3,3,95,24,pd,2,2.0,0.0,12.103,1,1,0.0
13kmwisbf7pviwwyqawica1b,1,3,1,245,55,pd,2,2.0,0.0,11.091,1,1,0.0
13kmwisbf7pviwwyqawica1b,2,3,1,304,66,pd,1,0.0,1.0,4.945,1,1,0.0
13kmwisbf7pviwwyqawica1b,3,3,1,130,30,pd,1,0.0,1.0,6.65,1,1,0.0
13kmwisbf7pviwwyqawica1b,4,3,1,254,58,md,2,0.0,1.0,12.363,1,1,0.0
13kmwisbf7pviwwyqawica1b,5,3,1,192,45,pd,3,0.0,1.0,12.763,1,1,0.0
13kmwisbf7pviwwyqawica1b,6,3,1,126,29,pd,3,0.0,1.0,8.213,1,1,0.0
13kmwisbf7pviwwyqawica1b,7,3,1,53,17,pd,2,0.0,1.0,11.917,1,1,0.0
13kmwisbf7pviwwyqawica1b,8,3,1,96,24,pd,3,0.0,1.0,7.105,1,1,0.0
13kmwisbf7pviwwyqawica1b,9,3,1,335,72,pd,2,2.0,0.0,14.052,1,1,0.0
13kmwisbf7pviwwyqawica1b,10,3,1,294,64,pd,3,3.0,0.0,9.659,1,1,0.0
13kmwisbf7pviwwyqawica1b,11,3,1,360,76,pd,3,0.0,1.0,10.746,1,1,0.0
13kmwisbf7pviwwyqawica1b,12,3,1,150,35,pd,3,3.0,0.0,11.173,1,1,0.0
14w4fc6l0k2wuwp8vom5jymw,1,3,2,190,45,pd,1,0.0,1.0,14.232,1,1,0.0
14w4fc6l0k2wuwp8vom5jymw,2,3,2,131,30,pd,2,0.0,1.0,11.544,1,1,0.0
14w4fc6l0k2wuwp8vom5jymw,3,3,2,246,55,pd,3,0.0,1.0,25.484,1,1,0.0
14w4fc6l0k2wuwp8vom5jymw,4,3,2,124,29,pd,1,0.0,1.0,11.471,1,1,0.0
14w4fc6l0k2wuwp8vom5jymw,5,3,2,292,64,pd,1,0.0,1.0,15.5,1,1,0.0
14w4fc6l0k2wuwp8vom5jymw,6,3,2,148,35,pd,1,0.0,1.0,10.587,1,1,0.0
14w4fc6l0k2wuwp8vom5jymw,7,3,2,94,24,pd,1,0.0,1.0,14.081,1,1,0.0
14w4fc6l0k2wuwp8vom5jymw,8,3,2,54,17,pd,3,0.0,1.0,26.116,1,1,0.0
14w4fc6l0k2wuwp8vom5jymw,9,3,2,255,58,md,3,0.0,1.0,17.26,1,1,0.0
14w4fc6l0k2wuwp8vom5jymw,10,3,2,358,76,pd,1,1.0,0.0,29.758,1,1,0.0
14w4fc6l0k2wuwp8vom5jymw,11,3,2,336,72,pd,3,0.0,1.0,15.938,1,1,0.0
14w4fc6l0k2wuwp8vom5jymw,12,3,2,305,66,pd,2,0.0,1.0,20.067,1,1,0.0
16r587c254747psrx93n4r9k,1,3,2,190,45,pd,1,2.0,0.0,11.955,1,1,0.0
16r587c254747psrx93n4r9k,2,3,2,131,30,pd,2,3.0,0.0,16.582,1,1,0.0
16r587c254747psrx93n4r9k,3,3,2,246,55,pd,3,0.0,1.0,12.426,1,1,0.0
16r587c254747psrx93n4r9k,4,3,2,124,29,pd,1,3.0,0.0,7.698,1,1,0.0
16r587c254747psrx93n4r9k,5,3,2,292,64,pd,1,1.0,0.0,19.295,1,1,0.0
16r587c254747psrx93n4r9k,6,3,2,148,35,pd,1,0.0,1.0,10.198,1,1,0.0
16r587c254747psrx93n4r9k,7,3,2,94,24,pd,1,3.0,0.0,13.352,1,1,0.0
16r587c254747psrx93n4r9k,8,3,2,54,17,pd,3,0.0,1.0,12.118,1,1,0.0
16r587c254747psrx93n4r9k,9,3,2,255,58,md,3,0.0,1.0,22.307,1,1,0.0
16r587c254747psrx93n4r9k,10,3,2,358,76,pd,1,2.0,0.0,17.839,1,1,0.0
16r587c254747psrx93n4r9k,11,3,2,336,72,pd,3,2.0,0.0,15.339,1,1,0.0
16r587c254747psrx93n4r9k,12,3,2,305,66,pd,2,2.0,0.0,16.13,1,1,0.0
1be65lu7yhotwchl8gvst0jl,1,3,1,245,55,pd,2,0.0,1.0,12.391,1,1,0.0
1be65lu7yhotwchl8gvst0jl,2,3,1,304,66,pd,1,0.0,1.0,11.366,1,1,0.0
1be65lu7yhotwchl8gvst0jl,3,3,1,130,30,pd,1,0.0,1.0,20.006,1,1,0.0
1be65lu7yhotwchl8gvst0jl,4,3,1,254,58,md,2,0.0,1.0,16.475,1,1,0.0
1be65lu7yhotwchl8gvst0jl,5,3,1,192,45,pd,3,0.0,1.0,15.019,1,1,0.0
1be65lu7yhotwchl8gvst0jl,6,3,1,126,29,pd,3,0.0,1.0,17.318,1,1,0.0
1be65lu7yhotwchl8gvst0jl,7,3,1,53,17,pd,2,0.0,1.0,21.953,1,1,0.0
1be65lu7yhotwchl8gvst0jl,8,3,1,96,24,pd,3,0.0,1.0,11.872,1,1,0.0
1be65lu7yhotwchl8gvst0jl,9,3,1,335,72,pd,2,0.0,1.0,9.866,1,1,0.0
1be65lu7yhotwchl8gvst0jl,10,3,1,294,64,pd,3,0.0,1.0,26.716,1,1,0.0
1be65lu7yhotwchl8gvst0jl,11,3,1,360,76,pd,3,0.0,1.0,20.38,1,1,0.0
1be65lu7yhotwchl8gvst0jl,12,3,1,150,35,pd,3,0.0,1.0,16.784,1,1,0.0
1cmg7lirmlytme6rm23kfrkx,1,3,1,245,55,pd,2,1.0,0.0,6.954,1,1,0.0
1cmg7lirmlytme6rm23kfrkx,2,3,1,304,66,pd,1,0.0,1.0,5.229,1,1,0.0
1cmg7lirmlytme6rm23kfrkx,3,3,1,130,30,pd,1,0.0,1.0,6.984,1,1,0.0
1cmg7lirmlytme6rm23kfrkx,4,3,1,254,58,md,2,3.0,0.0,6.541,0,1,0.0
1cmg7lirmlytme6rm23kfrkx,5,3,1,192,45,pd,3,0.0,1.0,8.237,1,1,0.0
1cmg7lirmlytme6rm23kfrkx,6,3,1,126,29,pd,3,0.0,1.0,4.488,1,1,0.0
1cmg7lirmlytme6rm23kfrkx,7,3,1,53,17,pd,2,0.0,1.0,12.115,1,1,0.0
1cmg7lirmlytme6rm23kfrkx,8,3,1,96,24,pd,3,0.0,1.0,7.926,1,1,0.0
1cmg7lirmlytme6rm23kfrkx,9,3,1,335,72,pd,2,1.0,0.0,9.4,1,1,0.0
1cmg7lirmlytme6rm23kfrkx,10,3,1,294,64,pd,3,3.0,0.0,8.023,1,1,0.0
1cmg7lirmlytme6rm23kfrkx,11,3,1,360,76,pd,3,0.0,1.0,7.591,1,1,0.0
1cmg7lirmlytme6rm23kfrkx,12,3,1,150,35,pd,3,3.0,0.0,10.415,1,1,0.0
1du2rpx4zm9oyr4l38kx9gda,1,3,3,191,45,pd,2,0.0,1.0,12.07,1,1,0.0
1du2rpx4zm9oyr4l38kx9gda,2,3,3,244,55,pd,1,0.0,1.0,11.603,1,1,0.0
1du2rpx4zm9oyr4l38kx9gda,3,3,3,132,30,pd,3,3.0,0.0,11.339,1,1,0.0
1du2rpx4zm9oyr4l38kx9gda,4,3,3,253,58,md,1,0.0,1.0,10.657,1,1,0.0
1du2rpx4zm9oyr4l38kx9gda,5,3,3,52,17,pd,1,1.0,0.0,15.521,1,1,0.0
1du2rpx4zm9oyr4l38kx9gda,6,3,3,334,72,pd,1,2.0,0.0,11.242,1,1,0.0
1du2rpx4zm9oyr4l38kx9gda,7,3,3,125,29,pd,2,0.0,1.0,9.346,1,1,0.0
1du2rpx4zm9oyr4l38kx9gda,8,3,3,359,76,pd,2,2.0,0.0,10.803,1,1,0.0
1du2rpx4zm9oyr4l38kx9gda,9,3,3,149,35,pd,2,0.0,1.0,8.664,1,1,0.0
1du2rpx4zm9oyr4l38kx9gda,10,3,3,293,64,pd,2,1.0,0.0,13.504,1,1,0.0
1du2rpx4zm9oyr4l38kx9gda,11,3,3,306,66,pd,3,0.0,1.0,10.819,1,1,0.0
1du2rpx4zm9oyr4l38kx9gda,12,3,3,95,24,pd,2,2.0,0.0,9.795,1,1,0.0
1fb39af23lxd5zvebkgzvjtq,1,3,1,245,55,pd,2,0.0,1.0,6.657,1,1,0.0
1fb39af23lxd5zvebkgzvjtq,2,3,1,304,66,pd,1,0.0,1.0,5.888,1,1,0.0
1fb39af23lxd5zvebkgzvjtq,3,3,1,130,30,pd,1,0.0,1.0,8.8,1,1,0.0
1fb39af23lxd5zvebkgzvjtq,4,3,1,254,58,md,2,0.0,1.0,17.202,1,1,0.0
1fb39af23lxd5zvebkgzvjtq,5,3,1,192,45,pd,3,2.0,0.0,10.547,1,1,0.0
1fb39af23lxd5zvebkgzvjtq,6,3,1,126,29,pd,3,0.0,1.0,14.292,1,1,0.0
1fb39af23lxd5zvebkgzvjtq,7,3,1,53,17,pd,2,1.0,0.0,14.571,1,1,0.0
1fb39af23lxd5zvebkgzvjtq,8,3,1,96,24,pd,3,0.0,1.0,12.451,1,1,0.0
1fb39af23lxd5zvebkgzvjtq,9,3,1,335,72,pd,2,0.0,1.0,17.708,1,1,0.0
1fb39af23lxd5zvebkgzvjtq,10,3,1,294,64,pd,3,1.0,0.0,13.492,1,1,0.0
1fb39af23lxd5zvebkgzvjtq,11,3,1,360,76,pd,3,2.0,0.0,10.051,1,1,0.0
1fb39af23lxd5zvebkgzvjtq,12,3,1,150,35,pd,3,0.0,1.0,21.052,1,1,0.0
1oumhgderehwi04x4afr4t3f,1,3,2,190,45,pd,1,0.0,1.0,7.373,1,1,0.0
1oumhgderehwi04x4afr4t3f,2,3,2,131,30,pd,2,0.0,1.0,9.068,1,1,0.0
1oumhgderehwi04x4afr4t3f,3,3,2,246,55,pd,3,0.0,1.0,12.925,1,1,0.0
1oumhgderehwi04x4afr4t3f,4,3,2,124,29,pd,1,0.0,1.0,9.374,1,1,0.0
1oumhgderehwi04x4afr4t3f,5,3,2,292,64,pd,1,0.0,1.0,6.655,1,1,0.0
1oumhgderehwi04x4afr4t3f,6,3,2,148,35,pd,1,0.0,1.0,5.394,1,1,0.0
1oumhgderehwi04x4afr4t3f,7,3,2,94,24,pd,1,0.0,1.0,11.008,1,1,0.0
1oumhgderehwi04x4afr4t3f,8,3,2,54,17,pd,3,0.0,1.0,18.698,1,1,0.0
1oumhgderehwi04x4afr4t3f,9,3,2,255,58,md,3,0.0,1.0,8.46,1,1,0.0
1oumhgderehwi04x4afr4t3f,10,3,2,358,76,pd,1,2.0,0.0,9.157,1,1,0.0
1oumhgderehwi04x4afr4t3f,11,3,2,336,72,pd,3,3.0,0.0,16.419,1,1,0.0
1oumhgderehwi04x4afr4t3f,12,3,2,305,66,pd,2,0.0,1.0,9.867,1,1,0.0
1rkzphe3y3v1tllwtrrmws3g,1,3,1,245,55,pd,2,0.0,1.0,28.95,1,1,0.0
1rkzphe3y3v1tllwtrrmws3g,2,3,1,304,66,pd,1,0.0,1.0,10.538,1,1,0.0
1rkzphe3y3v1tllwtrrmws3g,3,3,1,130,30,pd,1,0.0,1.0,25.464,1,1,0.0
1rkzphe3y3v1tllwtrrmws3g,4,3,1,254,58,md,2,1.0,0.0,20.468,1,1,0.0
1rkzphe3y3v1tllwtrrmws3g,5,3,1,192,45,pd,3,0.0,1.0,27.646,1,1,0.0
1rkzphe3y3v1tllwtrrmws3g,6,3,1,126,29,pd,3,0.0,1.0,16.544,1,1,0.0
1rkzphe3y3v1tllwtrrmws3g,7,3,1,53,17,pd,2,1.0,0.0,27.78,1,1,0.0
1rkzphe3y3v1tllwtrrmws3g,8,3,1,96,24,pd,3,0.0,1.0,29.799,1,1,0.0
1rkzphe3y3v1tllwtrrmws3g,9,3,1,335,72,pd,2,0.0,1.0,16.935,1,1,0.0
1rkzphe3y3v1tllwtrrmws3g,10,3,1,294,64,pd,3,0.0,1.0,25.782,1,1,0.0
1rkzphe3y3v1tllwtrrmws3g,11,3,1,360,76,pd,3,0.0,1.0,9.843,1,1,0.0
1rkzphe3y3v1tllwtrrmws3g,12,3,1,150,35,pd,3,0.0,1.0,22.058,1,1,0.0
1rtooz9lw59r3sgm2l6iax13,1,3,3,191,45,pd,2,0.0,1.0,8.515,1,1,0.0
1rtooz9lw59r3sgm2l6iax13,2,3,3,244,55,pd,1,0.0,1.0,7.581,1,1,0.0
1rtooz9lw59r3sgm2l6iax13,3,3,3,132,30,pd,3,0.0,1.0,13.459,1,1,0.0
1rtooz9lw59r3sgm2l6iax13,4,3,3,253,58,md,1,0.0,1.0,15.088,1,1,0.0
1rtooz9lw59r3sgm2l6iax13,5,3,3,52,17,pd,1,0.0,1.0,25.562,1,1,0.0
1rtooz9lw59r3sgm2l6iax13,6,3,3,334,72,pd,1,3.0,0.0,20.169,1,1,0.0
1rtooz9lw59r3sgm2l6iax13,7,3,3,125,29,pd,2,0.0,1.0,14.445,1,1,0.0
1rtooz9lw59r3sgm2l6iax13,8,3,3,359,76,pd,2,0.0,1.0,27.993,1,1,0.0
1rtooz9lw59r3sgm2l6iax13,9,3,3,149,35,pd,2,1.0,0.0,25.498,1,1,0.0
1rtooz9lw59r3sgm2l6iax13,10,3,3,293,64,pd,2,0.0,1.0,26.409,1,1,0.0
1rtooz9lw59r3sgm2l6iax13,11,3,3,306,66,pd,3,0.0,1.0,28.14,1,1,0.0
1rtooz9lw59r3sgm2l6iax13,12,3,3,95,24,pd,2,0.0,1.0,21.418,1,1,0.0
21s8bcxjtrmpr5531dcl1nks,1,3,1,245,55,pd,2,0.0,1.0,12.079,1,1,0.0
21s8bcxjtrmpr5531dcl1nks,2,3,1,304,66,pd,1,0.0,1.0,4.588,1,1,0.0
21s8bcxjtrmpr5531dcl1nks,3,3,1,130,30,pd,1,0.0,1.0,8.893,1,1,0.0
21s8bcxjtrmpr5531dcl1nks,4,3,1,254,58,md,2,3.0,0.0,9.824,1,1,0.0
21s8bcxjtrmpr5531dcl1nks,5,3,1,192,45,pd,3,1.0,0.0,18.381,1,1,0.0
21s8bcxjtrmpr5531dcl1nks,6,3,1,126,29,pd,3,0.0,1.0,10.899,1,1,0.0
21s8bcxjtrmpr5531dcl1nks,7,3,1,53,17,pd,2,1.0,0.0,25.026,1,1,0.0
21s8bcxjtrmpr5531dcl1nks,8,3,1,96,24,pd,3,2.0,0.0,9.346,1,1,0.0
21s8bcxjtrmpr5531dcl1nks,9,3,1,335,72,pd,2,0.0,1.0,13.718,1,1,0.0
21s8bcxjtrmpr5531dcl1nks,10,3,1,294,64,pd,3,0.0,1.0,9.646,1,1,0.0
21s8bcxjtrmpr5531dcl1nks,11,3,1,360,76,pd,3,0.0,1.0,9.106,1,1,0.0
21s8bcxjtrmpr5531dcl1nks,12,3,1,150,35,pd,3,1.0,0.0,12.498,1,1,0.0
25ag8leq4xte4p6bd5mc76en,1,3,1,245,55,pd,2,0.0,1.0,12.546,1,1,0.0
25ag8leq4xte4p6bd5mc76en,2,3,1,304,66,pd,1,0.0,1.0,11.455,1,1,0.0
25ag8leq4xte4p6bd5mc76en,3,3,1,130,30,pd,1,0.0,1.0,12.784,1,1,0.0
25ag8leq4xte4p6bd5mc76en,4,3,1,254,58,md,2,3.0,0.0,29.309,1,1,0.0
25ag8leq4xte4p6bd5mc76en,5,3,1,192,45,pd,3,0.0,1.0,11.782,1,1,0.0
25ag8leq4xte4p6bd5mc76en,6,3,1,126,29,pd,3,0.0,1.0,5.525,1,1,0.0
25ag8leq4xte4p6bd5mc76en,7,3,1,53,17,pd,2,2.0,0.0,9.805,1,1,0.0
25ag8leq4xte4p6bd5mc76en,8,3,1,96,24,pd,3,0.0,1.0,8.506,1,1,0.0
25ag8leq4xte4p6bd5mc76en,9,3,1,335,72,pd,2,0.0,1.0,23.54,1,1,0.0
25ag8leq4xte4p6bd5mc76en,10,3,1,294,64,pd,3,0.0,1.0,11.274,1,1,0.0
25ag8leq4xte4p6bd5mc76en,11,3,1,360,76,pd,3,3.0,0.0,7.624,1,1,0.0
25ag8leq4xte4p6bd5mc76en,12,3,1,150,35,pd,3,0.0,1.0,9.392,1,1,0.0
2a49tpjstnyonnrf4g8koc0m,1,3,1,245,55,pd,2,2.0,0.0,12.071,1,1,0.0
2a49tpjstnyonnrf4g8koc0m,2,3,1,304,66,pd,1,0.0,1.0,6.157,1,1,0.0
2a49tpjstnyonnrf4g8koc0m,3,3,1,130,30,pd,1,0.0,1.0,12.204,1,1,0.0
2a49tpjstnyonnrf4g8koc0m,4,3,1,254,58,md,2,1.0,0.0,9.006,1,1,0.0
2a49tpjstnyonnrf4g8koc0m,5,3,1,192,45,pd,3,0.0,1.0,10.819,1,1,0.0
2a49tpjstnyonnrf4g8koc0m,6,3,1,126,29,pd,3,3.0,0.0,11.0,1,1,0.0
2a49tpjstnyonnrf4g8koc0m,7,3,1,53,17,pd,2,0.0,1.0,10.758,1,1,0.0
2a49tpjstnyonnrf4g8koc0m,8,3,1,96,24,pd,3,1.0,0.0,13.061,1,1,0.0
2a49tpjstnyonnrf4g8koc0m,9,3,1,335,72,pd,2,0.0,1.0,11.153,1,1,0.0
2a49tpjstnyonnrf4g8koc0m,10,3,1,294,64,pd,3,1.0,0.0,11.497,1,1,0.0
2a49tpjstnyonnrf4g8koc0m,11,3,1,360,76,pd,3,3.0,0.0,14.3,1,1,0.0
2a49tpjstnyonnrf4g8koc0m,12,3,1,150,35,pd,3,0.0,1.0,11.148,1,1,0.0
2ajy8k3cd8e5h9puf8o17lyo,1,3,3,191,45,pd,2,0.0,1.0,12.685,1,1,0.0
2ajy8k3cd8e5h9puf8o17lyo,2,3,3,244,55,pd,1,0.0,1.0,6.302,1,1,0.0
2ajy8k3cd8e5h9puf8o17lyo,3,3,3,132,30,pd,3,0.0,1.0,7.312,1,1,0.0
2ajy8k3cd8e5h9puf8o17lyo,4,3,3,253,58,md,1,0.0,1.0,11.77,1,1,0.0
2ajy8k3cd8e5h9puf8o17lyo,5,3,3,52,17,pd,1,0.0,1.0,6.282,1,1,0.0
2ajy8k3cd8e5h9puf8o17lyo,6,3,3,334,72,pd,1,0.0,1.0,6.658,1,1,0.0
2ajy8k3cd8e5h9puf8o17lyo,7,3,3,125,29,pd,2,0.0,1.0,9.967,1,1,0.0
2ajy8k3cd8e5h9puf8o17lyo,8,3,3,359,76,pd,2,0.0,1.0,22.853,1,1,0.0
2ajy8k3cd8e5h9puf8o17lyo,9,3,3,149,35,pd,2,0.0,1.0,14.112,1,1,0.0
2ajy8k3cd8e5h9puf8o17lyo,10,3,3,293,64,pd,2,2.0,0.0,17.07,1,1,0.0
2ajy8k3cd8e5h9puf8o17lyo,11,3,3,306,66,pd,3,0.0,1.0,11.567,1,1,0.0
2ajy8k3cd8e5h9puf8o17lyo,12,3,3,95,24,pd,2,0.0,1.0,23.132,1,1,0.0
2doyyzx80ym5y1nn9cuc5dgg,1,3,2,190,45,pd,1,0.0,1.0,24.378,1,1,0.0
2doyyzx80ym5y1nn9cuc5dgg,2,3,2,131,30,pd,2,0.0,1.0,18.817,1,1,0.0
2doyyzx80ym5y1nn9cuc5dgg,3,3,2,246,55,pd,3,0.0,1.0,17.699,1,1,0.0
2doyyzx80ym5y1nn9cuc5dgg,4,3,2,124,29,pd,1,0.0,1.0,11.73,1,1,0.0
2doyyzx80ym5y1nn9cuc5dgg,5,3,2,292,64,pd,1,0.0,1.0,22.484,1,1,0.0
2doyyzx80ym5y1nn9cuc5dgg,6,3,2,148,35,pd,1,0.0,1.0,15.12,1,1,0.0
2doyyzx80ym5y1nn9cuc5dgg,7,3,2,94,24,pd,1,0.0,1.0,12.65,1,1,0.0
2doyyzx80ym5y1nn9cuc5dgg,8,3,2,54,17,pd,3,0.0,1.0,25.291,1,1,0.0
2doyyzx80ym5y1nn9cuc5dgg,9,3,2,255,58,md,3,0.0,1.0,23.866,1,1,0.0
2doyyzx80ym5y1nn9cuc5dgg,10,3,2,358,76,pd,1,1.0,0.0,22.939,1,1,0.0
2doyyzx80ym5y1nn9cuc5dgg,11,3,2,336,72,pd,3,0.0,1.0,10.859,1,1,0.0
2doyyzx80ym5y1nn9cuc5dgg,12,3,2,305,66,pd,2,0.0,1.0,7.898,1,1,0.0
2fdg3adknlqvzqcaveryv2f4,1,3,2,190,45,pd,1,2.0,0.0,17.356,1,1,0.0
2fdg3adknlqvzqcaveryv2f4,2,3,2,131,30,pd,2,0.0,1.0,21.287,1,1,0.0
2fdg3adknlqvzqcaveryv2f4,3,3,2,246,55,pd,3,0.0,1.0,15.779,1,1,0.0
2fdg3adknlqvzqcaveryv2f4,4,3,2,124,29,pd,1,0.0,1.0,10.813,1,1,0.0
2fdg3adknlqvzqcaveryv2f4,5,3,2,292,64,pd,1,0.0,1.0,17.87,1,1,0.0
2fdg3adknlqvzqcaveryv2f4,6,3,2,148,35,pd,1,0.0,1.0,9.616,1,1,0.0
2fdg3adknlqvzqcaveryv2f4,7,3,2,94,24,pd,1,0.0,1.0,14.448,1,1,0.0
2fdg3adknlqvzqcaveryv2f4,8,3,2,54,17,pd,3,0.0,1.0,12.555,1,1,0.0
2fdg3adknlqvzqcaveryv2f4,9,3,2,255,58,md,3,0.0,1.0,19.099,1,1,0.0
2fdg3adknlqvzqcaveryv2f4,10,3,2,358,76,pd,1,0.0,1.0,18.863,1,1,0.0
2fdg3adknlqvzqcaveryv2f4,11,3,2,336,72,pd,3,2.0,0.0,14.364,1,1,0.0
2fdg3adknlqvzqcaveryv2f4,12,3,2,305,66,pd,2,0.0,1.0,22.02,1,1,0.0
2hpq13v4pj9yflupdr03my7p,1,3,3,191,45,pd,2,0.0,1.0,9.835,1,1,0.0
2hpq13v4pj9yflupdr03my7p,2,3,3,244,55,pd,1,0.0,1.0,5.322,1,1,0.0
2hpq13v4pj9yflupdr03my7p,3,3,3,132,30,pd,3,0.0,1.0,7.004,1,1,0.0
2hpq13v4pj9yflupdr03my7p,4,3,3,253,58,md,1,1.0,0.0,8.574,1,1,0.0
2hpq13v4pj9yflupdr03my7p,5,3,3,52,17,pd,1,0.0,1.0,7.095,1,1,0.0
2hpq13v4pj9yflupdr03my7p,6,3,3,334,72,pd,1,0.0,1.0,8.864,1,1,0.0
2hpq13v4pj9yflupdr03my7p,7,3,3,125,29,pd,2,3.0,0.0,10.115,1,1,0.0
2hpq13v4pj9yflupdr03my7p,8,3,3,359,76,pd,2,0.0,1.0,5.352,1,1,0.0
2hpq13v4pj9yflupdr03my7p,9,3,3,149,35,pd,2,0.0,1.0,6.18,1,1,0.0
2hpq13v4pj9yflupdr03my7p,10,3,3,293,64,pd,2,1.0,0.0,8.724,1,1,0.0
2hpq13v4pj9yflupdr03my7p,11,3,3,306,66,pd,3,1.0,0.0,8.118,1,1,0.0
2hpq13v4pj9yflupdr03my7p,12,3,3,95,24,pd,2,1.0,0.0,6.821,1,1,0.0
2imrcuofmk3r36n5luaqtkof,1,3,1,245,55,pd,2,0.0,1.0,11.711,1,1,0.0
2imrcuofmk3r36n5luaqtkof,2,3,1,304,66,pd,1,0.0,1.0,7.242,1,1,0.0
2imrcuofmk3r36n5luaqtkof,3,3,1,130,30,pd,1,0.0,1.0,4.573,1,1,0.0
2imrcuofmk3r36n5luaqtkof,4,3,1,254,58,md,2,0.0,1.0,12.759,1,1,0.0
2imrcuofmk3r36n5luaqtkof,5,3,1,192,45,pd,3,0.0,1.0,8.254,1,1,0.0
2imrcuofmk3r36n5luaqtkof,6,3,1,126,29,pd,3,0.0,1.0,26.795,1,1,0.0
2imrcuofmk3r36n5luaqtkof,7,3,1,53,17,pd,2,0.0,1.0,15.749,1,1,0.0
2imrcuofmk3r36n5luaqtkof,8,3,1,96,24,pd,3,0.0,1.0,24.911,1,1,0.0
2imrcuofmk3r36n5luaqtkof,9,3,1,335,72,pd,2,1.0,0.0,15.273,1,1,0.0
2imrcuofmk3r36n5luaqtkof,10,3,1,294,64,pd,3,1.0,0.0,21.658,1,1,0.0
2imrcuofmk3r36n5luaqtkof,11,3,1,360,76,pd,3,1.0,0.0,13.56,1,1,0.0
2imrcuofmk3r36n5luaqtkof,12,3,1,150,35,pd,3,0.0,1.0,21.49,1,1,0.0
2jlme8pijrvlpefy54ynuym2,1,3,1,245,55,pd,2,1.0,0.0,27.479,1,1,0.0
2jlme8pijrvlpefy54ynuym2,2,3,1,304,66,pd,1,0.0,1.0,13.062,1,1,0.0
2jlme8pijrvlpefy54ynuym2,3,3,1,130,30,pd,1,0.0,1.0,9.466,1,1,0.0
2jlme8pijrvlpefy54ynuym2,4,3,1,254,58,md,2,1.0,0.0,14.32,1,1,0.0
2jlme8pijrvlpefy54ynuym2,5,3,1,192,45,pd,3,1.0,0.0,12.343,1,1,0.0
2jlme8pijrvlpefy54ynuym2,6,3,1,126,29,pd,3,0.0,1.0,18.118,1,1,0.0
2jlme8pijrvlpefy54ynuym2,7,3,1,53,17,pd,2,0.0,1.0,26.759,1,1,0.0
2jlme8pijrvlpefy54ynuym2,8,3,1,96,24,pd,3,0.0,1.0,11.357,1,1,0.0
2jlme8pijrvlpefy54ynuym2,9,3,1,335,72,pd,2,2.0,0.0,12.97,1,1,0.0
2jlme8pijrvlpefy54ynuym2,10,3,1,294,64,pd,3,0.0,1.0,21.713,1,1,0.0
2jlme8pijrvlpefy54ynuym2,11,3,1,360,76,pd,3,0.0,1.0,12.319,1,1,0.0
2jlme8pijrvlpefy54ynuym2,12,3,1,150,35,pd,3,0.0,1.0,18.328,1,1,0.0
2lv7bshw3ztkhd2hpg8vy7ls,1,3,3,191,45,pd,2,0.0,1.0,29.733,1,1,0.0
2lv7bshw3ztkhd2hpg8vy7ls,2,3,3,244,55,pd,1,0.0,1.0,17.388,1,1,0.0
2lv7bshw3ztkhd2hpg8vy7ls,3,3,3,132,30,pd,3,2.0,0.0,25.657,1,1,0.0
2lv7bshw3ztkhd2hpg8vy7ls,4,3,3,253,58,md,1,0.0,1.0,23.548,1,1,0.0
2lv7bshw3ztkhd2hpg8vy7ls,5,3,3,52,17,pd,1,0.0,1.0,18.667,1,1,0.0
2lv7bshw3ztkhd2hpg8vy7ls,6,3,3,334,72,pd,1,0.0,1.0,11.35,1,1,0.0
2lv7bshw3ztkhd2hpg8vy7ls,7,3,3,125,29,pd,2,0.0,1.0,18.721,1,1,0.0
2lv7bshw3ztkhd2hpg8vy7ls,8,3,3,359,76,pd,2,1.0,0.0,29.327,1,1,0.0
2lv7bshw3ztkhd2hpg8vy7ls,9,3,3,149,35,pd,2,0.0,1.0,16.04,1,1,0.0
2lv7bshw3ztkhd2hpg8vy7ls,10,3,3,293,64,pd,2,0.0,1.0,21.302,1,1,0.0
2lv7bshw3ztkhd2hpg8vy7ls,11,3,3,306,66,pd,3,1.0,0.0,21.485,1,1,0.0
2lv7bshw3ztkhd2hpg8vy7ls,12,3,3,95,24,pd,2,2.0,0.0,27.611,1,1,0.0
2p6npsmiutpl2uy7hh6cmuqp,1,3,2,190,45,pd,1,0.0,1.0,6.864,1,1,0.0
2p6npsmiutpl2uy7hh6cmuqp,2,3,2,131,30,pd,2,0.0,1.0,12.534,1,1,0.0
2p6npsmiutpl2uy7hh6cmuqp,3,3,2,246,55,pd,3,0.0,1.0,11.66,1,1,0.0
2p6npsmiutpl2uy7hh6cmuqp,4,3,2,124,29,pd,1,0.0,1.0,8.38,1,1,0.0
2p6npsmiutpl2uy7hh6cmuqp,5,3,2,292,64,pd,1,0.0,1.0,10.606,1,1,0.0
2p6npsmiutpl2uy7hh6cmuqp,6,3,2,148,35,pd,1,0.0,1.0,12.432,1,1,0.0
2p6npsmiutpl2uy7hh6cmuqp,7,3,2,94,24,pd,1,0.0,1.0,7.938,1,1,0.0
2p6npsmiutpl2uy7hh6cmuqp,8,3,2,54,17,pd,3,0.0,1.0,7.631,1,1,0.0
2p6npsmiutpl2uy7hh6cmuqp,9,3,2,255,58,md,3,0.0,1.0,13.257,1,1,0.0
2p6npsmiutpl2uy7hh6cmuqp,10,3,2,358,76,pd,1,1.0,0.0,17.041,1,1,0.0
2p6npsmiutpl2uy7hh6cmuqp,11,3,2,336,72,pd,3,0.0,1.0,10.672,1,1,0.0
2p6npsmiutpl2uy7hh6cmuqp,12,3,2,305,66,pd,2,0.0,1.0,12.556,1,1,0.0
2u17wfoovfto4iks011dibw7,1,3,2,190,45,pd,1,0.0,1.0,15.324,1,1,0.0
2u17wfoovfto4iks011dibw7,2,3,2,131,30,pd,2,0.0,1.0,15.713,1,1,0.0
2u17wfoovfto4iks011dibw7,3,3,2,246,55,pd,3,0.0,1.0,8.063,1,1,0.0
2u17wfoovfto4iks011dibw7,4,3,2,124,29,pd,1,0.0,1.0,9.498,1,1,0.0
2u17wfoovfto4iks011dibw7,5,3,2,292,64,pd,1,0.0,1.0,13.354,1,1,0.0
2u17wfoovfto4iks011dibw7,6,3,2,148,35,pd,1,0.0,1.0,9.76,1,1,0.0
2u17wfoovfto4iks011dibw7,7,3,2,94,24,pd,1,3.0,0.0,24.378,1,1,0.0
2u17wfoovfto4iks011dibw7,8,3,2,54,17,pd,3,0.0,1.0,23.882,1,1,0.0
2u17wfoovfto4iks011dibw7,9,3,2,255,58,md,3,0.0,1.0,13.968,1,1,0.0
2u17wfoovfto4iks011dibw7,10,3,2,358,76,pd,1,1.0,0.0,10.777,1,1,0.0
2u17wfoovfto4iks011dibw7,11,3,2,336,72,pd,3,0.0,1.0,15.353,1,1,0.0
2u17wfoovfto4iks011dibw7,12,3,2,305,66,pd,2,0.0,1.0,5.266,1,1,0.0
2ydcu5breoenaqer3phmkei3,1,3,1,245,55,pd,2,1.0,0.0,7.466,1,1,0.0
2ydcu5breoenaqer3phmkei3,2,3,1,304,66,pd,1,0.0,1.0,6.018,1,1,0.0
2ydcu5breoenaqer3phmkei3,3,3,1,130,30,pd,1,3.0,0.0,6.73,1,1,0.0
2ydcu5breoenaqer3phmkei3,4,3,1,254,58,md,2,0.0,1.0,6.896,1,1,0.0
2ydcu5breoenaqer3phmkei3,5,3,1,192,45,pd,3,0.0,1.0,12.753,1,1,0.0
2ydcu5breoenaqer3phmkei3,6,3,1,126,29,pd,3,0.0,1.0,3.489,1,1,0.0
2ydcu5breoenaqer3phmkei3,7,3,1,53,17,pd,2,0.0,1.0,7.279,1,1,0.0
2ydcu5breoenaqer3phmkei3,8,3,1,96,24,pd,3,2.0,0.0,7.616,1,1,0.0
2ydcu5breoenaqer3phmkei3,9,3,1,335,72,pd,2,0.0,1.0,9.265,1,1,0.0
2ydcu5breoenaqer3phmkei3,10,3,1,294,64,pd,3,0.0,1.0,5.332,1,1,0.0
2ydcu5breoenaqer3phmkei3,11,3,1,360,76,pd,3,3.0,0.0,9.113,1,1,0.0
2ydcu5breoenaqer3phmkei3,12,3,1,150,35,pd,3,0.0,1.0,7.105,1,1,0.0
34q529ick0oof6247bs0lo4f,1,3,2,190,45,pd,1,0.0,1.0,11.039,1,1,0.0
34q529ick0oof6247bs0lo4f,2,3,2,131,30,pd,2,0.0,1.0,12.043,1,1,0.0
34q529ick0oof6247bs0lo4f,3,3,2,246,55,pd,3,0.0,1.0,9.037,1,1,0.0
34q529ick0oof6247bs0lo4f,4,3,2,124,29,pd,1,0.0,1.0,10.373,1,1,0.0
34q529ick0oof6247bs0lo4f,5,3,2,292,64,pd,1,0.0,1.0,10.894,1,1,0.0
34q529ick0oof6247bs0lo4f,6,3,2,148,35,pd,1,0.0,1.0,6.788,1,1,0.0
34q529ick0oof6247bs0lo4f,7,3,2,94,24,pd,1,0.0,1.0,7.289,1,1,0.0
34q529ick0oof6247bs0lo4f,8,3,2,54,17,pd,3,0.0,1.0,14.816,1,1,0.0
34q529ick0oof6247bs0lo4f,9,3,2,255,58,md,3,0.0,1.0,7.673,1,1,0.0
34q529ick0oof6247bs0lo4f,10,3,2,358,76,pd,1,3.0,0.0,4.471,1,1,0.0
34q529ick0oof6247bs0lo4f,11,3,2,336,72,pd,3,3.0,0.0,4.874,1,1,0.0
34q529ick0oof6247bs0lo4f,12,3,2,305,66,pd,2,0.0,1.0,14.182,1,1,0.0
36t8q1lrjomfk5vzpk6n47vp,1,3,1,245,55,pd,2,0.0,1.0,15.157,1,1,0.0
36t8q1lrjomfk5vzpk6n47vp,2,3,1,304,66,pd,1,0.0,1.0,12.177,1,1,0.0
36t8q1lrjomfk5vzpk6n47vp,3,3,1,130,30,pd,1,0.0,1.0,22.379,1,1,0.0
36t8q1lrjomfk5vzpk6n47vp,4,3,1,254,58,md,2,1.0,0.0,26.177,1,1,0.0
36t8q1lrjomfk5vzpk6n47vp,5,3,1,192,45,pd,3,0.0,1.0,17.598,1,1,0.0
36t8q1lrjomfk5vzpk6n47vp,6,3,1,126,29,pd,3,0.0,1.0,13.81,1,1,0.0
36t8q1lrjomfk5vzpk6n47vp,7,3,1,53,17,pd,2,0.0,1.0,18.166,1,1,0.0
36t8q1lrjomfk5vzpk6n47vp,8,3,1,96,24,pd,3,2.0,0.0,12.045,1,1,0.0
36t8q1lrjomfk5vzpk6n47vp,9,3,1,335,72,pd,2,2.0,0.0,24.534,1,1,0.0
36t8q1lrjomfk5vzpk6n47vp,10,3,1,294,64,pd,3,0.0,1.0,4.465,1,1,0.0
36t8q1lrjomfk5vzpk6n47vp,11,3,1,360,76,pd,3,2.0,0.0,6.958,1,1,0.0
36t8q1lrjomfk5vzpk6n47vp,12,3,1,150,35,pd,3,3.0,0.0,15.079,1,1,0.0
39scl9qfis739lutin4aqgmb,1,3,1,245,55,pd,2,0.0,1.0,18.706,1,1,0.0
39scl9qfis739lutin4aqgmb,2,3,1,304,66,pd,1,0.0,1.0,7.219,1,1,0.0
39scl9qfis739lutin4aqgmb,3,3,1,130,30,pd,1,0.0,1.0,7.668,1,1,0.0
39scl9qfis739lutin4aqgmb,4,3,1,254,58,md,2,0.0,1.0,26.477,1,1,0.0
39scl9qfis739lutin4aqgmb,5,3,1,192,45,pd,3,0.0,1.0,26.562,1,1,0.0
39scl9qfis739lutin4aqgmb,6,3,1,126,29,pd,3,0.0,1.0,8.447,1,1,0.0
39scl9qfis739lutin4aqgmb,7,3,1,53,17,pd,2,0.0,1.0,26.053,1,1,0.0
39scl9qfis739lutin4aqgmb,8,3,1,96,24,pd,3,3.0,0.0,13.03,1,1,0.0
39scl9qfis739lutin4aqgmb,9,3,1,335,72,pd,2,0.0,1.0,27.76,1,1,0.0
39scl9qfis739lutin4aqgmb,10,3,1,294,64,pd,3,2.0,0.0,28.668,1,1,0.0
39scl9qfis739lutin4aqgmb,11,3,1,360,76,pd,3,1.0,0.0,27.716,1,1,0.0
39scl9qfis739lutin4aqgmb,12,3,1,150,35,pd,3,0.0,1.0,7.592,1,1,0.0
3e7cz5hxxfnf3x2mbqolf9yf,1,3,2,190,45,pd,1,1.0,0.0,3.726,1,1,0.0
3e7cz5hxxfnf3x2mbqolf9yf,2,3,2,131,30,pd,2,3.0,0.0,4.738,1,1,0.0
3e7cz5hxxfnf3x2mbqolf9yf,3,3,2,246,55,pd,3,0.0,1.0,3.663,1,1,0.0
3e7cz5hxxfnf3x2mbqolf9yf,4,3,2,124,29,pd,1,2.0,0.0,5.288,1,1,0.0
3e7cz5hxxfnf3x2mbqolf9yf,5,3,2,292,64,pd,1,3.0,0.0,4.975,1,1,0.0
3e7cz5hxxfnf3x2mbqolf9yf,6,3,2,148,35,pd,1,1.0,0.0,2.671,1,1,0.0
3e7cz5hxxfnf3x2mbqolf9yf,7,3,2,94,24,pd,1,2.0,0.0,4.904,1,1,0.0
3e7cz5hxxfnf3x2mbqolf9yf,8,3,2,54,17,pd,3,2.0,0.0,7.745,1,1,0.0
3e7cz5hxxfnf3x2mbqolf9yf,9,3,2,255,58,md,3,0.0,1.0,2.296,1,1,0.0
3e7cz5hxxfnf3x2mbqolf9yf,10,3,2,358,76,pd,1,1.0,0.0,2.398,1,1,0.0
3e7cz5hxxfnf3x2mbqolf9yf,11,3,2,336,72,pd,3,2.0,0.0,6.209,1,1,0.0
3e7cz5hxxfnf3x2mbqolf9yf,12,3,2,305,66,pd,2,3.0,0.0,4.006,1,1,0.0
3qirq7yvv6nh65dyk74q5v8u,1,3,1,245,55,pd,2,0.0,1.0,8.556,1,1,0.0
3qirq7yvv6nh65dyk74q5v8u,2,3,1,304,66,pd,1,0.0,1.0,7.678,1,1,0.0
3qirq7yvv6nh65dyk74q5v8u,3,3,1,130,30,pd,1,0.0,1.0,4.054,1,1,0.0
3qirq7yvv6nh65dyk74q5v8u,4,3,1,254,58,md,2,0.0,1.0,5.929,1,1,0.0
3qirq7yvv6nh65dyk74q5v8u,5,3,1,192,45,pd,3,0.0,1.0,6.687,1,1,0.0
3qirq7yvv6nh65dyk74q5v8u,6,3,1,126,29,pd,3,0.0,1.0,5.879,1,1,0.0
3qirq7yvv6nh65dyk74q5v8u,7,3,1,53,17,pd,2,0.0,1.0,10.105,1,1,0.0
3qirq7yvv6nh65dyk74q5v8u,8,3,1,96,24,pd,3,0.0,1.0,9.066,1,1,0.0
3qirq7yvv6nh65dyk74q5v8u,9,3,1,335,72,pd,2,2.0,0.0,6.661,1,1,0.0
3qirq7yvv6nh65dyk74q5v8u,10,3,1,294,64,pd,3,2.0,0.0,15.043,1,1,0.0
3qirq7yvv6nh65dyk74q5v8u,11,3,1,360,76,pd,3,1.0,0.0,13.764,1,1,0.0
3qirq7yvv6nh65dyk74q5v8u,12,3,1,150,35,pd,3,3.0,0.0,8.475,1,1,0.0
3qxb0t140zisc43q0a2n502q,1,3,1,245,55,pd,2,0.0,1.0,5.476,1,1,0.0
3qxb0t140zisc43q0a2n502q,2,3,1,304,66,pd,1,0.0,1.0,4.844,1,1,0.0
3qxb0t140zisc43q0a2n502q,3,3,1,130,30,pd,1,0.0,1.0,8.824,1,1,0.0
3qxb0t140zisc43q0a2n502q,4,3,1,254,58,md,2,1.0,0.0,10.444,1,1,0.0
3qxb0t140zisc43q0a2n502q,5,3,1,192,45,pd,3,0.0,1.0,23.453,1,1,0.0
3qxb0t140zisc43q0a2n502q,6,3,1,126,29,pd,3,,,,1,1,0.0
3qxb0t140zisc43q0a2n502q,7,3,1,53,17,pd,2,0.0,1.0,27.892,1,1,0.0
3qxb0t140zisc43q0a2n502q,8,3,1,96,24,pd,3,0.0,1.0,26.067,1,1,0.0
3qxb0t140zisc43q0a2n502q,9,3,1,335,72,pd,2,2.0,0.0,25.726,1,1,0.0
3qxb0t140zisc43q0a2n502q,10,3,1,294,64,pd,3,3.0,0.0,19.072,1,1,0.0
3qxb0t140zisc43q0a2n502q,11,3,1,360,76,pd,3,1.0,0.0,10.474,1,1,0.0
3qxb0t140zisc43q0a2n502q,12,3,1,150,35,pd,3,0.0,1.0,26.783,1,1,0.0
3z65j3k5x0e6gfdasssf2ddo,1,3,3,191,45,pd,2,0.0,1.0,11.147,1,1,0.0
3z65j3k5x0e6gfdasssf2ddo,2,3,3,244,55,pd,1,0.0,1.0,14.092,1,1,0.0
3z65j3k5x0e6gfdasssf2ddo,3,3,3,132,30,pd,3,0.0,1.0,15.776,1,1,0.0
3z65j3k5x0e6gfdasssf2ddo,4,3,3,253,58,md,1,0.0,1.0,11.695,1,1,0.0
3z65j3k5x0e6gfdasssf2ddo,5,3,3,52,17,pd,1,0.0,1.0,17.909,1,1,0.0
3z65j3k5x0e6gfdasssf2ddo,6,3,3,334,72,pd,1,0.0,1.0,8.967,1,1,0.0
3z65j3k5x0e6gfdasssf2ddo,7,3,3,125,29,pd,2,0.0,1.0,7.421,1,1,0.0
3z65j3k5x0e6gfdasssf2ddo,8,3,3,359,76,pd,2,0.0,1.0,21.773,1,1,0.0
3z65j3k5x0e6gfdasssf2ddo,9,3,3,149,35,pd,2,0.0,1.0,8.964,1,1,0.0
3z65j3k5x0e6gfdasssf2ddo,10,3,3,293,64,pd,2,0.0,1.0,11.527,1,1,0.0
3z65j3k5x0e6gfdasssf2ddo,11,3,3,306,66,pd,3,,,,1,1,0.0
3z65j3k5x0e6gfdasssf2ddo,12,3,3,95,24,pd,2,0.0,1.0,12.321,1,1,0.0
40z56ogm58dywectjlxx7dnk,1,3,2,190,45,pd,1,0.0,1.0,27.073,1,1,0.0
40z56ogm58dywectjlxx7dnk,2,3,2,131,30,pd,2,0.0,1.0,12.278,1,1,0.0
40z56ogm58dywectjlxx7dnk,3,3,2,246,55,pd,3,0.0,1.0,14.434,1,1,0.0
40z56ogm58dywectjlxx7dnk,4,3,2,124,29,pd,1,0.0,1.0,5.165,1,1,0.0
40z56ogm58dywectjlxx7dnk,5,3,2,292,64,pd,1,0.0,1.0,9.338,1,1,0.0
40z56ogm58dywectjlxx7dnk,6,3,2,148,35,pd,1,0.0,1.0,11.438,1,1,0.0
40z56ogm58dywectjlxx7dnk,7,3,2,94,24,pd,1,0.0,1.0,9.392,1,1,0.0
40z56ogm58dywectjlxx7dnk,8,3,2,54,17,pd,3,0.0,1.0,14.306,1,1,0.0
40z56ogm58dywectjlxx7dnk,9,3,2,255,58,md,3,1.0,0.0,20.067,1,1,0.0
40z56ogm58dywectjlxx7dnk,10,3,2,358,76,pd,1,3.0,0.0,23.692,1,1,0.0
40z56ogm58dywectjlxx7dnk,11,3,2,336,72,pd,3,0.0,1.0,25.217,1,1,2.0
40z56ogm58dywectjlxx7dnk,12,3,2,305,66,pd,2,1.0,0.0,16.555,1,1,0.0
44r9pt4w07ebq31vmvf8qk26,1,3,3,191,45,pd,2,0.0,1.0,7.298,1,1,0.0
44r9pt4w07ebq31vmvf8qk26,2,3,3,244,55,pd,1,0.0,1.0,10.038,1,1,0.0
44r9pt4w07ebq31vmvf8qk26,3,3,3,132,30,pd,3,3.0,0.0,8.098,1,1,0.0
44r9pt4w07ebq31vmvf8qk26,4,3,3,253,58,md,1,1.0,0.0,12.271,1,1,0.0
44r9pt4w07ebq31vmvf8qk26,5,3,3,52,17,pd,1,0.0,1.0,10.676,1,1,0.0
44r9pt4w07ebq31vmvf8qk26,6,3,3,334,72,pd,1,0.0,1.0,10.259,1,1,0.0
44r9pt4w07ebq31vmvf8qk26,7,3,3,125,29,pd,2,3.0,0.0,12.039,1,1,0.0
44r9pt4w07ebq31vmvf8qk26,8,3,3,359,76,pd,2,0.0,1.0,13.355,1,1,0.0
44r9pt4w07ebq31vmvf8qk26,9,3,3,149,35,pd,2,3.0,0.0,12.98,1,1,0.0
44r9pt4w07ebq31vmvf8qk26,10,3,3,293,64,pd,2,0.0,1.0,15.324,1,1,0.0
44r9pt4w07ebq31vmvf8qk26,11,3,3,306,66,pd,3,2.0,0.0,17.157,1,1,0.0
44r9pt4w07ebq31vmvf8qk26,12,3,3,95,24,pd,2,2.0,0.0,8.403,1,1,0.0
49ymqsd9j5092q04edq7w6gm,1,3,3,191,45,pd,2,0.0,1.0,25.045,1,1,0.0
49ymqsd9j5092q04edq7w6gm,2,3,3,244,55,pd,1,2.0,0.0,26.564,1,1,0.0
49ymqsd9j5092q04edq7w6gm,3,3,3,132,30,pd,3,0.0,1.0,16.444,1,1,0.0
49ymqsd9j5092q04edq7w6gm,4,3,3,253,58,md,1,0.0,1.0,18.27,1,1,0.0
49ymqsd9j5092q04edq7w6gm,5,3,3,52,17,pd,1,2.0,0.0,23.67,1,1,0.0
49ymqsd9j5092q04edq7w6gm,6,3,3,334,72,pd,1,2.0,0.0,23.053,1,1,0.0
49ymqsd9j5092q04edq7w6gm,7,3,3,125,29,pd,2,3.0,0.0,25.471,1,1,0.0
49ymqsd9j5092q04edq7w6gm,8,3,3,359,76,pd,2,0.0,1.0,15.596,1,1,0.0
49ymqsd9j5092q04edq7w6gm,9,3,3,149,35,pd,2,3.0,0.0,28.716,1,1,0.0
49ymqsd9j5092q04edq7w6gm,10,3,3,293,64,pd,2,1.0,0.0,8.802,1,1,0.0
49ymqsd9j5092q04edq7w6gm,11,3,3,306,66,pd,3,1.0,0.0,14.506,1,1,0.0
49ymqsd9j5092q04edq7w6gm,12,3,3,95,24,pd,2,2.0,0.0,12.583,1,1,0.0
4befqnrylgwx3gxshaax7hwa,1,3,1,245,55,pd,2,0.0,1.0,8.478,1,1,0.0
4befqnrylgwx3gxshaax7hwa,2,3,1,304,66,pd,1,0.0,1.0,5.999,1,1,0.0
4befqnrylgwx3gxshaax7hwa,3,3,1,130,30,pd,1,0.0,1.0,4.53,1,1,0.0
4befqnrylgwx3gxshaax7hwa,4,3,1,254,58,md,2,0.0,1.0,10.409,1,1,0.0
4befqnrylgwx3gxshaax7hwa,5,3,1,192,45,pd,3,0.0,1.0,10.568,1,1,0.0
4befqnrylgwx3gxshaax7hwa,6,3,1,126,29,pd,3,0.0,1.0,8.339,1,1,0.0
4befqnrylgwx3gxshaax7hwa,7,3,1,53,17,pd,2,0.0,1.0,24.93,1,1,0.0
4befqnrylgwx3gxshaax7hwa,8,3,1,96,24,pd,3,0.0,1.0,18.085,1,1,0.0
4befqnrylgwx3gxshaax7hwa,9,3,1,335,72,pd,2,0.0,1.0,6.968,1,1,0.0
4befqnrylgwx3gxshaax7hwa,10,3,1,294,64,pd,3,2.0,0.0,13.754,1,1,0.0
4befqnrylgwx3gxshaax7hwa,11,3,1,360,76,pd,3,2.0,0.0,5.242,1,1,0.0
4befqnrylgwx3gxshaax7hwa,12,3,1,150,35,pd,3,0.0,1.0,5.39,1,1,0.0
4kjvt1d9hm0lnbngvx6czy8e,1,3,2,190,45,pd,1,0.0,1.0,25.651,1,1,0.0
4kjvt1d9hm0lnbngvx6czy8e,2,3,2,131,30,pd,2,0.0,1.0,28.539,1,1,0.0
4kjvt1d9hm0lnbngvx6czy8e,3,3,2,246,55,pd,3,0.0,1.0,9.582,1,1,0.0
4kjvt1d9hm0lnbngvx6czy8e,4,3,2,124,29,pd,1,3.0,0.0,29.013,1,1,0.0
4kjvt1d9hm0lnbngvx6czy8e,5,3,2,292,64,pd,1,0.0,1.0,16.758,1,1,0.0
4kjvt1d9hm0lnbngvx6czy8e,6,3,2,148,35,pd,1,0.0,1.0,14.387,1,1,0.0
4kjvt1d9hm0lnbngvx6czy8e,7,3,2,94,24,pd,1,0.0,1.0,13.751,1,1,0.0
4kjvt1d9hm0lnbngvx6czy8e,8,3,2,54,17,pd,3,1.0,0.0,18.928,1,1,0.0
4kjvt1d9hm0lnbngvx6czy8e,9,3,2,255,58,md,3,1.0,0.0,29.529,1,1,0.0
4kjvt1d9hm0lnbngvx6czy8e,10,3,2,358,76,pd,1,3.0,0.0,28.792,1,1,0.0
4kjvt1d9hm0lnbngvx6czy8e,11,3,2,336,72,pd,3,2.0,0.0,20.683,1,1,0.0
4kjvt1d9hm0lnbngvx6czy8e,12,3,2,305,66,pd,2,0.0,1.0,15.129,1,1,0.0
4lo2jkap3pxbifsbagvf3h7j,1,3,2,190,45,pd,1,2.0,0.0,10.477,1,1,0.0
4lo2jkap3pxbifsbagvf3h7j,2,3,2,131,30,pd,2,0.0,1.0,17.258,1,1,0.0
4lo2jkap3pxbifsbagvf3h7j,3,3,2,246,55,pd,3,0.0,1.0,5.546,1,1,0.0
4lo2jkap3pxbifsbagvf3h7j,4,3,2,124,29,pd,1,2.0,0.0,10.668,1,1,0.0
4lo2jkap3pxbifsbagvf3h7j,5,3,2,292,64,pd,1,0.0,1.0,9.428,1,1,0.0
4lo2jkap3pxbifsbagvf3h7j,6,3,2,148,35,pd,1,0.0,1.0,11.547,1,1,0.0
4lo2jkap3pxbifsbagvf3h7j,7,3,2,94,24,pd,1,0.0,1.0,11.524,1,1,0.0
4lo2jkap3pxbifsbagvf3h7j,8,3,2,54,17,pd,3,0.0,1.0,18.34,1,1,0.0
4lo2jkap3pxbifsbagvf3h7j,9,3,2,255,58,md,3,0.0,1.0,11.028,1,1,0.0
4lo2jkap3pxbifsbagvf3h7j,10,3,2,358,76,pd,1,3.0,0.0,19.516,1,1,0.0
4lo2jkap3pxbifsbagvf3h7j,11,3,2,336,72,pd,3,2.0,0.0,10.484,1,1,0.0
4lo2jkap3pxbifsbagvf3h7j,12,3,2,305,66,pd,2,1.0,0.0,22.317,1,1,0.0
53974j7lxyjuowqguefl7z1a,1,3,3,191,45,pd,2,0.0,1.0,14.573,1,1,0.0
53974j7lxyjuowqguefl7z1a,2,3,3,244,55,pd,1,0.0,1.0,9.502,1,1,0.0
53974j7lxyjuowqguefl7z1a,3,3,3,132,30,pd,3,0.0,1.0,11.446,1,1,0.0
53974j7lxyjuowqguefl7z1a,4,3,3,253,58,md,1,0.0,1.0,8.936,1,1,0.0
53974j7lxyjuowqguefl7z1a,5,3,3,52,17,pd,1,0.0,1.0,14.551,1,1,0.0
53974j7lxyjuowqguefl7z1a,6,3,3,334,72,pd,1,0.0,1.0,13.569,1,1,0.0
53974j7lxyjuowqguefl7z1a,7,3,3,125,29,pd,2,3.0,0.0,11.191,1,1,0.0
53974j7lxyjuowqguefl7z1a,8,3,3,359,76,pd,2,0.0,1.0,17.55,1,1,0.0
53974j7lxyjuowqguefl7z1a,9,3,3,149,35,pd,2,0.0,1.0,17.973,1,1,0.0
53974j7lxyjuowqguefl7z1a,10,3,3,293,64,pd,2,1.0,0.0,27.234,1,1,0.0
53974j7lxyjuowqguefl7z1a,11,3,3,306,66,pd,3,0.0,1.0,12.366,1,1,0.0
53974j7lxyjuowqguefl7z1a,12,3,3,95,24,pd,2,0.0,1.0,9.351,1,1,0.0
592yrejax6ir1gz4weqck88p,1,3,1,245,55,pd,2,2.0,0.0,18.632,1,1,0.0
592yrejax6ir1gz4weqck88p,2,3,1,304,66,pd,1,0.0,1.0,10.841,1,1,0.0
592yrejax6ir1gz4weqck88p,3,3,1,130,30,pd,1,0.0,1.0,14.043,1,1,0.0
592yrejax6ir1gz4weqck88p,4,3,1,254,58,md,2,3.0,0.0,14.242,1,1,0.0
592yrejax6ir1gz4weqck88p,5,3,1,192,45,pd,3,0.0,1.0,13.872,1,1,0.0
592yrejax6ir1gz4weqck88p,6,3,1,126,29,pd,3,0.0,1.0,5.642,1,1,0.0
592yrejax6ir1gz4weqck88p,7,3,1,53,17,pd,2,0.0,1.0,13.68,1,1,0.0
592yrejax6ir1gz4weqck88p,8,3,1,96,24,pd,3,0.0,1.0,17.09,1,1,0.0
592yrejax6ir1gz4weqck88p,9,3,1,335,72,pd,2,0.0,1.0,10.238,1,1,0.0
592yrejax6ir1gz4weqck88p,10,3,1,294,64,pd,3,0.0,1.0,28.545,1,1,0.0
592yrejax6ir1gz4weqck88p,11,3,1,360,76,pd,3,0.0,1.0,11.051,1,1,0.0
592yrejax6ir1gz4weqck88p,12,3,1,150,35,pd,3,0.0,1.0,22.082,1,1,0.0
5dj0z4d9nqg0ibe4b8kmckej,1,3,1,245,55,pd,2,1.0,0.0,13.757,1,1,0.0
5dj0z4d9nqg0ibe4b8kmckej,2,3,1,304,66,pd,1,0.0,1.0,9.556,1,1,0.0
5dj0z4d9nqg0ibe4b8kmckej,3,3,1,130,30,pd,1,0.0,1.0,16.067,1,1,0.0
5dj0z4d9nqg0ibe4b8kmckej,4,3,1,254,58,md,2,0.0,1.0,14.173,1,1,0.0
5dj0z4d9nqg0ibe4b8kmckej,5,3,1,192,45,pd,3,0.0,1.0,15.009,1,1,0.0
5dj0z4d9nqg0ibe4b8kmckej,6,3,1,126,29,pd,3,0.0,1.0,19.483,1,1,0.0
5dj0z4d9nqg0ibe4b8kmckej,7,3,1,53,17,pd,2,,,,1,1,0.0
5dj0z4d9nqg0ibe4b8kmckej,8,3,1,96,24,pd,3,0.0,1.0,9.991,1,1,0.0
5dj0z4d9nqg0ibe4b8kmckej,9,3,1,335,72,pd,2,0.0,1.0,21.834,1,1,0.0
5dj0z4d9nqg0ibe4b8kmckej,10,3,1,294,64,pd,3,0.0,1.0,16.069,1,1,0.0
5dj0z4d9nqg0ibe4b8kmckej,11,3,1,360,76,pd,3,0.0,1.0,14.137,1,1,0.0
5dj0z4d9nqg0ibe4b8kmckej,12,3,1,150,35,pd,3,0.0,1.0,28.936,1,1,0.0
5dx4h0naks6kja60m6uaz1tb,1,3,2,190,45,pd,1,0.0,1.0,23.929,1,1,0.0
5dx4h0naks6kja60m6uaz1tb,2,3,2,131,30,pd,2,0.0,1.0,19.728,1,1,0.0
5dx4h0naks6kja60m6uaz1tb,3,3,2,246,55,pd,3,1.0,0.0,23.441,1,1,0.0
5dx4h0naks6kja60m6uaz1tb,4,3,2,124,29,pd,1,0.0,1.0,23.888,1,1,0.0
5dx4h0naks6kja60m6uaz1tb,5,3,2,292,64,pd,1,0.0,1.0,23.448,1,1,0.0
5dx4h0naks6kja60m6uaz1tb,6,3,2,148,35,pd,1,0.0,1.0,10.814,1,1,0.0
5dx4h0naks6kja60m6uaz1tb,7,3,2,94,24,pd,1,0.0,1.0,13.974,1,1,0.0
5dx4h0naks6kja60m6uaz1tb,8,3,2,54,17,pd,3,1.0,0.0,28.881,1,1,0.0
5dx4h0naks6kja60m6uaz1tb,9,3,2,255,58,md,3,1.0,0.0,26.373,1,1,0.0
5dx4h0naks6kja60m6uaz1tb,10,3,2,358,76,pd,1,0.0,1.0,26.132,1,1,0.0
5dx4h0naks6kja60m6uaz1tb,11,3,2,336,72,pd,3,1.0,0.0,28.676,1,1,0.0
5dx4h0naks6kja60m6uaz1tb,12,3,2,305,66,pd,2,0.0,1.0,22.227,1,1,0.0
5hkcy0mklyxzr30zle6x8z6x,1,3,3,191,45,pd,2,0.0,1.0,14.598,1,1,0.0
5hkcy0mklyxzr30zle6x8z6x,2,3,3,244,55,pd,1,0.0,1.0,14.354,1,1,0.0
5hkcy0mklyxzr30zle6x8z6x,3,3,3,132,30,pd,3,0.0,1.0,9.433,1,1,0.0
5hkcy0mklyxzr30zle6x8z6x,4,3,3,253,58,md,1,0.0,1.0,19.203,1,1,0.0
5hkcy0mklyxzr30zle6x8z6x,5,3,3,52,17,pd,1,0.0,1.0,17.259,1,1,0.0
5hkcy0mklyxzr30zle6x8z6x,6,3,3,334,72,pd,1,0.0,1.0,14.422,1,1,0.0
5hkcy0mklyxzr30zle6x8z6x,7,3,3,125,29,pd,2,0.0,1.0,15.658,1,1,0.0
5hkcy0mklyxzr30zle6x8z6x,8,3,3,359,76,pd,2,0.0,1.0,18.095,1,1,0.0
5hkcy0mklyxzr30zle6x8z6x,9,3,3,149,35,pd,2,0.0,1.0,12.794,1,1,0.0
5hkcy0mklyxzr30zle6x8z6x,10,3,3,293,64,pd,2,0.0,1.0,8.597,1,1,0.0
5hkcy0mklyxzr30zle6x8z6x,11,3,3,306,66,pd,3,3.0,0.0,9.912,1,1,0.0
5hkcy0mklyxzr30zle6x8z6x,12,3,3,95,24,pd,2,2.0,0.0,5.797,1,1,0.0
5jehrrix0jp71xf04ines46e,1,3,3,191,45,pd,2,0.0,1.0,10.956,1,1,0.0
5jehrrix0jp71xf04ines46e,2,3,3,244,55,pd,1,2.0,0.0,8.396,1,1,0.0
5jehrrix0jp71xf04ines46e,3,3,3,132,30,pd,3,2.0,0.0,22.428,1,1,0.0
5jehrrix0jp71xf04ines46e,4,3,3,253,58,md,1,0.0,1.0,25.445,1,1,0.0
5jehrrix0jp71xf04ines46e,5,3,3,52,17,pd,1,1.0,0.0,22.034,1,1,0.0
5jehrrix0jp71xf04ines46e,6,3,3,334,72,pd,1,3.0,0.0,23.605,1,1,0.0
5jehrrix0jp71xf04ines46e,7,3,3,125,29,pd,2,3.0,0.0,25.539,1,1,0.0
5jehrrix0jp71xf04ines46e,8,3,3,359,76,pd,2,0.0,1.0,25.356,1,1,0.0
5jehrrix0jp71xf04ines46e,9,3,3,149,35,pd,2,0.0,1.0,21.698,1,1,0.0
5jehrrix0jp71xf04ines46e,10,3,3,293,64,pd,2,2.0,0.0,7.212,1,1,0.0
5jehrrix0jp71xf04ines46e,11,3,3,306,66,pd,3,2.0,0.0,5.46,1,1,0.0
5jehrrix0jp71xf04ines46e,12,3,3,95,24,pd,2,1.0,0.0,5.284,1,1,0.0
5jyqnu1ltb66722yzsldztcv,1,3,2,190,45,pd,1,0.0,1.0,9.5,1,1,0.0
5jyqnu1ltb66722yzsldztcv,2,3,2,131,30,pd,2,0.0,1.0,22.624,1,1,0.0
5jyqnu1ltb66722yzsldztcv,3,3,2,246,55,pd,3,0.0,1.0,16.336,1,1,0.0
5jyqnu1ltb66722yzsldztcv,4,3,2,124,29,pd,1,0.0,1.0,25.004,1,1,0.0
5jyqnu1ltb66722yzsldztcv,5,3,2,292,64,pd,1,0.0,1.0,14.166,1,1,0.0
5jyqnu1ltb66722yzsldztcv,6,3,2,148,35,pd,1,1.0,0.0,10.544,1,1,0.0
5jyqnu1ltb66722yzsldztcv,7,3,2,94,24,pd,1,2.0,0.0,13.057,1,1,0.0
5jyqnu1ltb66722yzsldztcv,8,3,2,54,17,pd,3,,,,1,1,0.0
5jyqnu1ltb66722yzsldztcv,9,3,2,255,58,md,3,1.0,0.0,13.932,1,1,0.0
5jyqnu1ltb66722yzsldztcv,10,3,2,358,76,pd,1,0.0,1.0,6.929,1,1,0.0
5jyqnu1ltb66722yzsldztcv,11,3,2,336,72,pd,3,3.0,0.0,7.921,1,1,0.0
5jyqnu1ltb66722yzsldztcv,12,3,2,305,66,pd,2,2.0,0.0,15.328,1,1,4.0
5kb0irmr7ooel5ao0qydjbc2,1,3,3,191,45,pd,2,0.0,1.0,21.724,1,1,0.0
5kb0irmr7ooel5ao0qydjbc2,2,3,3,244,55,pd,1,2.0,0.0,12.54,1,1,0.0
5kb0irmr7ooel5ao0qydjbc2,3,3,3,132,30,pd,3,3.0,0.0,15.115,1,1,0.0
5kb0irmr7ooel5ao0qydjbc2,4,3,3,253,58,md,1,1.0,0.0,18.057,1,1,0.0
5kb0irmr7ooel5ao0qydjbc2,5,3,3,52,17,pd,1,1.0,0.0,26.787,1,1,0.0
5kb0irmr7ooel5ao0qydjbc2,6,3,3,334,72,pd,1,3.0,0.0,16.324,1,1,0.0
5kb0irmr7ooel5ao0qydjbc2,7,3,3,125,29,pd,2,1.0,0.0,12.635,1,1,0.0
5kb0irmr7ooel5ao0qydjbc2,8,3,3,359,76,pd,2,2.0,0.0,11.876,1,1,0.0
5kb0irmr7ooel5ao0qydjbc2,9,3,3,149,35,pd,2,0.0,1.0,9.818,1,1,0.0
5kb0irmr7ooel5ao0qydjbc2,10,3,3,293,64,pd,2,3.0,0.0,13.515,1,1,0.0
5kb0irmr7ooel5ao0qydjbc2,11,3,3,306,66,pd,3,0.0,1.0,14.06,1,1,0.0
5kb0irmr7ooel5ao0qydjbc2,12,3,3,95,24,pd,2,2.0,0.0,12.036,1,1,0.0
5lhsgo4nsy5chl7poenx8glj,1,3,3,191,45,pd,2,0.0,1.0,9.649,0,1,0.0
5lhsgo4nsy5chl7poenx8glj,2,3,3,244,55,pd,1,0.0,1.0,11.274,0,1,0.0
5lhsgo4nsy5chl7poenx8glj,3,3,3,132,30,pd,3,0.0,1.0,19.949,0,1,0.0
5lhsgo4nsy5chl7poenx8glj,4,3,3,253,58,md,1,0.0,1.0,10.501,0,1,0.0
5lhsgo4nsy5chl7poenx8glj,5,3,3,52,17,pd,1,0.0,1.0,18.342,0,1,0.0
5lhsgo4nsy5chl7poenx8glj,6,3,3,334,72,pd,1,0.0,1.0,19.021,0,1,0.0
5lhsgo4nsy5chl7poenx8glj,7,3,3,125,29,pd,2,0.0,1.0,28.555,0,1,0.0
5lhsgo4nsy5chl7poenx8glj,8,3,3,359,76,pd,2,0.0,1.0,19.48,0,1,0.0
5lhsgo4nsy5chl7poenx8glj,9,3,3,149,35,pd,2,2.0,0.0,5.452,0,1,0.0
5lhsgo4nsy5chl7poenx8glj,10,3,3,293,64,pd,2,3.0,0.0,19.034,0,1,0.0
5lhsgo4nsy5chl7poenx8glj,11,3,3,306,66,pd,3,0.0,1.0,26.134,0,1,0.0
5lhsgo4nsy5chl7poenx8glj,12,3,3,95,24,pd,2,3.0,0.0,8.104,0,1,0.0
5nrm5hqpgawjakat3lrpqddc,1,3,2,190,45,pd,1,2.0,0.0,8.696,1,1,0.0
5nrm5hqpgawjakat3lrpqddc,2,3,2,131,30,pd,2,0.0,1.0,12.749,1,1,0.0
5nrm5hqpgawjakat3lrpqddc,3,3,2,246,55,pd,3,0.0,1.0,19.602,1,1,0.0
5nrm5hqpgawjakat3lrpqddc,4,3,2,124,29,pd,1,0.0,1.0,6.422,1,1,0.0
5nrm5hqpgawjakat3lrpqddc,5,3,2,292,64,pd,1,0.0,1.0,13.236,1,1,0.0
5nrm5hqpgawjakat3lrpqddc,6,3,2,148,35,pd,1,3.0,0.0,12.483,1,1,0.0
5nrm5hqpgawjakat3lrpqddc,7,3,2,94,24,pd,1,0.0,1.0,10.479,1,1,0.0
5nrm5hqpgawjakat3lrpqddc,8,3,2,54,17,pd,3,0.0,1.0,24.19,1,1,0.0
5nrm5hqpgawjakat3lrpqddc,9,3,2,255,58,md,3,0.0,1.0,15.132,1,1,0.0
5nrm5hqpgawjakat3lrpqddc,10,3,2,358,76,pd,1,2.0,0.0,14.385,1,1,0.0
5nrm5hqpgawjakat3lrpqddc,11,3,2,336,72,pd,3,2.0,0.0,9.4,1,1,0.0
5nrm5hqpgawjakat3lrpqddc,12,3,2,305,66,pd,2,2.0,0.0,7.423,1,1,0.0
5z17417xklar8vlhao0hmh81,1,3,2,190,45,pd,1,0.0,1.0,14.193,1,1,0.0
5z17417xklar8vlhao0hmh81,2,3,2,131,30,pd,2,0.0,1.0,21.74,1,1,0.0
5z17417xklar8vlhao0hmh81,3,3,2,246,55,pd,3,0.0,1.0,11.451,1,1,0.0
5z17417xklar8vlhao0hmh81,4,3,2,124,29,pd,1,0.0,1.0,21.826,1,1,0.0
5z17417xklar8vlhao0hmh81,5,3,2,292,64,pd,1,1.0,0.0,21.57,1,1,0.0
5z17417xklar8vlhao0hmh81,6,3,2,148,35,pd,1,0.0,1.0,22.257,1,1,0.0
5z17417xklar8vlhao0hmh81,7,3,2,94,24,pd,1,0.0,1.0,8.665,1,1,0.0
5z17417xklar8vlhao0hmh81,8,3,2,54,17,pd,3,1.0,0.0,29.94,1,1,0.0
5z17417xklar8vlhao0hmh81,9,3,2,255,58,md,3,0.0,1.0,12.361,1,1,0.0
5z17417xklar8vlhao0hmh81,10,3,2,358,76,pd,1,2.0,0.0,27.82,1,1,0.0
5z17417xklar8vlhao0hmh81,11,3,2,336,72,pd,3,2.0,0.0,16.322,1,1,0.0
5z17417xklar8vlhao0hmh81,12,3,2,305,66,pd,2,0.0,1.0,15.027,1,1,0.0
62z9cnxo71p0docgan22lux0,1,3,3,191,45,pd,2,0.0,1.0,6.262,1,1,0.0
62z9cnxo71p0docgan22lux0,2,3,3,244,55,pd,1,0.0,1.0,9.131,1,1,0.0
62z9cnxo71p0docgan22lux0,3,3,3,132,30,pd,3,2.0,0.0,29.528,1,1,0.0
62z9cnxo71p0docgan22lux0,4,3,3,253,58,md,1,3.0,0.0,25.968,1,1,0.0
62z9cnxo71p0docgan22lux0,5,3,3,52,17,pd,1,0.0,1.0,18.899,1,1,0.0
62z9cnxo71p0docgan22lux0,6,3,3,334,72,pd,1,0.0,1.0,10.812,1,1,0.0
62z9cnxo71p0docgan22lux0,7,3,3,125,29,pd,2,0.0,1.0,28.429,1,1,0.0
62z9cnxo71p0docgan22lux0,8,3,3,359,76,pd,2,1.0,0.0,25.568,1,1,0.0
62z9cnxo71p0docgan22lux0,9,3,3,149,35,pd,2,0.0,1.0,21.44,1,1,0.0
62z9cnxo71p0docgan22lux0,10,3,3,293,64,pd,2,2.0,0.0,19.173,1,1,0.0
62z9cnxo71p0docgan22lux0,11,3,3,306,66,pd,3,1.0,0.0,25.821,1,1,0.0
62z9cnxo71p0docgan22lux0,12,3,3,95,24,pd,2,2.0,0.0,15.441,1,1,0.0
6315q3o2tcntkglzku9j0t6i,1,3,2,190,45,pd,1,0.0,1.0,7.282,1,1,0.0
6315q3o2tcntkglzku9j0t6i,2,3,2,131,30,pd,2,0.0,1.0,9.872,1,1,0.0
6315q3o2tcntkglzku9j0t6i,3,3,2,246,55,pd,3,0.0,1.0,11.643,1,1,0.0
6315q3o2tcntkglzku9j0t6i,4,3,2,124,29,pd,1,0.0,1.0,18.679,1,1,0.0
6315q3o2tcntkglzku9j0t6i,5,3,2,292,64,pd,1,0.0,1.0,23.758,1,1,0.0
6315q3o2tcntkglzku9j0t6i,6,3,2,148,35,pd,1,0.0,1.0,6.979,1,1,0.0
6315q3o2tcntkglzku9j0t6i,7,3,2,94,24,pd,1,0.0,1.0,14.217,1,1,0.0
6315q3o2tcntkglzku9j0t6i,8,3,2,54,17,pd,3,0.0,1.0,15.938,1,1,0.0
6315q3o2tcntkglzku9j0t6i,9,3,2,255,58,md,3,2.0,0.0,7.631,1,1,0.0
6315q3o2tcntkglzku9j0t6i,10,3,2,358,76,pd,1,0.0,1.0,16.553,1,1,0.0
6315q3o2tcntkglzku9j0t6i,11,3,2,336,72,pd,3,0.0,1.0,10.158,1,1,0.0
6315q3o2tcntkglzku9j0t6i,12,3,2,305,66,pd,2,0.0,1.0,21.382,1,1,0.0
63cb08yaktqmqkixxkihvnm1,1,3,1,245,55,pd,2,1.0,0.0,11.959,1,1,0.0
63cb08yaktqmqkixxkihvnm1,2,3,1,304,66,pd,1,2.0,0.0,7.162,0,1,0.0
63cb08yaktqmqkixxkihvnm1,3,3,1,130,30,pd,1,3.0,0.0,6.329,1,1,0.0
63cb08yaktqmqkixxkihvnm1,4,3,1,254,58,md,2,0.0,1.0,3.818,1,1,0.0
63cb08yaktqmqkixxkihvnm1,5,3,1,192,45,pd,3,2.0,0.0,8.911,1,1,0.0
63cb08yaktqmqkixxkihvnm1,6,3,1,126,29,pd,3,0.0,1.0,6.504,1,1,0.0
63cb08yaktqmqkixxkihvnm1,7,3,1,53,17,pd,2,2.0,0.0,1.971,0,1,0.0
63cb08yaktqmqkixxkihvnm1,8,3,1,96,24,pd,3,3.0,0.0,6.199,0,1,0.0
63cb08yaktqmqkixxkihvnm1,9,3,1,335,72,pd,2,3.0,0.0,4.407,1,1,0.0
63cb08yaktqmqkixxkihvnm1,10,3,1,294,64,pd,3,1.0,0.0,1.832,1,1,0.0
63cb08yaktqmqkixxkihvnm1,11,3,1,360,76,pd,3,0.0,1.0,3.365,1,1,0.0
63cb08yaktqmqkixxkihvnm1,12,3,1,150,35,pd,3,1.0,0.0,4.262,1,1,0.0
63wltpnt09pspfun4z637ooz,1,3,2,190,45,pd,1,2.0,0.0,5.35,1,1,0.0
63wltpnt09pspfun4z637ooz,2,3,2,131,30,pd,2,0.0,1.0,4.366,1,1,0.0
63wltpnt09pspfun4z637ooz,3,3,2,246,55,pd,3,0.0,1.0,6.794,1,1,0.0
63wltpnt09pspfun4z637ooz,4,3,2,124,29,pd,1,3.0,0.0,4.469,1,1,0.0
63wltpnt09pspfun4z637ooz,5,3,2,292,64,pd,1,3.0,0.0,8.761,1,1,0.0
63wltpnt09pspfun4z637ooz,6,3,2,148,35,pd,1,0.0,1.0,7.145,1,1,0.0
63wltpnt09pspfun4z637ooz,7,3,2,94,24,pd,1,1.0,0.0,4.788,1,1,0.0
63wltpnt09pspfun4z637ooz,8,3,2,54,17,pd,3,1.0,0.0,4.881,1,1,0.0
63wltpnt09pspfun4z637ooz,9,3,2,255,58,md,3,1.0,0.0,3.273,1,1,0.0
63wltpnt09pspfun4z637ooz,10,3,2,358,76,pd,1,3.0,0.0,3.046,1,1,0.0
63wltpnt09pspfun4z637ooz,11,3,2,336,72,pd,3,2.0,0.0,2.585,1,1,0.0
63wltpnt09pspfun4z637ooz,12,3,2,305,66,pd,2,1.0,0.0,2.067,1,1,0.0
64l3mcrhtvft9ihly8wv8qil,1,3,3,191,45,pd,2,0.0,1.0,12.987,1,1,0.0
64l3mcrhtvft9ihly8wv8qil,2,3,3,244,55,pd,1,0.0,1.0,12.2,1,1,0.0
64l3mcrhtvft9ihly8wv8qil,3,3,3,132,30,pd,3,0.0,1.0,24.202,1,1,0.0
64l3mcrhtvft9ihly8wv8qil,4,3,3,253,58,md,1,,,,1,1,0.0
64l3mcrhtvft9ihly8wv8qil,5,3,3,52,17,pd,1,1.0,0.0,13.624,1,1,0.0
64l3mcrhtvft9ihly8wv8qil,6,3,3,334,72,pd,1,0.0,1.0,15.147,1,1,0.0
64l3mcrhtvft9ihly8wv8qil,7,3,3,125,29,pd,2,0.0,1.0,12.248,1,1,0.0
64l3mcrhtvft9ihly8wv8qil,8,3,3,359,76,pd,2,2.0,0.0,13.693,1,1,0.0
64l3mcrhtvft9ihly8wv8qil,9,3,3,149,35,pd,2,3.0,0.0,11.646,1,1,0.0
64l3mcrhtvft9ihly8wv8qil,10,3,3,293,64,pd,2,0.0,1.0,19.206,1,1,0.0
64l3mcrhtvft9ihly8wv8qil,11,3,3,306,66,pd,3,0.0,1.0,17.668,1,1,0.0
64l3mcrhtvft9ihly8wv8qil,12,3,3,95,24,pd,2,0.0,1.0,16.849,1,1,0.0
68eazpfslvdavzm8evtmszpr,1,3,2,190,45,pd,1,0.0,1.0,4.732,1,1,0.0
68eazpfslvdavzm8evtmszpr,2,3,2,131,30,pd,2,0.0,1.0,6.582,1,1,0.0
68eazpfslvdavzm8evtmszpr,3,3,2,246,55,pd,3,0.0,1.0,5.75,1,1,0.0
68eazpfslvdavzm8evtmszpr,4,3,2,124,29,pd,1,0.0,1.0,6.482,1,1,0.0
68eazpfslvdavzm8evtmszpr,5,3,2,292,64,pd,1,1.0,0.0,9.088,1,1,0.0
68eazpfslvdavzm8evtmszpr,6,3,2,148,35,pd,1,0.0,1.0,6.255,1,1,0.0
68eazpfslvdavzm8evtmszpr,7,3,2,94,24,pd,1,0.0,1.0,3.643,1,1,0.0
68eazpfslvdavzm8evtmszpr,8,3,2,54,17,pd,3,0.0,1.0,5.348,1,1,0.0
68eazpfslvdavzm8evtmszpr,9,3,2,255,58,md,3,1.0,0.0,6.626,1,1,0.0
68eazpfslvdavzm8evtmszpr,10,3,2,358,76,pd,1,2.0,0.0,9.766,1,1,0.0
68eazpfslvdavzm8evtmszpr,11,3,2,336,72,pd,3,0.0,1.0,9.534,1,1,0.0
68eazpfslvdavzm8evtmszpr,12,3,2,305,66,pd,2,0.0,1.0,7.455,1,1,0.0
6aa7cq97dyyx549e15dk59zg,1,3,2,190,45,pd,1,0.0,1.0,6.363,1,1,0.0
6aa7cq97dyyx549e15dk59zg,2,3,2,131,30,pd,2,2.0,0.0,9.096,1,1,0.0
6aa7cq97dyyx549e15dk59zg,3,3,2,246,55,pd,3,0.0,1.0,6.918,1,1,0.0
6aa7cq97dyyx549e15dk59zg,4,3,2,124,29,pd,1,2.0,0.0,8.848,1,1,0.0
6aa7cq97dyyx549e15dk59zg,5,3,2,292,64,pd,1,1.0,0.0,10.394,1,1,0.0
6aa7cq97dyyx549e15dk59zg,6,3,2,148,35,pd,1,0.0,1.0,5.675,1,1,0.0
6aa7cq97dyyx549e15dk59zg,7,3,2,94,24,pd,1,2.0,0.0,11.951,1,1,0.0
6aa7cq97dyyx549e15dk59zg,8,3,2,54,17,pd,3,0.0,1.0,13.182,1,1,0.0
6aa7cq97dyyx549e15dk59zg,9,3,2,255,58,md,3,0.0,1.0,14.375,1,1,0.0
6aa7cq97dyyx549e15dk59zg,10,3,2,358,76,pd,1,2.0,0.0,5.884,1,1,0.0
6aa7cq97dyyx549e15dk59zg,11,3,2,336,72,pd,3,3.0,0.0,9.201,1,1,0.0
6aa7cq97dyyx549e15dk59zg,12,3,2,305,66,pd,2,0.0,1.0,15.066,1,1,0.0
6dtl8yki6vzq5d9uc5nfytx5,1,3,2,190,45,pd,1,0.0,1.0,17.236,1,1,0.0
6dtl8yki6vzq5d9uc5nfytx5,2,3,2,131,30,pd,2,0.0,1.0,16.952,1,1,0.0
6dtl8yki6vzq5d9uc5nfytx5,3,3,2,246,55,pd,3,0.0,1.0,10.845,1,1,0.0
6dtl8yki6vzq5d9uc5nfytx5,4,3,2,124,29,pd,1,3.0,0.0,29.37,1,1,0.0
6dtl8yki6vzq5d9uc5nfytx5,5,3,2,292,64,pd,1,2.0,0.0,9.9,1,1,0.0
6dtl8yki6vzq5d9uc5nfytx5,6,3,2,148,35,pd,1,0.0,1.0,16.504,1,1,0.0
6dtl8yki6vzq5d9uc5nfytx5,7,3,2,94,24,pd,1,0.0,1.0,16.964,1,1,0.0
6dtl8yki6vzq5d9uc5nfytx5,8,3,2,54,17,pd,3,1.0,0.0,27.589,1,1,0.0
6dtl8yki6vzq5d9uc5nfytx5,9,3,2,255,58,md,3,1.0,0.0,21.992,1,1,0.0
6dtl8yki6vzq5d9uc5nfytx5,10,3,2,358,76,pd,1,0.0,1.0,18.505,1,1,0.0
6dtl8yki6vzq5d9uc5nfytx5,11,3,2,336,72,pd,3,0.0,1.0,14.066,1,1,0.0
6dtl8yki6vzq5d9uc5nfytx5,12,3,2,305,66,pd,2,3.0,0.0,26.11,1,1,0.0
6f3aa5rt3iprarsp7i9ms0ny,1,3,2,190,45,pd,1,2.0,0.0,4.94,1,1,0.0
6f3aa5rt3iprarsp7i9ms0ny,2,3,2,131,30,pd,2,2.0,0.0,7.619,1,1,0.0
6f3aa5rt3iprarsp7i9ms0ny,3,3,2,246,55,pd,3,0.0,1.0,13.4,1,1,0.0
6f3aa5rt3iprarsp7i9ms0ny,4,3,2,124,29,pd,1,0.0,1.0,6.382,1,1,0.0
6f3aa5rt3iprarsp7i9ms0ny,5,3,2,292,64,pd,1,,,,1,1,0.0
6f3aa5rt3iprarsp7i9ms0ny,6,3,2,148,35,pd,1,3.0,0.0,19.426,1,1,0.0
6f3aa5rt3iprarsp7i9ms0ny,7,3,2,94,24,pd,1,2.0,0.0,7.953,1,1,0.0
6f3aa5rt3iprarsp7i9ms0ny,8,3,2,54,17,pd,3,1.0,0.0,9.713,1,1,0.0
6f3aa5rt3iprarsp7i9ms0ny,9,3,2,255,58,md,3,1.0,0.0,6.85,1,1,0.0
6f3aa5rt3iprarsp7i9ms0ny,10,3,2,358,76,pd,1,3.0,0.0,6.466,1,1,0.0
6f3aa5rt3iprarsp7i9ms0ny,11,3,2,336,72,pd,3,3.0,0.0,1.092,1,1,0.0
6f3aa5rt3iprarsp7i9ms0ny,12,3,2,305,66,pd,2,2.0,0.0,10.796,1,1,0.0
6m8k1rargwqblxixzy1zwlhn,1,3,3,191,45,pd,2,0.0,1.0,14.382,1,1,0.0
6m8k1rargwqblxixzy1zwlhn,2,3,3,244,55,pd,1,0.0,1.0,26.91,1,1,0.0
6m8k1rargwqblxixzy1zwlhn,3,3,3,132,30,pd,3,0.0,1.0,23.099,1,1,0.0
6m8k1rargwqblxixzy1zwlhn,4,3,3,253,58,md,1,0.0,1.0,24.147,1,1,0.0
6m8k1rargwqblxixzy1zwlhn,5,3,3,52,17,pd,1,,,,1,1,0.0
6m8k1rargwqblxixzy1zwlhn,6,3,3,334,72,pd,1,0.0,1.0,22.838,1,1,0.0
6m8k1rargwqblxixzy1zwlhn,7,3,3,125,29,pd,2,0.0,1.0,10.334,1,1,0.0
6m8k1rargwqblxixzy1zwlhn,8,3,3,359,76,pd,2,0.0,1.0,28.372,1,1,0.0
6m8k1rargwqblxixzy1zwlhn,9,3,3,149,35,pd,2,1.0,0.0,28.323,1,1,0.0
6m8k1rargwqblxixzy1zwlhn,10,3,3,293,64,pd,2,2.0,0.0,26.881,1,1,0.0
6m8k1rargwqblxixzy1zwlhn,11,3,3,306,66,pd,3,0.0,1.0,22.129,1,1,0.0
6m8k1rargwqblxixzy1zwlhn,12,3,3,95,24,pd,2,0.0,1.0,12.334,1,1,0.0
6tewn839cnn36ucxdaweazal,1,3,2,190,45,pd,1,2.0,0.0,16.117,1,1,0.0
6tewn839cnn36ucxdaweazal,2,3,2,131,30,pd,2,0.0,1.0,15.829,1,1,0.0
6tewn839cnn36ucxdaweazal,3,3,2,246,55,pd,3,1.0,0.0,23.187,1,1,0.0
6tewn839cnn36ucxdaweazal,4,3,2,124,29,pd,1,0.0,1.0,27.98,1,1,0.0
6tewn839cnn36ucxdaweazal,5,3,2,292,64,pd,1,0.0,1.0,15.525,1,1,0.0
6tewn839cnn36ucxdaweazal,6,3,2,148,35,pd,1,0.0,1.0,17.42,1,1,0.0
6tewn839cnn36ucxdaweazal,7,3,2,94,24,pd,1,0.0,1.0,14.3,1,1,0.0
6tewn839cnn36ucxdaweazal,8,3,2,54,17,pd,3,1.0,0.0,27.885,1,1,0.0
6tewn839cnn36ucxdaweazal,9,3,2,255,58,md,3,0.0,1.0,23.788,1,1,0.0
6tewn839cnn36ucxdaweazal,10,3,2,358,76,pd,1,0.0,1.0,29.18,1,1,0.0
6tewn839cnn36ucxdaweazal,11,3,2,336,72,pd,3,0.0,1.0,16.716,1,1,0.0
6tewn839cnn36ucxdaweazal,12,3,2,305,66,pd,2,0.0,1.0,27.661,1,1,0.0
6um6se1civnig5az9f8ldvdo,1,3,2,190,45,pd,1,0.0,1.0,7.959,0,1,0.0
6um6se1civnig5az9f8ldvdo,2,3,2,131,30,pd,2,0.0,1.0,8.926,0,1,0.0
6um6se1civnig5az9f8ldvdo,3,3,2,246,55,pd,3,0.0,1.0,11.795,0,1,0.0
6um6se1civnig5az9f8ldvdo,4,3,2,124,29,pd,1,0.0,1.0,6.119,0,1,0.0
6um6se1civnig5az9f8ldvdo,5,3,2,292,64,pd,1,0.0,1.0,13.619,0,1,0.0
6um6se1civnig5az9f8ldvdo,6,3,2,148,35,pd,1,0.0,1.0,6.304,0,1,0.0
6um6se1civnig5az9f8ldvdo,7,3,2,94,24,pd,1,2.0,0.0,12.83,0,1,0.0
6um6se1civnig5az9f8ldvdo,8,3,2,54,17,pd,3,1.0,0.0,17.129,0,1,0.0
6um6se1civnig5az9f8ldvdo,9,3,2,255,58,md,3,0.0,1.0,11.995,0,1,0.0
6um6se1civnig5az9f8ldvdo,10,3,2,358,76,pd,1,0.0,1.0,16.203,0,1,0.0
6um6se1civnig5az9f8ldvdo,11,3,2,336,72,pd,3,0.0,1.0,18.191,0,1,0.0
6um6se1civnig5az9f8ldvdo,12,3,2,305,66,pd,2,0.0,1.0,17.507,0,1,0.0
6uyu2xtlxt3nlox1cex7kuig,1,3,2,190,45,pd,1,0.0,1.0,9.037,1,1,0.0
6uyu2xtlxt3nlox1cex7kuig,2,3,2,131,30,pd,2,0.0,1.0,10.559,1,1,0.0
6uyu2xtlxt3nlox1cex7kuig,3,3,2,246,55,pd,3,0.0,1.0,7.854,1,1,0.0
6uyu2xtlxt3nlox1cex7kuig,4,3,2,124,29,pd,1,0.0,1.0,25.392,1,1,0.0
6uyu2xtlxt3nlox1cex7kuig,5,3,2,292,64,pd,1,0.0,1.0,26.787,1,1,0.0
6uyu2xtlxt3nlox1cex7kuig,6,3,2,148,35,pd,1,0.0,1.0,8.024,1,1,0.0
6uyu2xtlxt3nlox1cex7kuig,7,3,2,94,24,pd,1,0.0,1.0,26.437,1,1,0.0
6uyu2xtlxt3nlox1cex7kuig,8,3,2,54,17,pd,3,,,,1,1,0.0
6uyu2xtlxt3nlox1cex7kuig,9,3,2,255,58,md,3,0.0,1.0,16.659,1,1,0.0
6uyu2xtlxt3nlox1cex7kuig,10,3,2,358,76,pd,1,,,,1,1,0.0
6uyu2xtlxt3nlox1cex7kuig,11,3,2,336,72,pd,3,2.0,0.0,20.792,1,1,0.0
6uyu2xtlxt3nlox1cex7kuig,12,3,2,305,66,pd,2,0.0,1.0,9.991,1,1,0.0
73j4wrxjp2jnxa5uxvvxi33j,1,3,3,191,45,pd,2,0.0,1.0,9.246,1,1,0.0
73j4wrxjp2jnxa5uxvvxi33j,2,3,3,244,55,pd,1,0.0,1.0,7.112,1,1,0.0
73j4wrxjp2jnxa5uxvvxi33j,3,3,3,132,30,pd,3,0.0,1.0,12.298,1,1,0.0
73j4wrxjp2jnxa5uxvvxi33j,4,3,3,253,58,md,1,0.0,1.0,10.432,1,1,0.0
73j4wrxjp2jnxa5uxvvxi33j,5,3,3,52,17,pd,1,0.0,1.0,10.913,1,1,0.0
73j4wrxjp2jnxa5uxvvxi33j,6,3,3,334,72,pd,1,0.0,1.0,7.696,1,1,0.0
73j4wrxjp2jnxa5uxvvxi33j,7,3,3,125,29,pd,2,0.0,1.0,7.995,1,1,0.0
73j4wrxjp2jnxa5uxvvxi33j,8,3,3,359,76,pd,2,0.0,1.0,16.235,1,1,0.0
73j4wrxjp2jnxa5uxvvxi33j,9,3,3,149,35,pd,2,0.0,1.0,23.022,1,1,0.0
73j4wrxjp2jnxa5uxvvxi33j,10,3,3,293,64,pd,2,2.0,0.0,16.927,1,1,0.0
73j4wrxjp2jnxa5uxvvxi33j,11,3,3,306,66,pd,3,0.0,1.0,11.463,1,1,0.0
73j4wrxjp2jnxa5uxvvxi33j,12,3,3,95,24,pd,2,0.0,1.0,10.617,1,1,0.0
7d5byancsl8zb92cjxcrj7ol,1,3,2,190,45,pd,1,2.0,0.0,6.402,1,1,0.0
7d5byancsl8zb92cjxcrj7ol,2,3,2,131,30,pd,2,3.0,0.0,5.461,1,1,0.0
7d5byancsl8zb92cjxcrj7ol,3,3,2,246,55,pd,3,0.0,1.0,9.417,1,1,0.0
7d5byancsl8zb92cjxcrj7ol,4,3,2,124,29,pd,1,0.0,1.0,8.932,1,1,0.0
7d5byancsl8zb92cjxcrj7ol,5,3,2,292,64,pd,1,1.0,0.0,9.965,1,1,0.0
7d5byancsl8zb92cjxcrj7ol,6,3,2,148,35,pd,1,0.0,1.0,8.051,1,1,0.0
7d5byancsl8zb92cjxcrj7ol,7,3,2,94,24,pd,1,0.0,1.0,5.418,1,1,0.0
7d5byancsl8zb92cjxcrj7ol,8,3,2,54,17,pd,3,1.0,0.0,10.59,1,1,0.0
7d5byancsl8zb92cjxcrj7ol,9,3,2,255,58,md,3,3.0,0.0,11.757,1,1,0.0
7d5byancsl8zb92cjxcrj7ol,10,3,2,358,76,pd,1,1.0,0.0,12.444,1,1,0.0
7d5byancsl8zb92cjxcrj7ol,11,3,2,336,72,pd,3,1.0,0.0,10.856,1,1,0.0
7d5byancsl8zb92cjxcrj7ol,12,3,2,305,66,pd,2,0.0,1.0,7.169,1,1,0.0
7hx2rsgv0o3slq9s0g8nm0c9,1,3,3,191,45,pd,2,0.0,1.0,15.415,1,1,0.0
7hx2rsgv0o3slq9s0g8nm0c9,2,3,3,244,55,pd,1,0.0,1.0,10.356,1,1,0.0
7hx2rsgv0o3slq9s0g8nm0c9,3,3,3,132,30,pd,3,0.0,1.0,16.88,1,1,0.0
7hx2rsgv0o3slq9s0g8nm0c9,4,3,3,253,58,md,1,0.0,1.0,9.6,1,1,0.0
7hx2rsgv0o3slq9s0g8nm0c9,5,3,3,52,17,pd,1,0.0,1.0,14.042,1,1,0.0
7hx2rsgv0o3slq9s0g8nm0c9,6,3,3,334,72,pd,1,3.0,0.0,16.94,1,1,0.0
7hx2rsgv0o3slq9s0g8nm0c9,7,3,3,125,29,pd,2,0.0,1.0,16.028,1,1,0.0
7hx2rsgv0o3slq9s0g8nm0c9,8,3,3,359,76,pd,2,0.0,1.0,21.23,1,1,0.0
7hx2rsgv0o3slq9s0g8nm0c9,9,3,3,149,35,pd,2,1.0,0.0,17.099,1,1,0.0
7hx2rsgv0o3slq9s0g8nm0c9,10,3,3,293,64,pd,2,0.0,1.0,16.969,1,1,0.0
7hx2rsgv0o3slq9s0g8nm0c9,11,3,3,306,66,pd,3,1.0,0.0,16.7,1,1,0.0
7hx2rsgv0o3slq9s0g8nm0c9,12,3,3,95,24,pd,2,3.0,0.0,20.521,1,1,0.0
7iletsx2bi9hpppitgum2ffi,1,3,1,245,55,pd,2,0.0,1.0,12.018,1,1,0.0
7iletsx2bi9hpppitgum2ffi,2,3,1,304,66,pd,1,0.0,1.0,8.857,1,1,0.0
7iletsx2bi9hpppitgum2ffi,3,3,1,130,30,pd,1,0.0,1.0,9.284,1,1,0.0
7iletsx2bi9hpppitgum2ffi,4,3,1,254,58,md,2,3.0,0.0,18.247,1,1,0.0
7iletsx2bi9hpppitgum2ffi,5,3,1,192,45,pd,3,0.0,1.0,15.577,1,1,0.0
7iletsx2bi9hpppitgum2ffi,6,3,1,126,29,pd,3,,,,1,1,0.0
7iletsx2bi9hpppitgum2ffi,7,3,1,53,17,pd,2,1.0,0.0,9.252,1,1,0.0
7iletsx2bi9hpppitgum2ffi,8,3,1,96,24,pd,3,2.0,0.0,7.53,1,1,0.0
7iletsx2bi9hpppitgum2ffi,9,3,1,335,72,pd,2,1.0,0.0,9.782,1,1,0.0
7iletsx2bi9hpppitgum2ffi,10,3,1,294,64,pd,3,3.0,0.0,8.804,1,1,0.0
7iletsx2bi9hpppitgum2ffi,11,3,1,360,76,pd,3,0.0,1.0,6.734,1,1,0.0
7iletsx2bi9hpppitgum2ffi,12,3,1,150,35,pd,3,0.0,1.0,3.275,1,1,0.0
7qsxlzcgr0xwm8hzr2ksrpnj,1,3,1,245,55,pd,2,0.0,1.0,26.695,1,1,0.0
7qsxlzcgr0xwm8hzr2ksrpnj,2,3,1,304,66,pd,1,2.0,0.0,10.922,1,1,0.0
7qsxlzcgr0xwm8hzr2ksrpnj,3,3,1,130,30,pd,1,0.0,1.0,8.489,1,1,0.0
7qsxlzcgr0xwm8hzr2ksrpnj,4,3,1,254,58,md,2,0.0,1.0,16.399,1,1,0.0
7qsxlzcgr0xwm8hzr2ksrpnj,5,3,1,192,45,pd,3,0.0,1.0,15.971,1,1,0.0
7qsxlzcgr0xwm8hzr2ksrpnj,6,3,1,126,29,pd,3,0.0,1.0,10.293,1,1,0.0
7qsxlzcgr0xwm8hzr2ksrpnj,7,3,1,53,17,pd,2,0.0,1.0,25.762,1,1,0.0
7qsxlzcgr0xwm8hzr2ksrpnj,8,3,1,96,24,pd,3,2.0,0.0,15.15,1,1,0.0
7qsxlzcgr0xwm8hzr2ksrpnj,9,3,1,335,72,pd,2,2.0,0.0,18.129,1,1,0.0
7qsxlzcgr0xwm8hzr2ksrpnj,10,3,1,294,64,pd,3,0.0,1.0,23.252,1,1,0.0
7qsxlzcgr0xwm8hzr2ksrpnj,11,3,1,360,76,pd,3,0.0,1.0,29.12,1,1,0.0
7qsxlzcgr0xwm8hzr2ksrpnj,12,3,1,150,35,pd,3,2.0,0.0,28.53,1,1,0.0
7rkp1gli11u8ntnanhi2269l,1,3,2,190,45,pd,1,0.0,1.0,7.516,1,1,0.0
7rkp1gli11u8ntnanhi2269l,2,3,2,131,30,pd,2,0.0,1.0,14.422,1,1,0.0
7rkp1gli11u8ntnanhi2269l,3,3,2,246,55,pd,3,0.0,1.0,9.635,1,1,0.0
7rkp1gli11u8ntnanhi2269l,4,3,2,124,29,pd,1,0.0,1.0,7.64,1,1,0.0
7rkp1gli11u8ntnanhi2269l,5,3,2,292,64,pd,1,0.0,1.0,17.151,1,1,0.0
7rkp1gli11u8ntnanhi2269l,6,3,2,148,35,pd,1,0.0,1.0,7.879,1,1,0.0
7rkp1gli11u8ntnanhi2269l,7,3,2,94,24,pd,1,0.0,1.0,14.756,1,1,0.0
7rkp1gli11u8ntnanhi2269l,8,3,2,54,17,pd,3,2.0,0.0,13.102,1,1,0.0
7rkp1gli11u8ntnanhi2269l,9,3,2,255,58,md,3,1.0,0.0,14.243,1,1,0.0
7rkp1gli11u8ntnanhi2269l,10,3,2,358,76,pd,1,3.0,0.0,14.346,1,1,0.0
7rkp1gli11u8ntnanhi2269l,11,3,2,336,72,pd,3,2.0,0.0,16.47,1,1,0.0
7rkp1gli11u8ntnanhi2269l,12,3,2,305,66,pd,2,1.0,0.0,20.974,1,1,0.0
7trdhsw3igijxuyivqeuo9xm,1,3,3,191,45,pd,2,0.0,1.0,11.138,1,1,0.0
7trdhsw3igijxuyivqeuo9xm,2,3,3,244,55,pd,1,0.0,1.0,8.092,1,1,0.0
7trdhsw3igijxuyivqeuo9xm,3,3,3,132,30,pd,3,0.0,1.0,9.022,1,1,0.0
7trdhsw3igijxuyivqeuo9xm,4,3,3,253,58,md,1,0.0,1.0,11.265,1,1,0.0
7trdhsw3igijxuyivqeuo9xm,5,3,3,52,17,pd,1,0.0,1.0,29.245,1,1,0.0
7trdhsw3igijxuyivqeuo9xm,6,3,3,334,72,pd,1,3.0,0.0,29.721,1,1,0.0
7trdhsw3igijxuyivqeuo9xm,7,3,3,125,29,pd,2,0.0,1.0,27.708,1,1,0.0
7trdhsw3igijxuyivqeuo9xm,8,3,3,359,76,pd,2,0.0,1.0,17.418,1,1,0.0
7trdhsw3igijxuyivqeuo9xm,9,3,3,149,35,pd,2,0.0,1.0,24.056,1,1,0.0
7trdhsw3igijxuyivqeuo9xm,10,3,3,293,64,pd,2,0.0,1.0,3.855,1,1,0.0
7trdhsw3igijxuyivqeuo9xm,11,3,3,306,66,pd,3,1.0,0.0,1.11,1,1,0.0
7trdhsw3igijxuyivqeuo9xm,12,3,3,95,24,pd,2,2.0,0.0,1.294,1,1,0.0
7z8csc7zfih5pfeor0kfyt2v,1,3,2,190,45,pd,1,0.0,1.0,9.477,1,1,0.0
7z8csc7zfih5pfeor0kfyt2v,2,3,2,131,30,pd,2,0.0,1.0,10.66,1,1,0.0
7z8csc7zfih5pfeor0kfyt2v,3,3,2,246,55,pd,3,0.0,1.0,13.669,1,1,0.0
7z8csc7zfih5pfeor0kfyt2v,4,3,2,124,29,pd,1,0.0,1.0,13.059,1,1,0.0
7z8csc7zfih5pfeor0kfyt2v,5,3,2,292,64,pd,1,0.0,1.0,12.58,1,1,0.0
7z8csc7zfih5pfeor0kfyt2v,6,3,2,148,35,pd,1,0.0,1.0,10.316,1,1,0.0
7z8csc7zfih5pfeor0kfyt2v,7,3,2,94,24,pd,1,0.0,1.0,13.9,1,1,0.0
7z8csc7zfih5pfeor0kfyt2v,8,3,2,54,17,pd,3,0.0,1.0,23.085,1,1,0.0
7z8csc7zfih5pfeor0kfyt2v,9,3,2,255,58,md,3,0.0,1.0,17.756,1,1,0.0
7z8csc7zfih5pfeor0kfyt2v,10,3,2,358,76,pd,1,0.0,1.0,26.973,1,1,0.0
7z8csc7zfih5pfeor0kfyt2v,11,3,2,336,72,pd,3,0.0,1.0,10.412,1,1,0.0
7z8csc7zfih5pfeor0kfyt2v,12,3,2,305,66,pd,2,0.0,1.0,15.909,1,1,0.0
83d65pn4d2raivkvi6hb8fhc,1,3,2,190,45,pd,1,0.0,1.0,18.737,1,1,0.0
83d65pn4d2raivkvi6hb8fhc,2,3,2,131,30,pd,2,0.0,1.0,16.493,1,1,0.0
83d65pn4d2raivkvi6hb8fhc,3,3,2,246,55,pd,3,0.0,1.0,16.874,1,1,0.0
83d65pn4d2raivkvi6hb8fhc,4,3,2,124,29,pd,1,0.0,1.0,13.429,1,1,0.0
83d65pn4d2raivkvi6hb8fhc,5,3,2,292,64,pd,1,0.0,1.0,20.403,1,1,0.0
83d65pn4d2raivkvi6hb8fhc,6,3,2,148,35,pd,1,0.0,1.0,9.731,1,1,0.0
83d65pn4d2raivkvi6hb8fhc,7,3,2,94,24,pd,1,0.0,1.0,13.512,1,1,0.0
83d65pn4d2raivkvi6hb8fhc,8,3,2,54,17,pd,3,0.0,1.0,28.651,1,1,0.0
83d65pn4d2raivkvi6hb8fhc,9,3,2,255,58,md,3,0.0,1.0,28.552,1,1,0.0
83d65pn4d2raivkvi6hb8fhc,10,3,2,358,76,pd,1,0.0,1.0,21.017,1,1,0.0
83d65pn4d2raivkvi6hb8fhc,11,3,2,336,72,pd,3,2.0,0.0,18.887,1,1,0.0
83d65pn4d2raivkvi6hb8fhc,12,3,2,305,66,pd,2,2.0,0.0,17.889,1,1,0.0
83vud0zmzqus4ax3dezz2irm,1,3,1,245,55,pd,2,0.0,1.0,24.808,1,1,0.0
83vud0zmzqus4ax3dezz2irm,2,3,1,304,66,pd,1,0.0,1.0,6.388,1,1,0.0
83vud0zmzqus4ax3dezz2irm,3,3,1,130,30,pd,1,0.0,1.0,5.572,1,1,0.0
83vud0zmzqus4ax3dezz2irm,4,3,1,254,58,md,2,0.0,1.0,19.134,1,1,2.0
83vud0zmzqus4ax3dezz2irm,5,3,1,192,45,pd,3,0.0,1.0,10.741,1,1,0.0
83vud0zmzqus4ax3dezz2irm,6,3,1,126,29,pd,3,0.0,1.0,12.318,1,1,0.0
83vud0zmzqus4ax3dezz2irm,7,3,1,53,17,pd,2,0.0,1.0,22.801,1,1,0.0
83vud0zmzqus4ax3dezz2irm,8,3,1,96,24,pd,3,0.0,1.0,25.324,1,1,0.0
83vud0zmzqus4ax3dezz2irm,9,3,1,335,72,pd,2,,,,1,1,0.0
83vud0zmzqus4ax3dezz2irm,10,3,1,294,64,pd,3,1.0,0.0,12.123,1,1,0.0
83vud0zmzqus4ax3dezz2irm,11,3,1,360,76,pd,3,0.0,1.0,14.589,1,1,0.0
83vud0zmzqus4ax3dezz2irm,12,3,1,150,35,pd,3,0.0,1.0,25.882,1,1,0.0
8b9dem5np6py2o3izbn0xbt7,1,3,3,191,45,pd,2,0.0,1.0,15.297,1,1,0.0
8b9dem5np6py2o3izbn0xbt7,2,3,3,244,55,pd,1,0.0,1.0,14.661,1,1,0.0
8b9dem5np6py2o3izbn0xbt7,3,3,3,132,30,pd,3,0.0,1.0,14.192,1,1,0.0
8b9dem5np6py2o3izbn0xbt7,4,3,3,253,58,md,1,0.0,1.0,17.788,1,1,0.0
8b9dem5np6py2o3izbn0xbt7,5,3,3,52,17,pd,1,0.0,1.0,20.084,1,1,0.0
8b9dem5np6py2o3izbn0xbt7,6,3,3,334,72,pd,1,0.0,1.0,19.764,1,1,0.0
8b9dem5np6py2o3izbn0xbt7,7,3,3,125,29,pd,2,0.0,1.0,26.234,1,1,0.0
8b9dem5np6py2o3izbn0xbt7,8,3,3,359,76,pd,2,0.0,1.0,22.937,1,1,0.0
8b9dem5np6py2o3izbn0xbt7,9,3,3,149,35,pd,2,0.0,1.0,20.602,1,1,0.0
8b9dem5np6py2o3izbn0xbt7,10,3,3,293,64,pd,2,2.0,0.0,24.179,1,1,0.0
8b9dem5np6py2o3izbn0xbt7,11,3,3,306,66,pd,3,0.0,1.0,22.867,1,1,0.0
8b9dem5np6py2o3izbn0xbt7,12,3,3,95,24,pd,2,0.0,1.0,29.911,1,1,0.0
8mmsqelicsqzbhj5che2kjjd,1,3,2,190,45,pd,1,0.0,1.0,5.936,1,1,0.0
8mmsqelicsqzbhj5che2kjjd,2,3,2,131,30,pd,2,3.0,0.0,11.403,1,1,0.0
8mmsqelicsqzbhj5che2kjjd,3,3,2,246,55,pd,3,1.0,0.0,4.16,1,1,0.0
8mmsqelicsqzbhj5che2kjjd,4,3,2,124,29,pd,1,1.0,0.0,5.446,1,1,0.0
8mmsqelicsqzbhj5che2kjjd,5,3,2,292,64,pd,1,2.0,0.0,7.738,1,1,0.0
8mmsqelicsqzbhj5che2kjjd,6,3,2,148,35,pd,1,0.0,1.0,7.269,1,1,0.0
8mmsqelicsqzbhj5che2kjjd,7,3,2,94,24,pd,1,2.0,0.0,6.098,1,1,0.0
8mmsqelicsqzbhj5che2kjjd,8,3,2,54,17,pd,3,2.0,0.0,5.598,1,1,0.0
8mmsqelicsqzbhj5che2kjjd,9,3,2,255,58,md,3,2.0,0.0,12.039,1,1,0.0
8mmsqelicsqzbhj5che2kjjd,10,3,2,358,76,pd,1,2.0,0.0,1.951,1,1,0.0
8mmsqelicsqzbhj5che2kjjd,11,3,2,336,72,pd,3,3.0,0.0,2.267,1,1,0.0
8mmsqelicsqzbhj5che2kjjd,12,3,2,305,66,pd,2,1.0,0.0,2.479,1,1,0.0
8oryv8j673gzz5uwrfkxfyf9,1,3,3,191,45,pd,2,0.0,1.0,7.948,1,1,0.0
8oryv8j673gzz5uwrfkxfyf9,2,3,3,244,55,pd,1,0.0,1.0,11.494,1,1,0.0
8oryv8j673gzz5uwrfkxfyf9,3,3,3,132,30,pd,3,0.0,1.0,10.991,1,1,0.0
8oryv8j673gzz5uwrfkxfyf9,4,3,3,253,58,md,1,0.0,1.0,13.901,1,1,0.0
8oryv8j673gzz5uwrfkxfyf9,5,3,3,52,17,pd,1,0.0,1.0,11.052,1,1,0.0
8oryv8j673gzz5uwrfkxfyf9,6,3,3,334,72,pd,1,0.0,1.0,5.949,1,1,0.0
8oryv8j673gzz5uwrfkxfyf9,7,3,3,125,29,pd,2,0.0,1.0,17.672,1,1,0.0
8oryv8j673gzz5uwrfkxfyf9,8,3,3,359,76,pd,2,0.0,1.0,17.264,1,1,0.0
8oryv8j673gzz5uwrfkxfyf9,9,3,3,149,35,pd,2,0.0,1.0,8.778,1,1,0.0
8oryv8j673gzz5uwrfkxfyf9,10,3,3,293,64,pd,2,0.0,1.0,14.291,1,1,0.0
8oryv8j673gzz5uwrfkxfyf9,11,3,3,306,66,pd,3,0.0,1.0,16.623,1,1,0.0
8oryv8j673gzz5uwrfkxfyf9,12,3,3,95,24,pd,2,0.0,1.0,7.87,1,1,0.0
8pd3whbr8twsf1j1y2hdn84q,1,3,3,191,45,pd,2,0.0,1.0,10.018,1,1,0.0
8pd3whbr8twsf1j1y2hdn84q,2,3,3,244,55,pd,1,0.0,1.0,6.763,1,1,0.0
8pd3whbr8twsf1j1y2hdn84q,3,3,3,132,30,pd,3,0.0,1.0,14.061,1,1,0.0
8pd3whbr8twsf1j1y2hdn84q,4,3,3,253,58,md,1,0.0,1.0,15.117,1,1,0.0
8pd3whbr8twsf1j1y2hdn84q,5,3,3,52,17,pd,1,0.0,1.0,23.313,1,1,0.0
8pd3whbr8twsf1j1y2hdn84q,6,3,3,334,72,pd,1,0.0,1.0,9.158,1,1,0.0
8pd3whbr8twsf1j1y2hdn84q,7,3,3,125,29,pd,2,0.0,1.0,14.614,1,1,0.0
8pd3whbr8twsf1j1y2hdn84q,8,3,3,359,76,pd,2,0.0,1.0,15.579,1,1,0.0
8pd3whbr8twsf1j1y2hdn84q,9,3,3,149,35,pd,2,0.0,1.0,21.099,1,1,0.0
8pd3whbr8twsf1j1y2hdn84q,10,3,3,293,64,pd,2,0.0,1.0,27.572,1,1,0.0
8pd3whbr8twsf1j1y2hdn84q,11,3,3,306,66,pd,3,1.0,0.0,19.678,1,1,0.0
8pd3whbr8twsf1j1y2hdn84q,12,3,3,95,24,pd,2,0.0,1.0,19.111,1,1,0.0
8spwa7djvf31u2w5c739di0i,1,3,2,190,45,pd,1,0.0,1.0,8.451,1,1,0.0
8spwa7djvf31u2w5c739di0i,2,3,2,131,30,pd,2,2.0,0.0,14.731,1,1,0.0
8spwa7djvf31u2w5c739di0i,3,3,2,246,55,pd,3,0.0,1.0,11.589,1,1,0.0
8spwa7djvf31u2w5c739di0i,4,3,2,124,29,pd,1,0.0,1.0,12.158,1,1,0.0
8spwa7djvf31u2w5c739di0i,5,3,2,292,64,pd,1,0.0,1.0,9.93,1,1,0.0
8spwa7djvf31u2w5c739di0i,6,3,2,148,35,pd,1,2.0,0.0,12.37,1,1,0.0
8spwa7djvf31u2w5c739di0i,7,3,2,94,24,pd,1,0.0,1.0,4.9,1,1,0.0
8spwa7djvf31u2w5c739di0i,8,3,2,54,17,pd,3,0.0,1.0,16.421,1,1,0.0
8spwa7djvf31u2w5c739di0i,9,3,2,255,58,md,3,1.0,0.0,11.424,1,1,0.0
8spwa7djvf31u2w5c739di0i,10,3,2,358,76,pd,1,1.0,0.0,15.939,1,1,0.0
8spwa7djvf31u2w5c739di0i,11,3,2,336,72,pd,3,0.0,1.0,12.514,1,1,0.0
8spwa7djvf31u2w5c739di0i,12,3,2,305,66,pd,2,0.0,1.0,8.163,1,1,0.0
904us1xo4en5ejund7wj7xcz,1,3,2,190,45,pd,1,0.0,1.0,10.389,1,1,0.0
904us1xo4en5ejund7wj7xcz,2,3,2,131,30,pd,2,0.0,1.0,13.706,1,1,0.0
904us1xo4en5ejund7wj7xcz,3,3,2,246,55,pd,3,0.0,1.0,9.952,1,1,0.0
904us1xo4en5ejund7wj7xcz,4,3,2,124,29,pd,1,0.0,1.0,13.675,1,1,0.0
904us1xo4en5ejund7wj7xcz,5,3,2,292,64,pd,1,0.0,1.0,17.172,1,1,0.0
904us1xo4en5ejund7wj7xcz,6,3,2,148,35,pd,1,0.0,1.0,8.873,1,1,0.0
904us1xo4en5ejund7wj7xcz,7,3,2,94,24,pd,1,0.0,1.0,23.079,1,1,0.0
904us1xo4en5ejund7wj7xcz,8,3,2,54,17,pd,3,0.0,1.0,24.513,1,1,0.0
904us1xo4en5ejund7wj7xcz,9,3,2,255,58,md,3,1.0,0.0,26.148,1,1,0.0
904us1xo4en5ejund7wj7xcz,10,3,2,358,76,pd,1,0.0,1.0,29.578,1,1,0.0
904us1xo4en5ejund7wj7xcz,11,3,2,336,72,pd,3,0.0,1.0,14.398,1,1,0.0
904us1xo4en5ejund7wj7xcz,12,3,2,305,66,pd,2,0.0,1.0,15.621,1,1,0.0
90fvgdmx76qgnfqbxam1twsf,1,3,3,191,45,pd,2,0.0,1.0,16.946,1,1,0.0
90fvgdmx76qgnfqbxam1twsf,2,3,3,244,55,pd,1,0.0,1.0,18.551,1,1,0.0
90fvgdmx76qgnfqbxam1twsf,3,3,3,132,30,pd,3,0.0,1.0,15.714,1,1,0.0
90fvgdmx76qgnfqbxam1twsf,4,3,3,253,58,md,1,0.0,1.0,24.878,1,1,0.0
90fvgdmx76qgnfqbxam1twsf,5,3,3,52,17,pd,1,1.0,0.0,29.007,1,1,0.0
90fvgdmx76qgnfqbxam1twsf,6,3,3,334,72,pd,1,,,,1,1,0.0
90fvgdmx76qgnfqbxam1twsf,7,3,3,125,29,pd,2,0.0,1.0,8.888,1,1,0.0
90fvgdmx76qgnfqbxam1twsf,8,3,3,359,76,pd,2,0.0,1.0,9.624,1,1,0.0
90fvgdmx76qgnfqbxam1twsf,9,3,3,149,35,pd,2,0.0,1.0,9.808,1,1,0.0
90fvgdmx76qgnfqbxam1twsf,10,3,3,293,64,pd,2,0.0,1.0,25.125,1,1,0.0
90fvgdmx76qgnfqbxam1twsf,11,3,3,306,66,pd,3,0.0,1.0,26.054,1,1,0.0
90fvgdmx76qgnfqbxam1twsf,12,3,3,95,24,pd,2,0.0,1.0,22.363,1,1,0.0
93e3pf3yo2ioqcj418q5e4oz,1,3,3,191,45,pd,2,0.0,1.0,11.727,1,1,0.0
93e3pf3yo2ioqcj418q5e4oz,2,3,3,244,55,pd,1,0.0,1.0,7.325,1,1,0.0
93e3pf3yo2ioqcj418q5e4oz,3,3,3,132,30,pd,3,0.0,1.0,12.907,1,1,0.0
93e3pf3yo2ioqcj418q5e4oz,4,3,3,253,58,md,1,1.0,0.0,10.393,1,1,0.0
93e3pf3yo2ioqcj418q5e4oz,5,3,3,52,17,pd,1,2.0,0.0,18.345,1,1,0.0
93e3pf3yo2ioqcj418q5e4oz,6,3,3,334,72,pd,1,0.0,1.0,8.211,1,1,0.0
93e3pf3yo2ioqcj418q5e4oz,7,3,3,125,29,pd,2,0.0,1.0,18.094,1,1,0.0
93e3pf3yo2ioqcj418q5e4oz,8,3,3,359,76,pd,2,0.0,1.0,21.208,1,1,0.0
93e3pf3yo2ioqcj418q5e4oz,9,3,3,149,35,pd,2,3.0,0.0,15.445,1,1,0.0
93e3pf3yo2ioqcj418q5e4oz,10,3,3,293,64,pd,2,0.0,1.0,29.928,1,1,0.0
93e3pf3yo2ioqcj418q5e4oz,11,3,3,306,66,pd,3,0.0,1.0,9.843,1,1,0.0
93e3pf3yo2ioqcj418q5e4oz,12,3,3,95,24,pd,2,2.0,0.0,12.958,1,1,0.0
9aw9gl5jqv46t2q1flf417d0,1,3,1,245,55,pd,2,0.0,1.0,21.232,1,1,0.0
9aw9gl5jqv46t2q1flf417d0,2,3,1,304,66,pd,1,0.0,1.0,13.24,1,1,0.0
9aw9gl5jqv46t2q1flf417d0,3,3,1,130,30,pd,1,0.0,1.0,10.424,1,1,0.0
9aw9gl5jqv46t2q1flf417d0,4,3,1,254,58,md,2,1.0,0.0,24.953,1,1,0.0
9aw9gl5jqv46t2q1flf417d0,5,3,1,192,45,pd,3,0.0,1.0,26.607,1,1,0.0
9aw9gl5jqv46t2q1flf417d0,6,3,1,126,29,pd,3,0.0,1.0,7.35,1,1,0.0
9aw9gl5jqv46t2q1flf417d0,7,3,1,53,17,pd,2,0.0,1.0,21.401,1,1,0.0
9aw9gl5jqv46t2q1flf417d0,8,3,1,96,24,pd,3,0.0,1.0,9.581,1,1,0.0
9aw9gl5jqv46t2q1flf417d0,9,3,1,335,72,pd,2,0.0,1.0,15.594,1,1,0.0
9aw9gl5jqv46t2q1flf417d0,10,3,1,294,64,pd,3,0.0,1.0,25.516,1,1,0.0
9aw9gl5jqv46t2q1flf417d0,11,3,1,360,76,pd,3,0.0,1.0,16.805,1,1,0.0
9aw9gl5jqv46t2q1flf417d0,12,3,1,150,35,pd,3,0.0,1.0,17.585,1,1,0.0
9b2kdcnpqeq9h5ys3005pqjt,1,3,1,245,55,pd,2,0.0,1.0,17.496,1,1,0.0
9b2kdcnpqeq9h5ys3005pqjt,2,3,1,304,66,pd,1,0.0,1.0,5.659,1,1,0.0
9b2kdcnpqeq9h5ys3005pqjt,3,3,1,130,30,pd,1,0.0,1.0,10.294,1,1,0.0
9b2kdcnpqeq9h5ys3005pqjt,4,3,1,254,58,md,2,1.0,0.0,8.292,1,1,0.0
9b2kdcnpqeq9h5ys3005pqjt,5,3,1,192,45,pd,3,0.0,1.0,20.669,1,1,0.0
9b2kdcnpqeq9h5ys3005pqjt,6,3,1,126,29,pd,3,3.0,0.0,29.759,1,1,0.0
9b2kdcnpqeq9h5ys3005pqjt,7,3,1,53,17,pd,2,1.0,0.0,15.246,1,1,0.0
9b2kdcnpqeq9h5ys3005pqjt,8,3,1,96,24,pd,3,2.0,0.0,14.706,1,1,0.0
9b2kdcnpqeq9h5ys3005pqjt,9,3,1,335,72,pd,2,2.0,0.0,10.248,1,1,0.0
9b2kdcnpqeq9h5ys3005pqjt,10,3,1,294,64,pd,3,3.0,0.0,21.243,1,1,0.0
9b2kdcnpqeq9h5ys3005pqjt,11,3,1,360,76,pd,3,3.0,0.0,25.508,1,1,0.0
9b2kdcnpqeq9h5ys3005pqjt,12,3,1,150,35,pd,3,1.0,0.0,22.108,1,1,0.0
9h3oeocks7ljv6oz2kisnk7j,1,3,3,191,45,pd,2,0.0,1.0,12.323,1,1,0.0
9h3oeocks7ljv6oz2kisnk7j,2,3,3,244,55,pd,1,0.0,1.0,7.616,1,1,0.0
9h3oeocks7ljv6oz2kisnk7j,3,3,3,132,30,pd,3,3.0,0.0,8.456,1,1,0.0
9h3oeocks7ljv6oz2kisnk7j,4,3,3,253,58,md,1,0.0,1.0,11.542,1,1,0.0
9h3oeocks7ljv6oz2kisnk7j,5,3,3,52,17,pd,1,1.0,0.0,9.586,1,1,0.0
9h3oeocks7ljv6oz2kisnk7j,6,3,3,334,72,pd,1,3.0,0.0,12.957,1,1,0.0
9h3oeocks7ljv6oz2kisnk7j,7,3,3,125,29,pd,2,0.0,1.0,8.3,1,1,0.0
9h3oeocks7ljv6oz2kisnk7j,8,3,3,359,76,pd,2,2.0,0.0,10.399,1,1,0.0
9h3oeocks7ljv6oz2kisnk7j,9,3,3,149,35,pd,2,0.0,1.0,9.109,1,1,0.0
9h3oeocks7ljv6oz2kisnk7j,10,3,3,293,64,pd,2,3.0,0.0,11.986,1,1,0.0
9h3oeocks7ljv6oz2kisnk7j,11,3,3,306,66,pd,3,1.0,0.0,8.745,1,1,0.0
9h3oeocks7ljv6oz2kisnk7j,12,3,3,95,24,pd,2,0.0,1.0,8.804,1,1,0.0
9hropjx6bwxp4uxt1ljoqfbn,1,3,3,191,45,pd,2,0.0,1.0,2.91,1,1,0.0
9hropjx6bwxp4uxt1ljoqfbn,2,3,3,244,55,pd,1,0.0,1.0,4.488,1,1,0.0
9hropjx6bwxp4uxt1ljoqfbn,3,3,3,132,30,pd,3,2.0,0.0,15.7,1,1,0.0
9hropjx6bwxp4uxt1ljoqfbn,4,3,3,253,58,md,1,0.0,1.0,7.511,1,1,0.0
9hropjx6bwxp4uxt1ljoqfbn,5,3,3,52,17,pd,1,1.0,0.0,6.297,1,1,0.0
9hropjx6bwxp4uxt1ljoqfbn,6,3,3,334,72,pd,1,3.0,0.0,4.971,1,1,0.0
9hropjx6bwxp4uxt1ljoqfbn,7,3,3,125,29,pd,2,1.0,0.0,19.566,1,1,0.0
9hropjx6bwxp4uxt1ljoqfbn,8,3,3,359,76,pd,2,2.0,0.0,3.546,1,1,0.0
9hropjx6bwxp4uxt1ljoqfbn,9,3,3,149,35,pd,2,0.0,1.0,4.55,1,1,0.0
9hropjx6bwxp4uxt1ljoqfbn,10,3,3,293,64,pd,2,,,,1,1,0.0
9hropjx6bwxp4uxt1ljoqfbn,11,3,3,306,66,pd,3,2.0,0.0,4.05,1,1,0.0
9hropjx6bwxp4uxt1ljoqfbn,12,3,3,95,24,pd,2,0.0,1.0,2.127,1,1,0.0
9k2p6i0szt5h345an6xswxxj,1,3,1,245,55,pd,2,0.0,1.0,9.729,1,1,0.0
9k2p6i0szt5h345an6xswxxj,2,3,1,304,66,pd,1,0.0,1.0,16.921,1,1,0.0
9k2p6i0szt5h345an6xswxxj,3,3,1,130,30,pd,1,0.0,1.0,11.419,1,1,0.0
9k2p6i0szt5h345an6xswxxj,4,3,1,254,58,md,2,0.0,1.0,21.552,1,1,0.0
9k2p6i0szt5h345an6xswxxj,5,3,1,192,45,pd,3,0.0,1.0,25.272,1,1,0.0
9k2p6i0szt5h345an6xswxxj,6,3,1,126,29,pd,3,0.0,1.0,19.627,1,1,0.0
9k2p6i0szt5h345an6xswxxj,7,3,1,53,17,pd,2,0.0,1.0,25.728,1,1,0.0
9k2p6i0szt5h345an6xswxxj,8,3,1,96,24,pd,3,0.0,1.0,29.23,1,1,0.0
9k2p6i0szt5h345an6xswxxj,9,3,1,335,72,pd,2,0.0,1.0,24.437,1,1,0.0
9k2p6i0szt5h345an6xswxxj,10,3,1,294,64,pd,3,0.0,1.0,29.182,1,1,0.0
9k2p6i0szt5h345an6xswxxj,11,3,1,360,76,pd,3,,,,1,1,0.0
9k2p6i0szt5h345an6xswxxj,12,3,1,150,35,pd,3,0.0,1.0,29.521,1,1,0.0
9ka9kjq1qxm93f9d8d3m9htr,1,3,1,245,55,pd,2,0.0,1.0,7.897,1,1,0.0
9ka9kjq1qxm93f9d8d3m9htr,2,3,1,304,66,pd,1,1.0,0.0,6.618,1,1,0.0
9ka9kjq1qxm93f9d8d3m9htr,3,3,1,130,30,pd,1,3.0,0.0,10.12,1,1,0.0
9ka9kjq1qxm93f9d8d3m9htr,4,3,1,254,58,md,2,1.0,0.0,6.943,1,1,0.0
9ka9kjq1qxm93f9d8d3m9htr,5,3,1,192,45,pd,3,0.0,1.0,11.46,1,1,0.0
9ka9kjq1qxm93f9d8d3m9htr,6,3,1,126,29,pd,3,0.0,1.0,7.886,1,1,0.0
9ka9kjq1qxm93f9d8d3m9htr,7,3,1,53,17,pd,2,0.0,1.0,9.504,1,1,0.0
9ka9kjq1qxm93f9d8d3m9htr,8,3,1,96,24,pd,3,0.0,1.0,9.59,1,1,0.0
9ka9kjq1qxm93f9d8d3m9htr,9,3,1,335,72,pd,2,3.0,0.0,8.115,1,1,0.0
9ka9kjq1qxm93f9d8d3m9htr,10,3,1,294,64,pd,3,3.0,0.0,12.514,1,1,0.0
9ka9kjq1qxm93f9d8d3m9htr,11,3,1,360,76,pd,3,2.0,0.0,7.723,1,1,0.0
9ka9kjq1qxm93f9d8d3m9htr,12,3,1,150,35,pd,3,0.0,1.0,8.769,1,1,0.0
9s2gz3eg2b6wprneya5bcu29,1,3,3,191,45,pd,2,0.0,1.0,8.952,1,1,0.0
9s2gz3eg2b6wprneya5bcu29,2,3,3,244,55,pd,1,0.0,1.0,6.785,1,1,0.0
9s2gz3eg2b6wprneya5bcu29,3,3,3,132,30,pd,3,3.0,0.0,8.9,1,1,0.0
9s2gz3eg2b6wprneya5bcu29,4,3,3,253,58,md,1,1.0,0.0,12.193,1,1,0.0
9s2gz3eg2b6wprneya5bcu29,5,3,3,52,17,pd,1,0.0,1.0,21.117,1,1,0.0
9s2gz3eg2b6wprneya5bcu29,6,3,3,334,72,pd,1,3.0,0.0,15.282,1,1,0.0
9s2gz3eg2b6wprneya5bcu29,7,3,3,125,29,pd,2,3.0,0.0,7.094,1,1,0.0
9s2gz3eg2b6wprneya5bcu29,8,3,3,359,76,pd,2,0.0,1.0,11.345,1,1,0.0
9s2gz3eg2b6wprneya5bcu29,9,3,3,149,35,pd,2,0.0,1.0,5.962,1,1,0.0
9s2gz3eg2b6wprneya5bcu29,10,3,3,293,64,pd,2,1.0,0.0,15.255,1,1,0.0
9s2gz3eg2b6wprneya5bcu29,11,3,3,306,66,pd,3,3.0,0.0,6.97,1,1,0.0
9s2gz3eg2b6wprneya5bcu29,12,3,3,95,24,pd,2,3.0,0.0,14.053,1,1,0.0
9tz3b7sj8khwmyl6fj7nucqi,1,3,2,190,45,pd,1,0.0,1.0,10.448,1,1,0.0
9tz3b7sj8khwmyl6fj7nucqi,2,3,2,131,30,pd,2,2.0,0.0,15.305,1,1,0.0
9tz3b7sj8khwmyl6fj7nucqi,3,3,2,246,55,pd,3,0.0,1.0,9.906,1,1,0.0
9tz3b7sj8khwmyl6fj7nucqi,4,3,2,124,29,pd,1,0.0,1.0,12.008,1,1,0.0
9tz3b7sj8khwmyl6fj7nucqi,5,3,2,292,64,pd,1,0.0,1.0,23.221,1,1,0.0
9tz3b7sj8khwmyl6fj7nucqi,6,3,2,148,35,pd,1,0.0,1.0,14.49,1,1,0.0
9tz3b7sj8khwmyl6fj7nucqi,7,3,2,94,24,pd,1,1.0,0.0,22.048,1,1,0.0
9tz3b7sj8khwmyl6fj7nucqi,8,3,2,54,17,pd,3,0.0,1.0,18.697,1,1,0.0
9tz3b7sj8khwmyl6fj7nucqi,9,3,2,255,58,md,3,2.0,0.0,16.83,1,1,0.0
9tz3b7sj8khwmyl6fj7nucqi,10,3,2,358,76,pd,1,3.0,0.0,20.412,1,1,0.0
9tz3b7sj8khwmyl6fj7nucqi,11,3,2,336,72,pd,3,2.0,0.0,21.087,1,1,0.0
9tz3b7sj8khwmyl6fj7nucqi,12,3,2,305,66,pd,2,2.0,0.0,23.55,1,1,0.0
a0dnodmhv7r282d7hl8ircso,1,3,2,190,45,pd,1,0.0,1.0,5.956,1,1,0.0
a0dnodmhv7r282d7hl8ircso,2,3,2,131,30,pd,2,2.0,0.0,11.103,1,1,0.0
a0dnodmhv7r282d7hl8ircso,3,3,2,246,55,pd,3,0.0,1.0,10.126,1,1,0.0
a0dnodmhv7r282d7hl8ircso,4,3,2,124,29,pd,1,3.0,0.0,6.456,1,1,0.0
a0dnodmhv7r282d7hl8ircso,5,3,2,292,64,pd,1,0.0,1.0,10.768,1,1,0.0
a0dnodmhv7r282d7hl8ircso,6,3,2,148,35,pd,1,0.0,1.0,11.05,1,1,0.0
a0dnodmhv7r282d7hl8ircso,7,3,2,94,24,pd,1,0.0,1.0,7.61,1,1,0.0
a0dnodmhv7r282d7hl8ircso,8,3,2,54,17,pd,3,0.0,1.0,22.306,1,1,0.0
a0dnodmhv7r282d7hl8ircso,9,3,2,255,58,md,3,0.0,1.0,18.771,1,1,0.0
a0dnodmhv7r282d7hl8ircso,10,3,2,358,76,pd,1,2.0,0.0,12.964,1,1,0.0
a0dnodmhv7r282d7hl8ircso,11,3,2,336,72,pd,3,2.0,0.0,19.496,1,1,0.0
a0dnodmhv7r282d7hl8ircso,12,3,2,305,66,pd,2,1.0,0.0,12.501,1,1,0.0
a6lvb19al183cjphbm5tvm5r,1,3,2,190,45,pd,1,2.0,0.0,4.179,1,1,0.0
a6lvb19al183cjphbm5tvm5r,2,3,2,131,30,pd,2,0.0,1.0,8.37,1,1,0.0
a6lvb19al183cjphbm5tvm5r,3,3,2,246,55,pd,3,0.0,1.0,6.625,1,1,0.0
a6lvb19al183cjphbm5tvm5r,4,3,2,124,29,pd,1,0.0,1.0,10.654,1,1,0.0
a6lvb19al183cjphbm5tvm5r,5,3,2,292,64,pd,1,1.0,0.0,9.604,1,1,0.0
a6lvb19al183cjphbm5tvm5r,6,3,2,148,35,pd,1,0.0,1.0,8.64,1,1,0.0
a6lvb19al183cjphbm5tvm5r,7,3,2,94,24,pd,1,2.0,0.0,8.886,1,1,0.0
a6lvb19al183cjphbm5tvm5r,8,3,2,54,17,pd,3,1.0,0.0,7.128,1,1,0.0
a6lvb19al183cjphbm5tvm5r,9,3,2,255,58,md,3,1.0,0.0,6.458,1,1,0.0
a6lvb19al183cjphbm5tvm5r,10,3,2,358,76,pd,1,0.0,1.0,9.958,1,1,0.0
a6lvb19al183cjphbm5tvm5r,11,3,2,336,72,pd,3,2.0,0.0,2.528,1,1,0.0
a6lvb19al183cjphbm5tvm5r,12,3,2,305,66,pd,2,3.0,0.0,2.746,1,1,0.0
ab156hhj39pbdfdmqex7354t,1,3,2,190,45,pd,1,0.0,1.0,11.468,1,1,0.0
ab156hhj39pbdfdmqex7354t,2,3,2,131,30,pd,2,0.0,1.0,10.131,1,1,0.0
ab156hhj39pbdfdmqex7354t,3,3,2,246,55,pd,3,0.0,1.0,11.684,1,1,0.0
ab156hhj39pbdfdmqex7354t,4,3,2,124,29,pd,1,0.0,1.0,8.156,1,1,0.0
ab156hhj39pbdfdmqex7354t,5,3,2,292,64,pd,1,0.0,1.0,18.884,1,1,0.0
ab156hhj39pbdfdmqex7354t,6,3,2,148,35,pd,1,0.0,1.0,10.378,1,1,0.0
ab156hhj39pbdfdmqex7354t,7,3,2,94,24,pd,1,0.0,1.0,12.796,1,1,0.0
ab156hhj39pbdfdmqex7354t,8,3,2,54,17,pd,3,0.0,1.0,11.906,1,1,0.0
ab156hhj39pbdfdmqex7354t,9,3,2,255,58,md,3,1.0,0.0,9.411,1,1,0.0
ab156hhj39pbdfdmqex7354t,10,3,2,358,76,pd,1,0.0,1.0,16.168,1,1,0.0
ab156hhj39pbdfdmqex7354t,11,3,2,336,72,pd,3,0.0,1.0,8.028,1,1,0.0
ab156hhj39pbdfdmqex7354t,12,3,2,305,66,pd,2,2.0,0.0,15.499,1,1,0.0
acxs3cqciegrxqn3j2d0r5xj,1,3,3,191,45,pd,2,2.0,0.0,17.784,1,1,0.0
acxs3cqciegrxqn3j2d0r5xj,2,3,3,244,55,pd,1,0.0,1.0,19.982,1,1,0.0
acxs3cqciegrxqn3j2d0r5xj,3,3,3,132,30,pd,3,0.0,1.0,26.061,1,1,0.0
acxs3cqciegrxqn3j2d0r5xj,4,3,3,253,58,md,1,0.0,1.0,13.598,1,1,0.0
acxs3cqciegrxqn3j2d0r5xj,5,3,3,52,17,pd,1,0.0,1.0,21.019,1,1,0.0
acxs3cqciegrxqn3j2d0r5xj,6,3,3,334,72,pd,1,0.0,1.0,14.739,1,1,0.0
acxs3cqciegrxqn3j2d0r5xj,7,3,3,125,29,pd,2,0.0,1.0,14.305,1,1,0.0
acxs3cqciegrxqn3j2d0r5xj,8,3,3,359,76,pd,2,0.0,1.0,8.409,1,1,0.0
acxs3cqciegrxqn3j2d0r5xj,9,3,3,149,35,pd,2,0.0,1.0,19.061,1,1,0.0
acxs3cqciegrxqn3j2d0r5xj,10,3,3,293,64,pd,2,0.0,1.0,24.867,1,1,0.0
acxs3cqciegrxqn3j2d0r5xj,11,3,3,306,66,pd,3,1.0,0.0,27.519,1,1,0.0
acxs3cqciegrxqn3j2d0r5xj,12,3,3,95,24,pd,2,0.0,1.0,14.596,1,1,0.0
ae9x8jlpq2by67vm77fdw21b,1,3,1,245,55,pd,2,1.0,0.0,17.716,1,1,0.0
ae9x8jlpq2by67vm77fdw21b,2,3,1,304,66,pd,1,2.0,0.0,17.887,1,1,0.0
ae9x8jlpq2by67vm77fdw21b,3,3,1,130,30,pd,1,0.0,1.0,8.372,1,1,0.0
ae9x8jlpq2by67vm77fdw21b,4,3,1,254,58,md,2,3.0,0.0,10.292,1,1,0.0
ae9x8jlpq2by67vm77fdw21b,5,3,1,192,45,pd,3,0.0,1.0,8.365,1,1,0.0
ae9x8jlpq2by67vm77fdw21b,6,3,1,126,29,pd,3,0.0,1.0,14.073,1,1,0.0
ae9x8jlpq2by67vm77fdw21b,7,3,1,53,17,pd,2,1.0,0.0,16.366,1,1,0.0
ae9x8jlpq2by67vm77fdw21b,8,3,1,96,24,pd,3,3.0,0.0,13.551,1,1,0.0
ae9x8jlpq2by67vm77fdw21b,9,3,1,335,72,pd,2,0.0,1.0,18.402,1,1,0.0
ae9x8jlpq2by67vm77fdw21b,10,3,1,294,64,pd,3,0.0,1.0,21.304,1,1,0.0
ae9x8jlpq2by67vm77fdw21b,11,3,1,360,76,pd,3,1.0,0.0,11.035,1,1,0.0
ae9x8jlpq2by67vm77fdw21b,12,3,1,150,35,pd,3,3.0,0.0,13.562,1,1,0.0
aek1qwmstue08jfqva0nuctd,1,3,1,245,55,pd,2,1.0,0.0,13.131,1,1,0.0
aek1qwmstue08jfqva0nuctd,2,3,1,304,66,pd,1,0.0,1.0,9.268,1,1,0.0
aek1qwmstue08jfqva0nuctd,3,3,1,130,30,pd,1,0.0,1.0,12.684,1,1,0.0
aek1qwmstue08jfqva0nuctd,4,3,1,254,58,md,2,0.0,1.0,15.5,1,1,0.0
aek1qwmstue08jfqva0nuctd,5,3,1,192,45,pd,3,0.0,1.0,17.531,1,1,0.0
aek1qwmstue08jfqva0nuctd,6,3,1,126,29,pd,3,0.0,1.0,15.686,1,1,0.0
aek1qwmstue08jfqva0nuctd,7,3,1,53,17,pd,2,1.0,0.0,27.996,1,1,0.0
aek1qwmstue08jfqva0nuctd,8,3,1,96,24,pd,3,0.0,1.0,12.185,1,1,0.0
aek1qwmstue08jfqva0nuctd,9,3,1,335,72,pd,2,0.0,1.0,25.898,1,1,0.0
aek1qwmstue08jfqva0nuctd,10,3,1,294,64,pd,3,0.0,1.0,26.736,1,1,0.0
aek1qwmstue08jfqva0nuctd,11,3,1,360,76,pd,3,3.0,0.0,27.756,1,1,0.0
aek1qwmstue08jfqva0nuctd,12,3,1,150,35,pd,3,1.0,0.0,28.046,1,1,0.0
agrzjv5i5moh79wxztsebzww,1,3,1,245,55,pd,2,1.0,0.0,12.924,1,1,0.0
agrzjv5i5moh79wxztsebzww,2,3,1,304,66,pd,1,0.0,1.0,14.143,1,1,0.0
agrzjv5i5moh79wxztsebzww,3,3,1,130,30,pd,1,0.0,1.0,7.948,1,1,0.0
agrzjv5i5moh79wxztsebzww,4,3,1,254,58,md,2,1.0,0.0,14.555,1,1,0.0
agrzjv5i5moh79wxztsebzww,5,3,1,192,45,pd,3,1.0,0.0,17.4,1,1,0.0
agrzjv5i5moh79wxztsebzww,6,3,1,126,29,pd,3,0.0,1.0,8.836,1,1,0.0
agrzjv5i5moh79wxztsebzww,7,3,1,53,17,pd,2,0.0,1.0,13.788,1,1,0.0
agrzjv5i5moh79wxztsebzww,8,3,1,96,24,pd,3,0.0,1.0,14.101,1,1,0.0
agrzjv5i5moh79wxztsebzww,9,3,1,335,72,pd,2,3.0,0.0,13.639,1,1,0.0
agrzjv5i5moh79wxztsebzww,10,3,1,294,64,pd,3,0.0,1.0,18.307,1,1,0.0
agrzjv5i5moh79wxztsebzww,11,3,1,360,76,pd,3,3.0,0.0,14.307,1,1,0.0
agrzjv5i5moh79wxztsebzww,12,3,1,150,35,pd,3,0.0,1.0,16.304,1,1,0.0
ahu64kinfjnyyollp82777wn,1,3,3,191,45,pd,2,0.0,1.0,9.584,1,1,0.0
ahu64kinfjnyyollp82777wn,2,3,3,244,55,pd,1,0.0,1.0,9.355,1,1,0.0
ahu64kinfjnyyollp82777wn,3,3,3,132,30,pd,3,0.0,1.0,14.55,1,1,0.0
ahu64kinfjnyyollp82777wn,4,3,3,253,58,md,1,0.0,1.0,14.7,1,1,0.0
ahu64kinfjnyyollp82777wn,5,3,3,52,17,pd,1,1.0,0.0,21.494,1,1,0.0
ahu64kinfjnyyollp82777wn,6,3,3,334,72,pd,1,0.0,1.0,16.418,1,1,0.0
ahu64kinfjnyyollp82777wn,7,3,3,125,29,pd,2,0.0,1.0,22.119,1,1,0.0
ahu64kinfjnyyollp82777wn,8,3,3,359,76,pd,2,0.0,1.0,25.047,1,1,0.0
ahu64kinfjnyyollp82777wn,9,3,3,149,35,pd,2,0.0,1.0,28.99,1,1,0.0
ahu64kinfjnyyollp82777wn,10,3,3,293,64,pd,2,0.0,1.0,29.713,1,1,0.0
ahu64kinfjnyyollp82777wn,11,3,3,306,66,pd,3,0.0,1.0,27.537,1,1,0.0
ahu64kinfjnyyollp82777wn,12,3,3,95,24,pd,2,0.0,1.0,22.108,1,1,0.0
aj7e9j320ju26mkz3sc7btj1,1,3,1,245,55,pd,2,0.0,1.0,16.214,1,1,0.0
aj7e9j320ju26mkz3sc7btj1,2,3,1,304,66,pd,1,0.0,1.0,12.401,1,1,0.0
aj7e9j320ju26mkz3sc7btj1,3,3,1,130,30,pd,1,0.0,1.0,12.613,1,1,0.0
aj7e9j320ju26mkz3sc7btj1,4,3,1,254,58,md,2,1.0,0.0,14.238,1,1,0.0
aj7e9j320ju26mkz3sc7btj1,5,3,1,192,45,pd,3,0.0,1.0,20.911,1,1,0.0
aj7e9j320ju26mkz3sc7btj1,6,3,1,126,29,pd,3,0.0,1.0,18.151,1,1,0.0
aj7e9j320ju26mkz3sc7btj1,7,3,1,53,17,pd,2,1.0,0.0,25.248,1,1,0.0
aj7e9j320ju26mkz3sc7btj1,8,3,1,96,24,pd,3,0.0,1.0,19.963,1,1,0.0
aj7e9j320ju26mkz3sc7btj1,9,3,1,335,72,pd,2,0.0,1.0,15.925,1,1,0.0
aj7e9j320ju26mkz3sc7btj1,10,3,1,294,64,pd,3,0.0,1.0,20.683,1,1,0.0
aj7e9j320ju26mkz3sc7btj1,11,3,1,360,76,pd,3,0.0,1.0,15.242,1,1,0.0
aj7e9j320ju26mkz3sc7btj1,12,3,1,150,35,pd,3,0.0,1.0,28.061,1,1,0.0
am6zb9w2t76m3yi7p28hley8,1,3,2,190,45,pd,1,2.0,0.0,7.654,1,1,0.0
am6zb9w2t76m3yi7p28hley8,2,3,2,131,30,pd,2,3.0,0.0,15.78,1,1,0.0
am6zb9w2t76m3yi7p28hley8,3,3,2,246,55,pd,3,2.0,0.0,11.702,1,1,0.0
am6zb9w2t76m3yi7p28hley8,4,3,2,124,29,pd,1,1.0,0.0,8.691,1,1,0.0
am6zb9w2t76m3yi7p28hley8,5,3,2,292,64,pd,1,3.0,0.0,11.089,1,1,0.0
am6zb9w2t76m3yi7p28hley8,6,3,2,148,35,pd,1,1.0,0.0,5.0,1,1,0.0
am6zb9w2t76m3yi7p28hley8,7,3,2,94,24,pd,1,2.0,0.0,8.243,1,1,0.0
am6zb9w2t76m3yi7p28hley8,8,3,2,54,17,pd,3,0.0,1.0,13.729,1,1,0.0
am6zb9w2t76m3yi7p28hley8,9,3,2,255,58,md,3,2.0,0.0,7.358,1,1,0.0
am6zb9w2t76m3yi7p28hley8,10,3,2,358,76,pd,1,3.0,0.0,7.052,1,1,0.0
am6zb9w2t76m3yi7p28hley8,11,3,2,336,72,pd,3,3.0,0.0,5.325,1,1,0.0
am6zb9w2t76m3yi7p28hley8,12,3,2,305,66,pd,2,2.0,0.0,2.879,1,1,0.0
aox5tz1fjp09ccnxtj5ld1sf,1,3,2,190,45,pd,1,0.0,1.0,10.53,1,1,0.0
aox5tz1fjp09ccnxtj5ld1sf,2,3,2,131,30,pd,2,0.0,1.0,17.138,1,1,0.0
aox5tz1fjp09ccnxtj5ld1sf,3,3,2,246,55,pd,3,2.0,0.0,19.75,1,1,0.0
aox5tz1fjp09ccnxtj5ld1sf,4,3,2,124,29,pd,1,0.0,1.0,19.058,1,1,0.0
aox5tz1fjp09ccnxtj5ld1sf,5,3,2,292,64,pd,1,0.0,1.0,24.106,1,1,0.0
aox5tz1fjp09ccnxtj5ld1sf,6,3,2,148,35,pd,1,0.0,1.0,17.915,1,1,0.0
aox5tz1fjp09ccnxtj5ld1sf,7,3,2,94,24,pd,1,0.0,1.0,16.233,1,1,0.0
aox5tz1fjp09ccnxtj5ld1sf,8,3,2,54,17,pd,3,1.0,0.0,23.108,1,1,0.0
aox5tz1fjp09ccnxtj5ld1sf,9,3,2,255,58,md,3,0.0,1.0,21.691,1,1,0.0
aox5tz1fjp09ccnxtj5ld1sf,10,3,2,358,76,pd,1,0.0,1.0,13.994,1,1,0.0
aox5tz1fjp09ccnxtj5ld1sf,11,3,2,336,72,pd,3,0.0,1.0,15.816,1,1,0.0
aox5tz1fjp09ccnxtj5ld1sf,12,3,2,305,66,pd,2,3.0,0.0,15.486,1,1,0.0
ars3wnj5g3gb3vq2am7uab70,1,3,1,245,55,pd,2,0.0,1.0,10.492,1,1,0.0
ars3wnj5g3gb3vq2am7uab70,2,3,1,304,66,pd,1,0.0,1.0,8.77,1,1,0.0
ars3wnj5g3gb3vq2am7uab70,3,3,1,130,30,pd,1,0.0,1.0,5.811,1,1,0.0
ars3wnj5g3gb3vq2am7uab70,4,3,1,254,58,md,2,0.0,1.0,10.585,1,1,0.0
ars3wnj5g3gb3vq2am7uab70,5,3,1,192,45,pd,3,0.0,1.0,9.891,1,1,0.0
ars3wnj5g3gb3vq2am7uab70,6,3,1,126,29,pd,3,0.0,1.0,5.976,1,1,0.0
ars3wnj5g3gb3vq2am7uab70,7,3,1,53,17,pd,2,1.0,0.0,17.2,1,1,0.0
ars3wnj5g3gb3vq2am7uab70,8,3,1,96,24,pd,3,0.0,1.0,20.603,1,1,0.0
ars3wnj5g3gb3vq2am7uab70,9,3,1,335,72,pd,2,0.0,1.0,14.353,1,1,2.0
ars3wnj5g3gb3vq2am7uab70,10,3,1,294,64,pd,3,1.0,0.0,13.712,1,1,0.0
ars3wnj5g3gb3vq2am7uab70,11,3,1,360,76,pd,3,0.0,1.0,8.964,1,1,0.0
ars3wnj5g3gb3vq2am7uab70,12,3,1,150,35,pd,3,0.0,1.0,13.196,1,1,0.0
atx8sqtf5tpw6p9mwiqw1rkh,1,3,3,191,45,pd,2,0.0,1.0,11.363,1,1,0.0
atx8sqtf5tpw6p9mwiqw1rkh,2,3,3,244,55,pd,1,0.0,1.0,6.542,1,1,0.0
atx8sqtf5tpw6p9mwiqw1rkh,3,3,3,132,30,pd,3,0.0,1.0,13.639,1,1,0.0
atx8sqtf5tpw6p9mwiqw1rkh,4,3,3,253,58,md,1,0.0,1.0,10.982,1,1,0.0
atx8sqtf5tpw6p9mwiqw1rkh,5,3,3,52,17,pd,1,0.0,1.0,20.287,1,1,0.0
atx8sqtf5tpw6p9mwiqw1rkh,6,3,3,334,72,pd,1,0.0,1.0,8.144,1,1,0.0
atx8sqtf5tpw6p9mwiqw1rkh,7,3,3,125,29,pd,2,0.0,1.0,10.98,1,1,0.0
atx8sqtf5tpw6p9mwiqw1rkh,8,3,3,359,76,pd,2,0.0,1.0,17.975,1,1,0.0
atx8sqtf5tpw6p9mwiqw1rkh,9,3,3,149,35,pd,2,0.0,1.0,13.146,1,1,0.0
atx8sqtf5tpw6p9mwiqw1rkh,10,3,3,293,64,pd,2,2.0,0.0,17.836,1,1,0.0
atx8sqtf5tpw6p9mwiqw1rkh,11,3,3,306,66,pd,3,0.0,1.0,15.697,1,1,0.0
atx8sqtf5tpw6p9mwiqw1rkh,12,3,3,95,24,pd,2,0.0,1.0,23.854,1,1,0.0
aw5ty2rivqrj6l4fcekm8bzp,1,3,1,245,55,pd,2,0.0,1.0,11.299,1,1,0.0
aw5ty2rivqrj6l4fcekm8bzp,2,3,1,304,66,pd,1,0.0,1.0,5.13,1,1,0.0
aw5ty2rivqrj6l4fcekm8bzp,3,3,1,130,30,pd,1,0.0,1.0,6.336,1,1,0.0
aw5ty2rivqrj6l4fcekm8bzp,4,3,1,254,58,md,2,1.0,0.0,10.438,1,1,0.0
aw5ty2rivqrj6l4fcekm8bzp,5,3,1,192,45,pd,3,0.0,1.0,8.018,1,1,0.0
aw5ty2rivqrj6l4fcekm8bzp,6,3,1,126,29,pd,3,0.0,1.0,7.004,1,1,0.0
aw5ty2rivqrj6l4fcekm8bzp,7,3,1,53,17,pd,2,0.0,1.0,11.653,1,1,0.0
aw5ty2rivqrj6l4fcekm8bzp,8,3,1,96,24,pd,3,0.0,1.0,8.906,1,1,0.0
aw5ty2rivqrj6l4fcekm8bzp,9,3,1,335,72,pd,2,2.0,0.0,14.884,1,1,0.0
aw5ty2rivqrj6l4fcekm8bzp,10,3,1,294,64,pd,3,2.0,0.0,13.999,1,1,0.0
aw5ty2rivqrj6l4fcekm8bzp,11,3,1,360,76,pd,3,0.0,1.0,12.113,1,1,0.0
aw5ty2rivqrj6l4fcekm8bzp,12,3,1,150,35,pd,3,0.0,1.0,13.525,1,1,0.0
ayxd5z2qb6pe6lf9eo42agk6,1,3,1,245,55,pd,2,1.0,0.0,8.508,1,1,0.0
ayxd5z2qb6pe6lf9eo42agk6,2,3,1,304,66,pd,1,0.0,1.0,5.538,1,1,0.0
ayxd5z2qb6pe6lf9eo42agk6,3,3,1,130,30,pd,1,0.0,1.0,6.616,1,1,0.0
ayxd5z2qb6pe6lf9eo42agk6,4,3,1,254,58,md,2,1.0,0.0,11.925,1,1,0.0
ayxd5z2qb6pe6lf9eo42agk6,5,3,1,192,45,pd,3,1.0,0.0,7.697,1,1,0.0
ayxd5z2qb6pe6lf9eo42agk6,6,3,1,126,29,pd,3,0.0,1.0,6.508,1,1,0.0
ayxd5z2qb6pe6lf9eo42agk6,7,3,1,53,17,pd,2,0.0,1.0,9.593,1,1,0.0
ayxd5z2qb6pe6lf9eo42agk6,8,3,1,96,24,pd,3,3.0,0.0,4.689,1,1,0.0
ayxd5z2qb6pe6lf9eo42agk6,9,3,1,335,72,pd,2,0.0,1.0,3.299,1,1,0.0
ayxd5z2qb6pe6lf9eo42agk6,10,3,1,294,64,pd,3,3.0,0.0,5.558,1,1,0.0
ayxd5z2qb6pe6lf9eo42agk6,11,3,1,360,76,pd,3,1.0,0.0,2.14,1,1,0.0
ayxd5z2qb6pe6lf9eo42agk6,12,3,1,150,35,pd,3,0.0,1.0,2.079,1,1,0.0
b5frji5hv5d7xietvx944qzz,1,3,1,245,55,pd,2,2.0,0.0,19.423,1,1,0.0
b5frji5hv5d7xietvx944qzz,2,3,1,304,66,pd,1,0.0,1.0,11.525,1,1,0.0
b5frji5hv5d7xietvx944qzz,3,3,1,130,30,pd,1,3.0,0.0,8.31,1,1,0.0
b5frji5hv5d7xietvx944qzz,4,3,1,254,58,md,2,3.0,0.0,14.98,1,1,0.0
b5frji5hv5d7xietvx944qzz,5,3,1,192,45,pd,3,0.0,1.0,10.716,1,1,0.0
b5frji5hv5d7xietvx944qzz,6,3,1,126,29,pd,3,3.0,0.0,14.957,1,1,0.0
b5frji5hv5d7xietvx944qzz,7,3,1,53,17,pd,2,0.0,1.0,16.645,1,1,0.0
b5frji5hv5d7xietvx944qzz,8,3,1,96,24,pd,3,1.0,0.0,13.845,1,1,0.0
b5frji5hv5d7xietvx944qzz,9,3,1,335,72,pd,2,3.0,0.0,18.996,1,1,0.0
b5frji5hv5d7xietvx944qzz,10,3,1,294,64,pd,3,1.0,0.0,20.131,1,1,0.0
b5frji5hv5d7xietvx944qzz,11,3,1,360,76,pd,3,3.0,0.0,16.665,1,1,0.0
b5frji5hv5d7xietvx944qzz,12,3,1,150,35,pd,3,0.0,1.0,23.812,1,1,0.0
b9w0hqvlnhfdd6fqenf1aibq,1,3,3,191,45,pd,2,2.0,0.0,17.251,1,1,0.0
b9w0hqvlnhfdd6fqenf1aibq,2,3,3,244,55,pd,1,0.0,1.0,19.33,1,1,0.0
b9w0hqvlnhfdd6fqenf1aibq,3,3,3,132,30,pd,3,0.0,1.0,19.931,1,1,0.0
b9w0hqvlnhfdd6fqenf1aibq,4,3,3,253,58,md,1,0.0,1.0,18.446,1,1,0.0
b9w0hqvlnhfdd6fqenf1aibq,5,3,3,52,17,pd,1,2.0,0.0,28.692,1,1,0.0
b9w0hqvlnhfdd6fqenf1aibq,6,3,3,334,72,pd,1,0.0,1.0,18.588,1,1,0.0
b9w0hqvlnhfdd6fqenf1aibq,7,3,3,125,29,pd,2,3.0,0.0,24.454,1,1,0.0
b9w0hqvlnhfdd6fqenf1aibq,8,3,3,359,76,pd,2,0.0,1.0,29.674,1,1,0.0
b9w0hqvlnhfdd6fqenf1aibq,9,3,3,149,35,pd,2,0.0,1.0,28.002,1,1,0.0
b9w0hqvlnhfdd6fqenf1aibq,10,3,3,293,64,pd,2,2.0,0.0,29.956,1,1,0.0
b9w0hqvlnhfdd6fqenf1aibq,11,3,3,306,66,pd,3,0.0,1.0,29.445,1,1,0.0
b9w0hqvlnhfdd6fqenf1aibq,12,3,3,95,24,pd,2,0.0,1.0,26.828,1,1,0.0
bck2fz6vznfqthbjg701yoir,1,3,3,191,45,pd,2,0.0,1.0,13.255,1,1,0.0
bck2fz6vznfqthbjg701yoir,2,3,3,244,55,pd,1,0.0,1.0,10.108,1,1,0.0
bck2fz6vznfqthbjg701yoir,3,3,3,132,30,pd,3,0.0,1.0,22.385,1,1,0.0
bck2fz6vznfqthbjg701yoir,4,3,3,253,58,md,1,0.0,1.0,28.836,1,1,0.0
bck2fz6vznfqthbjg701yoir,5,3,3,52,17,pd,1,1.0,0.0,26.607,1,1,0.0
bck2fz6vznfqthbjg701yoir,6,3,3,334,72,pd,1,2.0,0.0,24.28,1,1,0.0
bck2fz6vznfqthbjg701yoir,7,3,3,125,29,pd,2,2.0,0.0,27.559,1,1,0.0
bck2fz6vznfqthbjg701yoir,8,3,3,359,76,pd,2,0.0,1.0,29.44,1,1,0.0
bck2fz6vznfqthbjg701yoir,9,3,3,149,35,pd,2,0.0,1.0,26.744,1,1,0.0
bck2fz6vznfqthbjg701yoir,10,3,3,293,64,pd,2,,,,1,1,0.0
bck2fz6vznfqthbjg701yoir,11,3,3,306,66,pd,3,1.0,0.0,27.984,1,1,0.0
bck2fz6vznfqthbjg701yoir,12,3,3,95,24,pd,2,2.0,0.0,14.598,1,1,0.0
bet3v8jup1a9hzxfgo41uivh,1,3,1,245,55,pd,2,0.0,1.0,7.873,1,1,0.0
bet3v8jup1a9hzxfgo41uivh,2,3,1,304,66,pd,1,0.0,1.0,6.661,1,1,0.0
bet3v8jup1a9hzxfgo41uivh,3,3,1,130,30,pd,1,3.0,0.0,7.658,1,1,0.0
bet3v8jup1a9hzxfgo41uivh,4,3,1,254,58,md,2,3.0,0.0,9.814,1,1,0.0
bet3v8jup1a9hzxfgo41uivh,5,3,1,192,45,pd,3,0.0,1.0,24.909,1,1,0.0
bet3v8jup1a9hzxfgo41uivh,6,3,1,126,29,pd,3,0.0,1.0,18.074,1,1,0.0
bet3v8jup1a9hzxfgo41uivh,7,3,1,53,17,pd,2,0.0,1.0,17.764,1,1,0.0
bet3v8jup1a9hzxfgo41uivh,8,3,1,96,24,pd,3,3.0,0.0,16.579,1,1,0.0
bet3v8jup1a9hzxfgo41uivh,9,3,1,335,72,pd,2,0.0,1.0,11.935,1,1,0.0
bet3v8jup1a9hzxfgo41uivh,10,3,1,294,64,pd,3,0.0,1.0,17.172,1,1,0.0
bet3v8jup1a9hzxfgo41uivh,11,3,1,360,76,pd,3,0.0,1.0,5.962,1,1,0.0
bet3v8jup1a9hzxfgo41uivh,12,3,1,150,35,pd,3,0.0,1.0,26.783,1,1,0.0
bl14rdmw7m65wh8n7bxmwjbg,1,3,3,191,45,pd,2,1.0,0.0,9.398,0,1,0.0
bl14rdmw7m65wh8n7bxmwjbg,2,3,3,244,55,pd,1,3.0,0.0,5.888,0,1,0.0
bl14rdmw7m65wh8n7bxmwjbg,3,3,3,132,30,pd,3,1.0,0.0,6.223,0,1,0.0
bl14rdmw7m65wh8n7bxmwjbg,4,3,3,253,58,md,1,0.0,1.0,1.257,0,1,0.0
bl14rdmw7m65wh8n7bxmwjbg,5,3,3,52,17,pd,1,0.0,1.0,12.244,1,1,0.0
bl14rdmw7m65wh8n7bxmwjbg,6,3,3,334,72,pd,1,0.0,1.0,19.058,1,1,0.0
bl14rdmw7m65wh8n7bxmwjbg,7,3,3,125,29,pd,2,0.0,1.0,7.984,1,1,0.0
bl14rdmw7m65wh8n7bxmwjbg,8,3,3,359,76,pd,2,0.0,1.0,12.381,1,1,0.0
bl14rdmw7m65wh8n7bxmwjbg,9,3,3,149,35,pd,2,0.0,1.0,16.963,1,1,0.0
bl14rdmw7m65wh8n7bxmwjbg,10,3,3,293,64,pd,2,0.0,1.0,17.083,0,1,0.0
bl14rdmw7m65wh8n7bxmwjbg,11,3,3,306,66,pd,3,2.0,0.0,14.644,1,1,0.0
bl14rdmw7m65wh8n7bxmwjbg,12,3,3,95,24,pd,2,0.0,1.0,12.894,1,1,0.0
bm25wtb8h4y0rcrunpse40us,1,3,3,191,45,pd,2,0.0,1.0,14.019,1,1,0.0
bm25wtb8h4y0rcrunpse40us,2,3,3,244,55,pd,1,0.0,1.0,25.009,1,1,0.0
bm25wtb8h4y0rcrunpse40us,3,3,3,132,30,pd,3,0.0,1.0,10.401,1,1,0.0
bm25wtb8h4y0rcrunpse40us,4,3,3,253,58,md,1,0.0,1.0,25.974,1,1,0.0
bm25wtb8h4y0rcrunpse40us,5,3,3,52,17,pd,1,0.0,1.0,14.355,1,1,0.0
bm25wtb8h4y0rcrunpse40us,6,3,3,334,72,pd,1,0.0,1.0,18.714,1,1,0.0
bm25wtb8h4y0rcrunpse40us,7,3,3,125,29,pd,2,0.0,1.0,25.356,1,1,0.0
bm25wtb8h4y0rcrunpse40us,8,3,3,359,76,pd,2,0.0,1.0,25.015,1,1,0.0
bm25wtb8h4y0rcrunpse40us,9,3,3,149,35,pd,2,0.0,1.0,9.442,1,1,0.0
bm25wtb8h4y0rcrunpse40us,10,3,3,293,64,pd,2,0.0,1.0,27.489,1,1,0.0
bm25wtb8h4y0rcrunpse40us,11,3,3,306,66,pd,3,3.0,0.0,15.976,1,1,0.0
bm25wtb8h4y0rcrunpse40us,12,3,3,95,24,pd,2,0.0,1.0,24.316,1,1,0.0
bsfky5izk36x46djd023jeph,1,3,3,191,45,pd,2,0.0,1.0,25.259,1,1,0.0
bsfky5izk36x46djd023jeph,2,3,3,244,55,pd,1,0.0,1.0,14.957,1,1,0.0
bsfky5izk36x46djd023jeph,3,3,3,132,30,pd,3,0.0,1.0,13.809,1,1,0.0
bsfky5izk36x46djd023jeph,4,3,3,253,58,md,1,1.0,0.0,25.67,1,1,0.0
bsfky5izk36x46djd023jeph,5,3,3,52,17,pd,1,0.0,1.0,26.271,1,1,0.0
bsfky5izk36x46djd023jeph,6,3,3,334,72,pd,1,0.0,1.0,9.987,1,1,0.0
bsfky5izk36x46djd023jeph,7,3,3,125,29,pd,2,0.0,1.0,27.448,1,1,0.0
bsfky5izk36x46djd023jeph,8,3,3,359,76,pd,2,0.0,1.0,28.889,1,1,0.0
bsfky5izk36x46djd023jeph,9,3,3,149,35,pd,2,0.0,1.0,20.869,1,1,0.0
bsfky5izk36x46djd023jeph,10,3,3,293,64,pd,2,0.0,1.0,26.591,1,1,0.0
bsfky5izk36x46djd023jeph,11,3,3,306,66,pd,3,1.0,0.0,24.017,1,1,0.0
bsfky5izk36x46djd023jeph,12,3,3,95,24,pd,2,2.0,0.0,16.792,1,1,0.0
bu4s3z49jmgzr5do2tt8oyrn,1,3,2,190,45,pd,1,0.0,1.0,9.42,1,1,0.0
bu4s3z49jmgzr5do2tt8oyrn,2,3,2,131,30,pd,2,3.0,0.0,6.138,1,1,0.0
bu4s3z49jmgzr5do2tt8oyrn,3,3,2,246,55,pd,3,0.0,1.0,12.17,1,1,0.0
bu4s3z49jmgzr5do2tt8oyrn,4,3,2,124,29,pd,1,0.0,1.0,15.849,1,1,0.0
bu4s3z49jmgzr5do2tt8oyrn,5,3,2,292,64,pd,1,0.0,1.0,13.918,1,1,0.0
bu4s3z49jmgzr5do2tt8oyrn,6,3,2,148,35,pd,1,1.0,0.0,11.626,1,1,0.0
bu4s3z49jmgzr5do2tt8oyrn,7,3,2,94,24,pd,1,0.0,1.0,14.854,1,1,0.0
bu4s3z49jmgzr5do2tt8oyrn,8,3,2,54,17,pd,3,2.0,0.0,13.654,1,1,0.0
bu4s3z49jmgzr5do2tt8oyrn,9,3,2,255,58,md,3,2.0,0.0,10.331,1,1,0.0
bu4s3z49jmgzr5do2tt8oyrn,10,3,2,358,76,pd,1,1.0,0.0,5.858,1,1,0.0
bu4s3z49jmgzr5do2tt8oyrn,11,3,2,336,72,pd,3,1.0,0.0,1.136,1,1,0.0
bu4s3z49jmgzr5do2tt8oyrn,12,3,2,305,66,pd,2,2.0,0.0,1.885,1,1,0.0
